time,seconds_elapsed,z,y,x
1783170068607353000,0.07335302734375,0.20054361513257027,-0.23723873032331466,-0.3965034096062183
1783170068617423000,0.083423095703125,0.31097675122916696,-0.24851357305347918,-0.41868049889449027
1783170068627491800,0.093491943359375,0.4531313057571649,-0.22622750696539878,-0.39870771471746264
1783170068637562000,0.10356201171875,0.4590881683349609,-0.23713293186128137,-0.3760809819655493
1783170068647630800,0.113630859375,0.33250703051388264,-0.27109511495679617,-0.4182088262621313
1783170068657701000,0.123701171875,0.11694704803526401,-0.26847324202060696,-0.47553168240729715
1783170068667771100,0.133771240234375,0.007935469174385071,-0.25023937393277884,-0.5199448976946994
1783170068677840000,0.14383984375,0.07222703182101249,-0.2252156995743513,-0.5414338220557198
1783170068687910100,0.15391015625,0.1801467237919569,-0.21398352694213388,-0.5317923892136663
1783170068697979000,0.163978759765625,0.29137071800529957,-0.19178221652805805,-0.4701692055260762
1783170068708049200,0.174049072265625,0.3561065172880888,-0.11605740571916102,-0.46750005938205863
1783170068718119200,0.184119140625,0.3510083173662424,-0.10877426297366619,-0.49071569793783126
1783170068728188200,0.194188232421875,0.3036129444628954,-0.13954291072487832,-0.5174523136939854
1783170068738258200,0.204258056640625,0.3195078482091427,-0.14201836092770098,-0.5617801157202571
1783170068748327000,0.214326904296875,0.3907353475987911,-0.1156076161250472,-0.5524584163518622
1783170068758397200,0.224397216796875,0.47399230747818943,-0.0736690473228693,-0.47951538174860175
1783170068768467000,0.234467041015625,0.47095863887071604,-0.08160188614875077,-0.4403549358902499
1783170068778536200,0.2445361328125,0.4599100061118602,-0.04625292486995458,-0.37400830387733874
1783170068788606000,0.25460595703125,0.4820978725224733,-0.008496610188484192,-0.22935784088037905
1783170068798675000,0.264675048828125,0.4455734377235174,0.03449614384174347,-0.21445852404274046
1783170068808745200,0.2747451171875,0.42181086934208867,-0.06398994935154914,-0.30512966916877776
1783170068818815000,0.28481494140625,0.3377221348136663,-0.17115268547534943,-0.39519587067160755
1783170068828884200,0.29488427734375,0.16198270606994628,-0.09881634806096554,-0.46946175137646495
1783170068838954000,0.3049541015625,-0.00473871895968914,-0.023476737177371976,-0.5546886230893433
1783170068849024000,0.31502392578125,-0.003951952496170997,-0.09863047010004519,-0.6542572508223354
1783170068859093000,0.325093017578125,-0.09749825119972229,-0.1430243230998516,-0.6456690168276429
1783170068869163000,0.3351630859375,-0.061088382691144937,-0.08309767766445875,-0.43062940496131774
1783170068879232000,0.34523193359375,-0.05032032043933868,0.0019859131202101706,-0.16210278878565876
1783170068889302000,0.355302001953125,-0.19838672935962676,0.09243073867708444,-0.09668518125116825
1783170068899372000,0.3653720703125,-0.5294780478566885,0.14183715914189815,0.011838467962294817
1783170068909441000,0.37544091796875,-0.5650543881505727,0.09784808755069971,-0.09167462308015674
1783170068919511000,0.385510986328125,-0.3026110739439726,-0.03633417292386293,-0.3771735264426097
1783170068929580000,0.395580078125,0.08829904569983482,-0.024683774879574773,-0.3633719782464206
1783170068939650000,0.405650146484375,0.31696108633577824,0.25840806734114885,0.0048118937937542796
1783170068949720000,0.415719970703125,0.24862580125629902,0.34730741702169177,0.3683415833525359
1783170068959789000,0.4257890625,-0.01723871957063675,0.1745990265369415,0.28978542157523335
1783170068969859000,0.435859130859375,-0.3115180184990167,0.5616261672675609,-0.12371497126761823
1783170068979928000,0.445927978515625,-0.1221364333719015,0.9647957567647099,-0.5990149638108909
1783170068989998000,0.455998046875,0.25261457863152026,0.8366691430673002,-0.36369514578618106
1783170069000067800,0.46606787109375,0.27751404208838937,1.0152209988832472,-0.04080196598768234
1783170069010137000,0.47613720703125,0.2574807233631611,1.0842968731969593,0.24327081356178967
1783170069020206800,0.486206787109375,-0.024994740524888037,0.8453224051222205,0.13161321370415388
1783170069030276000,0.496276123046875,0.10424655641615391,0.813200296935439,0.025191943597421048
1783170069040346000,0.50634619140625,0.467122421708703,0.8381991291135549,0.23432112584356218
1783170069050415900,0.516415771484375,0.9250625890523194,0.6662623075231909,0.5238085508529097
1783170069060485000,0.526485107421875,1.6728665769696234,0.528559471707046,0.7482946940436959
1783170069070555000,0.536554931640625,2.6272294947862624,0.43281011000126596,0.7897505938954651
1783170069080624000,0.5466240234375,3.6117630944609638,0.2981388969659805,0.7734077271860093
1783170069090693000,0.556693115234375,4.220502895081043,0.1920370680719614,0.8330513909615576
1783170069100763400,0.566763427734375,4.217265228334069,0.15451047049313782,0.9054260145597159
1783170069110832000,0.57683203125,3.7334687352001663,0.19002105207443237,0.9508725184176117
1783170069120902400,0.58690234375,3.2383208269685504,0.11671528510600328,0.9997226201739161
1783170069130972400,0.596972412109375,3.1690877162665125,-0.0760946670345962,1.1133517027676105
1783170069141041200,0.607041259765625,3.343349473673105,-0.2241888407446444,1.1606000684157014
1783170069151111400,0.617111328125,3.5248680703401565,-0.25038199727386234,1.0176463263340294
1783170069161180200,0.62718017578125,3.424033368194103,-0.18813070828318595,0.8183088721208274
1783170069171250400,0.63725048828125,3.074599168276787,-0.13584259490221737,0.667843366169557
1783170069181320400,0.647320556640625,2.7333073582828042,-0.20912878038734195,0.6757908911079168
1783170069191389400,0.657389404296875,2.346660741302371,-0.25453736338764427,0.60067193723768
1783170069201459500,0.66745947265625,2.1026053167015313,-0.307416428399086,0.5387914543207735
1783170069211528200,0.677528076171875,1.9377350724965332,-0.455038162291795,0.662080930185318
1783170069221598500,0.687598388671875,1.5687147130995989,-0.5402293051041662,0.7312484283052384
1783170069231668200,0.697668212890625,0.8806757503151893,-0.48123687177896496,0.5154990972669795
1783170069241737500,0.707737548828125,0.01388940914273262,-0.2811273372147232,0.2757405661424622
1783170069251807200,0.71780712890625,-0.7025894661843777,-0.14088957609348,0.12405695310570299
1783170069261876200,0.727876220703125,-1.1429466305643319,-0.2067217192456126,-0.010392511504259891
1783170069271946500,0.737946533203125,-1.1580015763550997,-0.2549157682459801,-0.03987366302846931
1783170069282016300,0.748016357421875,-0.8161240754276513,-0.3099461660724133,0.021655188872595318
1783170069292085500,0.75808544921875,-0.4453700241059065,-0.3957970879677683,0.1480735145145096
1783170069302155300,0.7681552734375,-0.2646165665924549,-0.4168471825201064,0.24163464546101165
1783170069312224500,0.778224609375,-0.3449503325015306,-0.3867771845575422,0.382202022129111
1783170069322294300,0.788294189453125,-0.7573433851569891,-0.2831201184671372,0.5528431413531303
1783170069332364300,0.7983642578125,-1.2541975127846001,-0.1852970192272216,0.5243285561390221
1783170069342433300,0.808433349609375,-1.815749445772171,-0.17562186677865682,0.48770413156431164
1783170069352503300,0.81850341796875,-2.42364987295866,-0.1198437923900783,0.5024298819333315
1783170069362573300,0.8285732421875,-2.831245754465461,-0.08267404542490839,0.47902336044795807
1783170069372642300,0.838642333984375,-3.21653861874938,-0.0019943156223744154,0.5311000230353325
1783170069382712300,0.84871240234375,-3.5877632101923225,0.21340616544559596,0.5486533980457112
1783170069392781300,0.85878125,-3.954907254323363,0.4067347346328199,0.57714116831813
1783170069402851300,0.868851318359375,-4.325086720627546,0.5584391347292811,0.5577439920719712
1783170069412921300,0.87892138671875,-4.454071412459015,0.6128136989954859,0.41172819553855805
1783170069422990300,0.888990234375,-4.291246994867921,0.6194369165275245,0.30670747641213236
1783170069433060400,0.899060302734375,-4.1304210576176645,0.5992481149796396,0.260783874828089
1783170069443129300,0.90912939453125,-4.1350118925392625,0.5582174548026174,0.19438140270840376
1783170069453199400,0.919199462890625,-4.187493190404773,0.5199138084366918,0.1331545613946393
1783170069463269000,0.92926904296875,-4.073493301737308,0.44968109223805364,0.10522325596120208
1783170069473338400,0.93933837890625,-3.6767391322404146,0.3691812490470707,0.07927516023423523
1783170069483408100,0.949408203125,-3.173253603774309,0.36573088939748705,0.03588896817332134
1783170069493477400,0.959477294921875,-2.6743314377009866,0.33905681748352945,-0.04525532866735011
1783170069503547400,0.96954736328125,-2.276882856199145,0.36675913646668196,-0.09128036306556314
1783170069513617200,0.9796171875,-2.0326520750313994,0.4473526492904871,-0.15847910012947394
1783170069523686400,0.989686279296875,-1.8574270255506038,0.47603564987406133,-0.23005811637053264
1783170069533756200,0.999756103515625,-1.7101093891710042,0.5234332877997309,-0.26272644199691714
1783170069543825400,1.009825439453125,-1.4559715464949607,0.5190434553429484,-0.2864233064646832
1783170069553895200,1.019895263671875,-1.23877431820333,0.530154047422111,-0.24687705789282915
1783170069563965400,1.02996533203125,-1.1232383060097695,0.5533847739491612,-0.2780902162748389
1783170069574034200,1.0400341796875,-0.8317688038051128,0.4794499883621931,-0.21114998401664195
1783170069584104200,1.050104248046875,-0.37554128559827804,0.418927861251682,-0.09468302938221022
1783170069594173400,1.06017333984375,0.07959960641562938,0.3951064022898674,-0.07105363152693026
1783170069604243200,1.0702431640625,0.37448271645605563,0.37201091951504345,-0.09934812598326243
1783170069614313500,1.0803134765625,0.4935504099071026,0.35584121741540725,-0.13246521829045377
1783170069624382200,1.09038232421875,0.46387072643637656,0.31825945558324453,-0.11463183902860619
1783170069634452200,1.1004521484375,0.4976397250473499,0.2823696654260158,-0.15577018823064862
1783170069644521200,1.110521240234375,0.5590110163331031,0.22202041066437958,-0.127205900389608
1783170069654591200,1.12059130859375,0.6383434962451457,0.12184322257898747,-0.056670721512520686
1783170069664661500,1.13066162109375,0.6459381891578435,-0.010725026827678084,0.06018376200161874
1783170069674730200,1.140730224609375,0.6836544640898704,-0.09009382016211748,0.1357074424815364
1783170069684800500,1.150800537109375,0.7613491136670112,-0.1581597867809236,0.11114868222111836
1783170069694869200,1.160869140625,0.8487450730472803,-0.19123861117064953,0.1274428874832578
1783170069704939300,1.170939208984375,1.0225234308511018,-0.2536180565856397,0.09686804527109488
1783170069715009300,1.18100927734375,1.1301076072573661,-0.2712001097012311,0.013663893291167914
1783170069725078300,1.191078369140625,1.103370991501212,-0.30425606467202304,-0.02053774284971878
1783170069735148500,1.2011484375,0.9257429725319146,-0.2894514403805136,-0.002831424033641815
1783170069745218300,1.21121826171875,0.6957283482432365,-0.23935521102063356,-0.00012929806862957774
1783170069755287300,1.221287353515625,0.39032325966656206,-0.1774510549671948,0.0050786915037781
1783170069765357300,1.231357421875,0.12317688233554362,-0.19747041823230682,0.1105896783651784
1783170069775426300,1.24142626953125,-0.02919043864905834,-0.2087982332587242,0.05213380873524583
1783170069785496300,1.251496337890625,-0.06806932761967181,-0.08033939193226397,0.012071536932652815
1783170069795566300,1.26156640625,-0.1601432156831026,-0.034467502269148825,-0.00232152914959006
1783170069805635300,1.27163525390625,-0.22782032911479472,-0.029978228025883433,-0.02451810858962126
1783170069815705300,1.281705322265625,-0.2118184578627348,0.01149966446198523,0.007028747859317809
1783170069825774300,1.2917744140625,-0.1286421620041132,0.010046908370405436,-0.0316793967874255
1783170069835844400,1.30184423828125,-0.02304828263223171,0.03548880814090371,-0.09529160800091922
1783170069845913300,1.311913330078125,-0.03005143939256668,0.08730024392083287,-0.0454375168338418
1783170069855983400,1.3219833984375,-0.11126958692073821,0.09921418827213346,0.0222563285369426
1783170069866053400,1.332053466796875,-0.1678203261822462,0.1075868798200041,0.0960855987896677
1783170069876122000,1.3421220703125,-0.1084381628870964,0.1701041262704879,0.0993200415330939
1783170069886192400,1.3521923828125,0.08578326348662375,0.1646967142689973,0.09938163552721961
1783170069896262400,1.362262451171875,0.36597266226410863,0.15838891936168073,0.07442192064994015
1783170069906331400,1.372331298828125,0.6041776072710752,0.15169614372476933,0.10780662351790815
1783170069916401400,1.3824013671875,0.8184440428078175,0.14785963430181145,0.0833023151247762
1783170069926470400,1.392470458984375,1.0107219338983298,0.17587598767019808,0.042442650433373634
1783170069936540400,1.40254052734375,1.1284896506667137,0.25736031185388564,0.03753002707834821
1783170069946610200,1.412610107421875,1.2307108387351036,0.34586744734644886,0.0721754797302885
1783170069956679400,1.422679443359375,1.3443114989519118,0.4659834808066487,0.07685626252423972
1783170069966749400,1.43274951171875,1.5883242534548043,0.5507870856061577,-0.03634314168160781
1783170069976818400,1.442818359375,1.7074100670844314,0.6562574847288429,-0.06153787545773666
1783170069986888400,1.452888427734375,1.6993629542291164,0.688605437560752,0.06630110323759726
1783170069996958200,1.462958251953125,1.80040223903656,0.7215520138729363,0.1329118934788741
1783170070007027500,1.47302734375,1.9814719228923319,0.879287949218601,0.27980460071098057
1783170070017097200,1.48309716796875,2.281011918827891,1.061979242926836,0.19873209046488627
1783170070027166500,1.49316650390625,2.5686609859615563,1.206753916825354,0.21123673071833327
1783170070037236200,1.503236328125,2.9015210676968097,1.337935680309683,0.24612477822080253
1783170070047306200,1.51330615234375,3.2927608576864,1.3325294373519718,0.11604385211784392
1783170070057375500,1.52337548828125,3.7339082956612106,1.2259043152362108,-0.042144786298228425
1783170070067445200,1.5334453125,3.956970032072067,1.1051979146674276,-0.19213451883075758
1783170070077514500,1.543514404296875,3.9088521901130675,0.849252730308473,-0.3863824130862951
1783170070087584500,1.55358447265625,3.3882091906189915,0.6280724237300456,-0.39731790432687847
1783170070097654300,1.563654296875,2.6373545829594134,0.5786648342214524,-0.34819282155409453
1783170070107723500,1.5737236328125,1.8507874414056538,0.17376352556087077,-0.445592361619696
1783170070117793300,1.583793212890625,1.271695175552368,-0.41800095566511153,-0.44202780100591477
1783170070127862500,1.593862548828125,0.6975935575932264,-0.8140586673304439,-0.08279652102710679
1783170070137932300,1.603932373046875,-0.45153146934509275,-1.4443758012473582,-0.2537311798376031
1783170070148002300,1.614002197265625,-2.244986081200838,-2.3204615934237838,-0.6631938598632812
1783170070158071600,1.624071533203125,-4.869707392558455,-2.936293690392375,-0.5866179121177644
1783170070168141300,1.634141357421875,-8.28512081644535,-3.3986388146966693,-0.3054091254309751
1783170070178210600,1.64421044921875,-12.0155979686141,-3.5667131156399843,-0.1987647506254725
1783170070188280300,1.6542802734375,-16.179332097768782,-2.980925151540339,-0.7842316843435168
1783170070198350300,1.664350341796875,-20.69992151675224,-2.2623526649348435,-1.5412949373848734
1783170070208419300,1.67441943359375,-24.223791223704815,-1.3459753405109047,-2.254413980890065
1783170070218489300,1.6844892578125,-26.545088975691794,-0.1080067857325077,-2.626277600888908
1783170070228558300,1.694558349609375,-27.038229051232335,1.3671793104507028,-2.8998388136982918
1783170070238628400,1.70462841796875,-25.60347331124544,2.9834520396694537,-3.2589956584677098
1783170070248698400,1.714698486328125,-23.237518086886404,3.5617774128034707,-3.8428763276413083
1783170070258767400,1.724767333984375,-20.048008929359913,2.9206095067873594,-2.8180718001157046
1783170070268837400,1.73483740234375,-16.24625751605034,2.0265050967089833,-0.14337087151519953
1783170070278906400,1.74490625,-11.56962062626481,1.1439677903056145,1.9488474181413649
1783170070288976400,1.754976318359375,-6.992583928394318,-0.1389534203991294,2.7512027881965038
1783170070299046400,1.76504638671875,-3.218479231423139,-1.1245428127370773,3.2460537593081593
1783170070309115400,1.775115478515625,0.6010434008985758,-1.6821059683494268,4.148816546007991
1783170070319185400,1.785185302734375,4.144320988154411,-2.216908572229743,4.52357106514275
1783170070329254400,1.79525439453125,5.939397648254037,-2.29495057393983,3.79026117426306
1783170070339324400,1.805324462890625,6.631427726501226,-1.5981649717286228,2.4844644071444866
1783170070349394400,1.81539453125,7.002166580253839,-0.5766104589749127,1.3976217949874699
1783170070359463400,1.82546337890625,7.77440825933516,0.25876959412992,0.6799160082139074
1783170070369533200,1.835533203125,8.264297808647155,0.658196928358823,0.16335918205492198
1783170070379602400,1.8456025390625,8.736234352639316,0.9753899237543344,0.13147314764633775
1783170070389672400,1.85567236328125,9.774973005232214,0.8107483737386763,0.3701781145973131
1783170070399742500,1.865742431640625,11.561076085281371,0.4350082045674324,0.2733472777977586
1783170070409811500,1.8758115234375,13.431090205204486,0.2982343201644718,0.03207761145792901
1783170070419881200,1.885881103515625,14.39700561364889,0.21373057509437202,-0.0554572084037587
1783170070429950500,1.895950439453125,14.45415198071599,0.1911459644511342,-0.07529423737190663
1783170070440020200,1.906020263671875,13.797782998436688,0.24538097411617635,-0.029959011868759988
1783170070450089500,1.91608935546875,12.800622556900978,0.17607435978651045,-0.09687639297433197
1783170070460159200,1.9261591796875,11.680098770546913,0.4801381167568266,0.16969949099235235
1783170070470229500,1.9362294921875,10.74170732884407,0.9716150813907384,0.5358237636215984
1783170070480298500,1.946298583984375,10.018707527315616,1.4635809985853732,0.682636080827564
1783170070490368300,1.9563681640625,9.157973910310863,1.8467542403668165,0.8847796054374426
1783170070500437500,1.9664375,8.705130773845314,2.145328021618724,0.9704767250105738
1783170070510507300,1.97650732421875,8.75312528168559,2.444689153856039,0.935349005267024
1783170070520577500,1.98657763671875,9.195178144067526,2.553558401636779,0.7637659655503928
1783170070530646300,1.996646240234375,9.58172831493616,2.6150825453966853,0.612375344110839
1783170070540716300,2.00671630859375,9.42827729036808,2.68691444042027,0.6768889885429292
1783170070550785300,2.016785400390625,9.099241150835155,2.770251479798555,0.6581368687346577
1783170070560855300,2.026855224609375,9.015322512176633,2.8382988878473636,0.566403683867678
1783170070570925600,2.036925537109375,8.933812688225506,2.814206356859207,0.4593873339446261
1783170070580994300,2.046994384765625,8.854854302322863,2.769414152191579,0.29494411951266225
1783170070591064600,2.057064697265625,8.759992244845629,2.471122402751446,0.1702221631595865
1783170070601133300,2.06713330078125,8.901639434373378,2.239638144301623,0.16972853442374616
1783170070611203300,2.077203369140625,9.11461933723092,2.0401189037807286,0.27720267458427694
1783170070621273600,2.087273681640625,9.423151617917418,1.7338620206803081,0.31153500616643576
1783170070631342300,2.09734228515625,9.917741892266273,1.668213344336301,0.38102716966345906
1783170070641412600,2.10741259765625,10.584117889297008,1.8520108457207678,0.49230311325974757
1783170070651481300,2.1174814453125,11.065618964970112,1.9675559180036186,0.5770317165942862
1783170070661551400,2.12755126953125,10.867302378237246,2.0984587184160945,0.7741297578502446
1783170070671621400,2.137621337890625,9.51138344359994,2.1237753843717275,0.6492850884329527
1783170070681690400,2.1476904296875,7.686310873687267,1.7984921676315366,0.13012823584340513
1783170070691760400,2.157760498046875,5.892220886537432,1.6093799009650944,-0.35067667425908144
1783170070701829400,2.167829345703125,4.568504431846738,1.1796791551560162,-0.5152250660985708
1783170070711899400,2.1778994140625,3.5905350129932163,0.31366146026849745,-0.4624597636599093
1783170070721969400,2.187969482421875,2.8160429246366023,-0.8323866434425116,-0.0914293796148151
1783170070732038400,2.198038330078125,2.646101368516683,-2.0617060278192163,0.20522753516510128
1783170070742108400,2.2081083984375,2.638113876894116,-3.401347781394422,0.10606909566819667
1783170070752177400,2.218177490234375,0.3831102595478296,-4.168750496011972,-0.05483750560283661
1783170070762247400,2.228247314453125,-5.234482953992486,-3.8170074346303937,-0.3651544777490198
1783170070772317400,2.2383173828125,-12.012393619614839,-3.168986593979597,-1.5296299262933433
1783170070782386200,2.24838623046875,-17.562009275472164,-2.533449971848726,-2.429546091390401
1783170070792456400,2.25845654296875,-20.276500874125958,-2.6195102987110612,-2.954583964842558
1783170070802525400,2.268525390625,-20.493884564900398,-3.5677617479100823,-2.6583283974051475
1783170070812595500,2.278595458984375,-20.212631336283682,-4.664748299071192,-1.5368305053219198
1783170070822665500,2.28866552734375,-21.72355027849674,-4.786125146247446,-0.985484032267332
1783170070832734500,2.298734375,-24.851022958827016,-4.338273534458875,-1.446822171486169
1783170070842804500,2.308804443359375,-29.382599051249027,-3.697029640597105,-2.6143717667788264
1783170070852873200,2.318873291015625,-35.33900804005861,-2.3077887204639613,-3.3652076697379347
1783170070862943500,2.328943603515625,-39.05880948443413,-0.6354322849735617,-2.911478690348565
1783170070873013500,2.339013427734375,-37.57783209149837,-0.582356382215768,-2.1551026889190075
1783170070883082500,2.34908251953125,-31.967083629286286,-0.822413530960679,-1.6080759787596761
1783170070893152500,2.359152587890625,-25.447742651307582,-1.193205722335726,-1.2668430593460798
1783170070903221200,2.36922119140625,-19.18037269335985,-1.784698035556823,-0.164219379080832
1783170070913291500,2.37929150390625,-13.039388058400153,-1.9713713846385479,0.7746488863535225
1783170070923360300,2.3893603515625,-6.4163604959756135,-2.577470315361023,0.4066477504691109
1783170070933430500,2.399430419921875,0.29554829595088955,-2.704544205135107,-0.17977602731604128
1783170070943500500,2.40950048828125,5.46379556749165,-1.0812509296298027,0.27610022976771
1783170070953569500,2.419569580078125,9.1057053784132,-0.23747809203714132,0.5509635016189888
1783170070963639600,2.4296396484375,11.63394492213726,0.05408639497458934,0.7923295775379985
1783170070973708300,2.439708251953125,11.801193001389503,0.017373451866209505,0.39805367125552144
1783170070983778600,2.449778564453125,9.387245022755861,-0.039137832167744635,-0.516185508628562
1783170070993848300,2.459848388671875,7.97422472923696,0.3906733882784843,0.0177696846421808
1783170071003917600,2.46991748046875,9.231805454719066,1.2266793912619351,0.806477126160264
1783170071013987300,2.4799873046875,11.299003357952833,2.069600288200378,0.8832483772821724
1783170071024056300,2.490056396484375,12.998249407804012,2.5260189450651405,0.8746859353158623
1783170071034126600,2.500126708984375,14.265992046338319,2.502237379722297,0.9266570917021483
1783170071044196400,2.5101962890625,14.423095163673162,2.325337967288494,0.48016624687276777
1783170071054265600,2.520265625,13.19169108197689,2.006851278820634,0.26459523154348136
1783170071064335400,2.53033544921875,11.155347751212119,1.9604148140773177,0.4994490394916385
1783170071074404400,2.540404296875,9.360959073376655,1.440191209039092,0.5128832887453958
1783170071084474400,2.550474365234375,7.7534964042097325,1.0745679447345435,0.015010814388096332
1783170071094545200,2.560545166015625,6.523091854944825,0.9083911479756236,-0.150497581589967
1783170071104614100,2.5706142578125,5.95848871769309,0.7460457460731268,0.3261416236678138
1783170071114684200,2.58068408203125,6.079959380632639,0.8009874427028,0.7125671087108552
1783170071124753200,2.590753173828125,6.877447729173302,0.8496940443351865,0.7370385560140014
1783170071134823200,2.6008232421875,7.948786921119689,0.9177719936527311,0.8061307238753884
1783170071144893200,2.61089306640625,8.430081076043844,1.0347891843147574,0.8232734357256442
1783170071154962200,2.620962158203125,8.283650743892789,1.0111673395782708,0.6924728535786271
1783170071165032200,2.6310322265625,8.141435983610153,1.0803098493874073,0.7175918050050735
1783170071175101200,2.64110107421875,8.303911441633105,1.300847035756707,0.6187377552822232
1783170071185171200,2.651171142578125,8.446450611564517,1.518112945370376,0.4004107192430645
1783170071195241200,2.6612412109375,8.72755770970881,1.6980939572066067,0.34494985757749524
1783170071205310200,2.671310302734375,8.862885633087158,1.852795566357672,0.22268767893407493
1783170071215380200,2.681380126953125,9.171675687927006,1.8043154669575392,0.12371888025775551
1783170071225449000,2.691448974609375,9.677159112212061,1.777092528989166,0.3096964290950447
1783170071235519200,2.701519287109375,9.813741419565677,1.847211921006441,0.4743367004690692
1783170071245589200,2.71158935546875,9.545472175684571,1.8789679723598063,0.3487036571530625
1783170071255658200,2.721658203125,9.194513542678951,2.0425518300160763,0.03873268543295562
1783170071265728300,2.731728271484375,9.026119216001034,2.275653168273717,0.11136438906472175
1783170071275797200,2.74179736328125,9.18230229588151,2.4455614066459237,0.1254564446400851
1783170071285867300,2.7518671875,9.35162484332025,2.711580387382209,-0.21958123735133558
1783170071295936000,2.76193603515625,9.173137577173113,3.0556431233942507,-0.28145978403948246
1783170071306006300,2.77200634765625,8.637763457015156,3.1178800915986296,-0.0576580063836649
1783170071316076300,2.782076171875,8.174129461944103,3.1466835767567156,0.09907682562805711
1783170071326145300,2.792145263671875,7.739616931939125,2.947599220521748,0.03613287819810211
1783170071336215300,2.80221533203125,7.229021279206871,2.326156590195,-0.3396613592479378
1783170071346284000,2.812283935546875,6.438115231665969,1.6243877927437425,-0.6795956902183592
1783170071356354300,2.822354248046875,5.13300118611455,0.8763137557134032,-0.7888065179783851
1783170071366424000,2.832424072265625,3.1278456052958963,0.17383680999279022,-0.8751473422825335
1783170071376493300,2.842493408203125,0.6015694705992937,-0.27097411892563106,-0.8048835733585059
1783170071386563300,2.852563232421875,-2.3498206666380166,-0.6163561208426952,-0.27135469747474417
1783170071396632300,2.86263232421875,-6.25825141646862,-1.2456878969840706,1.1357177752893417
1783170071406702300,2.872702392578125,-11.19507185883522,-2.0767975062280892,1.9483514513179658
1783170071416772000,2.882772216796875,-15.135086079931257,-3.5889039046600457,1.4072903715647755
1783170071426841300,2.89284130859375,-16.219890902650356,-5.263690928298234,0.6445120288122445
1783170071436911000,2.9029111328125,-15.122449885720014,-6.484709225058555,0.9021032998777926
1783170071446980400,2.91298046875,-13.875171358543634,-7.208784546864032,1.9058640164613723
1783170071457050000,2.923050048828125,-14.760948815912007,-6.589768851423263,2.7704204066246745
1783170071467120000,2.9331201171875,-19.758558365762234,-4.479049201849103,2.0742894689299165
1783170071477189400,2.943189453125,-28.47604300974607,-1.6741526712574064,0.11485869745388626
1783170071487259100,2.953259033203125,-38.54786721022129,0.32833208291679616,-3.276240515518188
1783170071497328400,2.963328369140625,-43.71519970500469,1.7397436260648071,-6.301641060861945
1783170071507398100,2.973398193359375,-41.77326834986209,2.4050689449988303,-6.524055147019029
1783170071517467100,2.983467041015625,-34.91443472026587,1.4311341884888709,-4.488130041666329
1783170071527537200,2.993537109375,-26.273524781918525,-0.13963058900833128,-2.3781094802722333
1783170071537607200,3.003607177734375,-17.9244268756032,-1.152824319847673,-1.383996005216986
1783170071547676200,3.01367626953125,-10.055996516746282,-2.076728824906051,-1.0319903473764658
1783170071557746200,3.02374609375,-3.593277005177736,-1.912742377798259,-0.05636460557226091
1783170071567815400,3.0338154296875,0.6609568945914507,-1.3218052142418921,0.8167695337243378
1783170071577885200,3.04388525390625,2.676504105564952,-0.7070945225186646,1.0145745907384902
1783170071587955200,3.053955078125,3.2172838841587303,-0.12422551460564135,0.8054610809855163
1783170071598024200,3.064024169921875,3.6689784351110455,0.03563771509230137,0.7352597097732126
1783170071608094200,3.07409423828125,4.7130233774185175,0.24178601836413144,0.9809479232076554
1783170071618163200,3.0841630859375,5.854739589405059,0.14835837760418652,0.6520987576141953
1783170071628233200,3.094233154296875,7.156595509943366,0.40879356685876844,0.0061156333360821
1783170071638303200,3.10430322265625,8.860802397072314,0.8470024671636521,-0.6499716824576258
1783170071648372200,3.114372314453125,10.49709193227291,1.1210350968770681,-1.4226882855743168
1783170071658442200,3.124442138671875,11.393142946374416,1.2791671188682316,-1.9324021870359778
1783170071668511200,3.13451123046875,12.179209152668713,1.1546047735236584,-1.3592930872455238
1783170071678581200,3.144581298828125,12.966561307120323,0.9373271734721959,-0.4324851888958364
1783170071688651000,3.154651123046875,13.19497375690937,0.7261771163903177,0.13332747027613223
1783170071698720300,3.16472021484375,13.016371924471855,0.7418010942406952,-0.12185169814638792
1783170071708790300,3.174790283203125,12.441828992486,0.6488542227350175,-0.17960224165171385
1783170071718859300,3.184859375,11.714994727361201,0.35028833252862096,-0.061454731785506006
1783170071728929300,3.19492919921875,11.092027663946151,0.10669921026527882,-0.024378033398650585
1783170071738999000,3.2049990234375,10.749932720875739,0.11482333387956023,0.3579556522861123
1783170071749068300,3.215068359375,10.465646992695332,0.14701719212830067,0.7430570856511592
1783170071759138000,3.225137939453125,10.08628761011362,0.2652053262658417,1.2923682534858583
1783170071769207300,3.235207275390625,9.626295770937205,0.5071561798028648,1.8553277151837944
1783170071779277000,3.245277099609375,9.114657331153749,0.7734770660951733,1.898634795860201
1783170071789346300,3.25534619140625,8.75924347230494,1.1430287558898329,1.7117308528929949
1783170071799416300,3.265416259765625,8.514404203850031,1.4593831085041165,1.4198247128367423
1783170071809486000,3.275486083984375,8.12751033411026,1.5563967910572885,1.1331478517360984
1783170071819555300,3.285555419921875,7.608179001736641,1.6472827845104037,0.9761187494855373
1783170071829625000,3.295625,7.380913383895158,1.604220618505776,0.6318663361202925
1783170071839694300,3.3056943359375,7.561335417497157,1.6384705325014888,0.5016192962028085
1783170071849764000,3.31576416015625,7.779429302367568,1.8056679044798016,0.6194939804770052
1783170071859834000,3.325834228515625,8.014765998461842,1.7643267170488834,0.6131966338984668
1783170071869903000,3.335903076171875,8.615788941094278,1.8719377814620732,0.3985173432445153
1783170071879973000,3.34597314453125,9.038423986300826,1.9804792585931716,0.11994677784051745
1783170071890042400,3.35604248046875,9.384490171089768,1.9732357172057031,-0.0014285714983940123
1783170071900112100,3.366112060546875,9.570591419371961,2.08862910605818,0.12470062130410224
1783170071910182100,3.37618212890625,9.157378867027163,2.1921607922032473,0.1248132148331031
1783170071920251100,3.386251220703125,8.562153797018528,2.2881303725309667,0.04358955087959766
1783170071930321200,3.396321044921875,8.30748111681342,2.441723874309659,-0.11411372430548071
1783170071940390100,3.40639013671875,8.125533481079339,2.594700851625204,-0.03625054976101964
1783170071950460200,3.416460205078125,7.777381137666106,2.4838234788924454,-0.26877474571783094
1783170071960529200,3.426529052734375,6.635192047470808,2.010217686513811,-0.6481321920707821
1783170071970599200,3.43659912109375,4.66952618099749,1.174866201916337,-0.8416757922481745
1783170071980669200,3.446669189453125,2.476338091573119,0.5078248728446663,-0.8291365556053817
1783170071990738200,3.45673828125,-0.3354068436086178,-0.19108049799948928,-0.5013580149181187
1783170072000808200,3.46680810546875,-3.648857438102364,-0.6127225866459309,0.23575554256085304
1783170072010877200,3.476877197265625,-7.456172915279865,-0.7843420128501951,0.7764941488940268
1783170072020947200,3.486947265625,-11.17474218751192,-0.8987326544009149,0.21131390587408094
1783170072031017200,3.497017333984375,-14.255501047462223,-1.5602840077541769,-0.8168145419098436
1783170072041086200,3.507086181640625,-16.472093393349645,-2.5982249340981243,-1.5627243866436182
1783170072051156200,3.51715625,-18.594497050976752,-3.401765422284603,-1.2126966778125614
1783170072061225200,3.52722509765625,-21.665163555979728,-4.129166673642397,0.6566921498190611
1783170072071295200,3.537295166015625,-26.004817731142044,-4.822065351417661,2.5831273182094097
1783170072081365000,3.547364990234375,-30.714268510770797,-4.290202161990106,2.1381318265043197
1783170072091433000,3.557432861328125,-34.296557673466204,-3.042698886147141,-0.34024836535565556
1783170072101503200,3.567503173828125,-35.226871022653576,-1.9980248521558939,-3.4685876724526286
1783170072111572200,3.577572265625,-33.32665348764658,-1.3058255548216402,-6.383184787082672
1783170072121642200,3.587642333984375,-28.9409366494894,-2.0698510480910537,-7.132039160835743
1783170072131712300,3.597712158203125,-23.195820633363724,-3.3728310042232272,-4.691385546106099
1783170072141781000,3.607781005859375,-17.107319049835205,-4.76216179459691,-1.6273928197786212
1783170072151851300,3.617851318359375,-10.736169568461179,-5.744447323083877,0.1774614302307367
1783170072161920000,3.627919921875,-3.927605990421772,-5.678643017786741,1.311177291113138
1783170072171990300,3.637990234375,1.6539976258486508,-4.6337952346637845,2.3248079520650204
1783170072182059000,3.64805908203125,5.024930687496066,-3.3464299040317536,2.5473472720369696
1783170072192129000,3.65812890625,6.780943749707937,-1.6923013452798128,2.0342296996116636
1783170072202199300,3.66819921875,6.869981631076335,-0.5477162998586893,1.1442547905534506
1783170072212268000,3.67826806640625,5.834480645230412,0.16558189960569142,-0.285439647455886
1783170072222338300,3.68833837890625,3.265724966722727,0.23771043948829174,-1.4253246254272758
1783170072232407000,3.698406982421875,1.9906576843887567,-0.6525264815069735,-1.6337725839436052
1783170072242477000,3.70847705078125,3.692529406568408,-0.7819519028432667,-1.2222658126033843
1783170072252547300,3.71854736328125,6.282017491981387,-0.7559937241137027,-1.0832075435902924
1783170072262616000,3.728615966796875,8.38370394027233,0.06851327199488878,-1.2772297210648655
1783170072272686300,3.738686279296875,9.760325471198557,0.5853351057656109,-1.6721964226230979
1783170072282755000,3.748755126953125,10.817467210966347,0.8615694833070039,-1.1630247382793575
1783170072292825300,3.758825439453125,11.758574341368675,1.0196028672292827,-0.5244650054676457
1783170072302895000,3.76889501953125,11.70761338493824,1.0470656053029,-0.266387247793097
1783170072312964000,3.778964111328125,10.97899165187478,1.1705483387172222,0.1596194110047072
1783170072323034000,3.7890341796875,10.094009144276379,1.0465858589619397,0.7795322744809091
1783170072333103000,3.79910302734375,9.361651731815934,0.951058761704713,1.1730493617527187
1783170072343173400,3.80917333984375,8.912852317783235,1.0194200580082833,1.544430897323042
1783170072353242000,3.8192421875,8.657633109611272,0.9773355048641562,1.86650728084594
1783170072363312000,3.82931201171875,8.77293239043951,1.0554233915425837,1.83568807195127
1783170072373382100,3.839382080078125,9.256988995814323,1.3787654110871255,1.5497890633553266
1783170072383451100,3.849451171875,10.101210453957318,1.5624327102206645,1.4000452227421105
1783170072393521200,3.859521240234375,10.837800389420986,1.77674459233433,1.3432709038577972
1783170072403590100,3.869590087890625,11.231987923300265,1.9284065415285527,1.1691402985502033
1783170072413660200,3.87966015625,11.308506514835358,2.135932562894374,0.7865077395167202
1783170072423730200,3.889730224609375,11.000673906850814,2.252678681530058,0.5715087519217282
1783170072433799200,3.899799072265625,10.736039804601669,2.3042225524149833,0.4036160180903971
1783170072443869200,3.909869140625,10.722731410217284,2.4603502488464115,0.150876388307102
1783170072453938200,3.919938232421875,10.735165359854697,2.7529642449110745,0.057568848529178644
1783170072464008200,3.93000830078125,10.3253079631567,2.95236044357419,0.09281745470603928
1783170072474078200,3.940078125,10.076652351284027,2.800728158865869,-0.03146437493041158
1783170072484147000,3.95014697265625,10.027836590188741,2.530528239183128,-0.019824498280137777
1783170072494217200,3.96021728515625,10.395613087004422,2.360671584867686,-0.047124666203185915
1783170072504286000,3.970285888671875,10.906632518106699,2.321249528931081,-0.055257959504611785
1783170072514356200,3.980356201171875,10.969473297423123,2.4880200537994503,-0.025697518499381837
1783170072524425200,3.99042529296875,10.643741460132599,2.8028707238525152,-0.27337292369566857
1783170072534495200,4.0004951171875,9.733454999929666,3.1275767252266404,-0.5431339770371094
1783170072544565200,4.010565185546875,8.28640793364644,3.1933746007829904,-0.8145267962988465
1783170072554634000,4.020634033203125,6.676973672145604,3.005858225005865,-0.9306143779605627
1783170072564704300,4.030704345703125,4.537512496733665,2.613558112308383,-0.7981001968286932
1783170072574773000,4.04077294921875,3.0553654754966497,1.828457536175847,-0.6256633167617023
1783170072584843300,4.05084326171875,2.3746891504347323,0.7882130090646445,-0.694858944997564
1783170072594913300,4.060913330078125,1.4762649774610996,-0.16008388671129942,-0.8050403713554144
1783170072604982000,4.07098193359375,0.0521364299505949,-0.642427550688386,-0.8735638724833726
1783170072615052300,4.08105224609375,-2.629145557540655,-0.8904990790627896,-0.28944278215002267
1783170072625121000,4.09112109375,-6.930998117575049,-1.01926990894787,0.7829748892154544
1783170072635191300,4.10119140625,-13.231981006789207,-1.4925047491222618,1.4142511504881083
1783170072645261000,4.111260986328125,-19.821198069548604,-2.4661019442409278,1.0515692003324628
1783170072655330300,4.121330322265625,-24.547242256581782,-3.2356232584476468,0.32793555787988005
1783170072665400300,4.131400390625,-26.49183201727867,-3.6275358331322667,-0.7043989998243749
1783170072675469000,4.141468994140625,-26.94547945586443,-3.2379753745317457,-1.1311161997780204
1783170072685539300,4.151539306640625,-28.733768063259124,-2.1919025796584783,-0.8732330330938101
1783170072695608000,4.161608154296875,-32.17179020931721,-1.2566431523710488,-0.7901330173417925
1783170072705678300,4.17167822265625,-34.52109123599529,-0.6178823074966668,-1.265740651062131
1783170072715748000,4.181748046875,-34.38933766397238,-0.3060316960424185,-2.007500098118186
1783170072725817000,4.191817138671875,-31.80670485128164,-0.7472254573769866,-2.7794842953070997
1783170072735887000,4.20188720703125,-28.084326834416387,-1.4096573929570615,-2.8218106943830845
1783170072745956000,4.2119560546875,-23.72878535429239,-1.5279120164595543,-2.3523054691910743
1783170072756026400,4.2220263671875,-18.999212993133067,-1.498433554649353,-2.067159617049992
1783170072766096100,4.23209619140625,-14.248436515903473,-1.5332750047974288,-1.109001690864563
1783170072776165000,4.2421650390625,-9.769584297931194,-1.0193335487686097,0.45715003987923264
1783170072786235100,4.252235107421875,-5.474069708746671,-0.2014545924976468,1.5510636133357882
1783170072796304100,4.26230419921875,-2.0203525654286145,0.6310271818824112,2.4244509602084756
1783170072806374100,4.2723740234375,0.18619535630643366,1.092239795025438,2.4529195143237708
1783170072816444200,4.282444091796875,1.930398738259077,1.2802701116740702,1.766190465094149
1783170072826513200,4.29251318359375,3.9401872395753856,1.1458972970634698,1.9514681220337748
1783170072836583200,4.302583251953125,6.3767684902995825,0.6084617143310607,2.483086104528606
1783170072846652200,4.312652099609375,8.336406767046451,0.7123786004014313,1.9083977727226913
1783170072856722200,4.32272216796875,9.585670915082096,0.5167598744504154,1.2205549170322716
1783170072866791200,4.332791259765625,9.776166014409064,0.4586993151478469,0.6060962273087352
1783170072876861200,4.342861083984375,9.936591554164886,0.6304166487686336,-0.2550854987896979
1783170072886931200,4.35293115234375,10.672820255100726,1.230313509980589,-0.6951637000977993
1783170072897000200,4.363000244140625,11.546516814053058,1.7482140788987277,-0.6494746927209198
1783170072907070200,4.3730703125,12.626100687253475,1.9269621879391372,-0.7414663823936134
1783170072917139000,4.383138916015625,13.875492845582961,2.132276232343912,-0.6246349966272712
1783170072927209200,4.393209228515625,14.766681806606053,2.3452898913405833,-0.3617067484479397
1783170072937279200,4.403279296875,14.24966985709071,2.195565778341144,-0.18956059495583175
1783170072947348200,4.41334814453125,12.983935635769367,1.807017273262143,-0.08026501152180135
1783170072957418200,4.423418212890625,11.812364383745193,1.3295967449009418,0.11035393338054418
1783170072967487000,4.433487060546875,10.467761792892217,0.8361898351177572,0.40929326000921423
1783170072977557200,4.44355712890625,9.591320903667807,0.6299823490045965,0.9183698864806443
1783170072987626000,4.4536259765625,9.221085907784104,0.4460309722326696,1.5015283057942985
1783170072997696300,4.4636962890625,9.097581108668447,0.47913317749798295,2.196639106661081
1783170073007766300,4.473766357421875,9.186864489230514,0.5493943160735071,2.7124828891798853
1783170073017835300,4.483835205078125,9.340843337064982,0.733046271507442,2.8233476946920155
1783170073027905300,4.4939052734375,9.401395713183284,1.1094770532913505,2.5249241355657577
1783170073037974000,4.50397412109375,9.221339005762339,1.411974437727779,2.2719350245334207
1783170073048044300,4.514044189453125,8.488589963635802,1.6230786098413168,1.8117758659660814
1783170073058114000,4.524114013671875,7.802257804769277,1.755924653276056,1.0761109363928436
1783170073068183300,4.534183349609375,7.59721395560801,1.7611159383088348,0.5491517394892871
1783170073078253300,4.54425341796875,7.6836553907424205,1.6355359403543173,0.49475262530371544
1783170073088322800,4.55432275390625,7.965452809238434,1.625867509907484,0.6597193156205118
1783170073098393000,4.56439306640625,8.167426749435066,1.6578377885334192,0.8442755264177918
1783170073108463000,4.574463134765625,8.140363385942578,1.6447041661940514,0.8365816109143197
1783170073118531800,4.58453173828125,8.25671948234737,1.689170499908179,0.49976175870262085
1783170073128602000,4.59460205078125,8.280358132088184,1.8569715368680655,0.2699121887825429
1783170073138670800,4.6046708984375,8.445929218038916,2.0911868277169763,0.031638489388301966
1783170073148741000,4.6147412109375,8.767886212965845,2.3208603834830224,-0.2960903669383377
1783170073158809900,4.624809814453125,8.78311359271407,2.416002134684473,-0.3051535249684006
1783170073168879900,4.6348798828125,8.361037934955954,2.5488527081638575,-0.2614106101579964
1783170073178950000,4.644949951171875,7.351583244514465,2.4600959818243977,-0.4319609458260238
1783170073189019000,4.655018798828125,5.975411210921407,1.8529031183853744,-0.24138525554351506
1783170073199089200,4.665089111328125,4.540817383497953,1.13494014198035,-0.04777217032648623
1783170073209158000,4.675157958984375,2.408358195802569,0.45581674544885753,0.1717629263281822
1783170073219228000,4.685227783203125,-0.39813305663466453,-0.464241021053493,0.7768625438150017
1783170073229297000,4.695296875,-3.425877534756064,-1.470612943048775,1.3323019122064113
1783170073239367000,4.705366943359375,-5.627485662001371,-1.9951888980776071,1.9130757014058528
1783170073249437000,4.71543701171875,-7.364100196260213,-2.02435244871974,2.675367210489511
1783170073259506000,4.725505859375,-9.429164010074734,-1.881748104597628,2.9185838461786506
1783170073269576000,4.735575927734375,-11.192326944041252,-2.363558976872265,2.132775998559594
1783170073279645000,4.74564501953125,-13.13063075633645,-3.0959421082958576,1.07546021739915
1783170073289715000,4.75571484375,-16.02398020801544,-3.2600407836064695,-0.0823264010310173
1783170073299785000,4.765784912109375,-18.741978938007353,-3.33120807724148,-0.971487071096897
1783170073309854000,4.77585400390625,-20.952982085585592,-2.6986288436114787,-1.1846429150432347
1783170073319924000,4.785924072265625,-24.743078132414816,-2.012272719347477,-1.4939692687168717
1783170073329993000,4.795992919921875,-29.06447651991844,-1.265856824787706,-2.833402640238404
1783170073340063000,4.80606298828125,-31.901815915083883,-0.9851853415817021,-4.627124963119626
1783170073350133000,4.816133056640625,-31.77047150838375,-1.3193516836099326,-5.586679019838571
1783170073360201700,4.82620166015625,-29.0313177621603,-1.5683961486697195,-5.444636693513393
1783170073370272000,4.83627197265625,-25.398334185016154,-1.999107971217483,-4.654296463161707
1783170073380341000,4.846341064453125,-21.920426603293418,-2.423312896089256,-3.3427100067257878
1783170073390411000,4.856410888671875,-18.26010376832485,-2.579376148982346,-2.0403996204182504
1783170073400480000,4.86647998046875,-13.94953306430578,-2.4403765513539315,-1.1370235971909015
1783170073410549800,4.8765498046875,-9.11902020253837,-1.8578763767533004,-0.5127487391129136
1783170073420620000,4.8866201171875,-4.69543277567029,-1.3997843798488379,0.040425460825487966
1783170073430688800,4.896688720703125,-1.7595599410384892,-0.8198810898736119,0.6351431658338755
1783170073440759000,4.906759033203125,-0.3199263658821583,-0.31943419845104215,0.8691146379895508
1783170073450827800,4.916827880859375,1.1843804647147655,-0.49577773056775326,1.2649614833831786
1783170073460898000,4.92689794921875,3.395567736688256,-0.5829286291457713,1.8897398340038953
1783170073470968000,4.936968017578125,4.5019595373153685,-0.3356479588881135,2.2239365711703893
1783170073481036800,4.947036865234375,6.705374421721697,-0.14386764205619693,1.6716168691694735
1783170073491107000,4.957107177734375,8.742763462147115,0.5950482521370053,0.8119769656855612
1783170073501175800,4.96717578125,10.544753847157954,1.1538367117606103,0.13539908891841768
1783170073511246000,4.97724609375,12.285904271280765,1.3472012290440498,-0.17276903463080526
1783170073521314800,4.987314697265625,13.98286484054327,1.6848351010523734,-0.19078034600913524
1783170073531384800,4.997384765625,14.8049013548851,2.0356644085898994,-0.22938582486584783
1783170073541455000,5.007455078125,14.429605568480492,2.3244810581982134,-0.2609149355955422
1783170073551523800,5.01752392578125,13.489383404219149,2.363975448718667,0.06996390919461846
1783170073561594000,5.027593994140625,12.931055109453201,2.221850412546098,0.48833340591117735
1783170073571662800,5.037662841796875,12.59134501569271,2.3022309402063486,0.8082859291478991
1783170073581732900,5.04773291015625,12.003930911695956,2.360912846277654,0.9372956092901528
1783170073591803000,5.057802978515625,11.135310340833664,2.1393916173070666,0.8858709808707237
1783170073601872000,5.067871826171875,10.17358946146965,2.012410081991553,0.8165488767109811
1783170073611942100,5.077942138671875,9.55172129920721,2.0596014567553995,1.1182990960419177
1783170073622011000,5.088010986328125,9.547460134631395,2.0335452244788406,1.3168899696715175
1783170073632081200,5.0980810546875,9.785473356458544,2.1201173002555964,1.4848112720102071
1783170073642150000,5.10814990234375,9.7840079600811,2.3072335707992315,1.6650215625576674
1783170073652220000,5.118219970703125,9.704230659011007,2.4847592984378335,1.7198370024591683
1783170073662290000,5.1282900390625,9.36178909446001,2.8257255297392607,1.738676142963767
1783170073672359000,5.13835888671875,9.142399909082055,3.1079566634774207,1.696193092021346
1783170073682429000,5.148428955078125,9.178801009762287,3.223785521137714,1.7407357058420776
1783170073692498000,5.158497802734375,9.351461761713027,3.3877900884240866,1.8507856878399849
1783170073702568000,5.16856787109375,9.416890803956985,3.5188699989691377,1.588739702387899
1783170073712638000,5.178637939453125,9.378276703402399,3.4726433775842187,1.1374841273747385
1783170073722707000,5.18870703125,9.268826733124255,3.4889100372523068,0.8117121772695333
1783170073732777000,5.19877685546875,9.596581600674986,3.328834333847463,0.7772466477617621
1783170073742846000,5.208845947265625,9.920304436230658,3.204680715434253,0.7605941305812448
1783170073752916000,5.218916015625,10.402665928125382,2.950089283771813,0.8349632889974862
1783170073762985000,5.22898486328125,10.76912140547037,2.9643869814544916,0.8416910628825426
1783170073773054700,5.2390546875,10.472197144991158,2.9011668474316594,0.7959440417081117
1783170073783125000,5.249125,9.798637373936176,2.778378087630868,0.7495982509229332
1783170073793194000,5.259194091796875,9.074651483979821,2.62591022888124,0.6208184340137988
1783170073803264000,5.269263916015625,8.750125515347719,2.272277846621722,0.22588073935434222
1783170073813333000,5.2793330078125,8.285975971969961,2.024270323394239,-0.10096950750686227
1783170073823403000,5.289403076171875,6.525530480268597,1.210405425070226,0.24780571704506874
1783170073833473000,5.29947314453125,2.9180075075954197,-0.1032771268621087,1.2896911432310938
1783170073843541800,5.309541748046875,-1.4384277064979076,-1.690701654998213,2.1495203587420284
1783170073853612000,5.319612060546875,-6.170536892658472,-3.833992179439962,2.5377745570495724
1783170073863680800,5.3296806640625,-9.942768781495094,-5.547420776161551,2.5337585994064806
1783170073873749000,5.3397490234375,-12.931188380444048,-5.959245089018345,1.9930548086583613
1783170073883818000,5.34981787109375,-15.326816274011135,-6.465784159836173,0.22213877634704113
1783170073893888000,5.359887939453125,-16.828624858051537,-7.424109551542997,-1.5282117300584912
1783170073903957000,5.36995703125,-18.29495880860686,-7.530488443812727,-2.8184944094419477
1783170073914027000,5.380027099609375,-20.503325762462616,-7.054339835083484,-4.04397640761286
1783170073924097000,5.390096923828125,-23.49573881496191,-5.095031228682399,-5.190393052375316
1783170073934166000,5.400166015625,-27.08216171646118,-2.00144971203804,-6.173777482014894
1783170073944236000,5.410236083984375,-32.3787086201787,0.19658201802521943,-6.681639325869083
1783170073954305000,5.420304931640625,-36.81661858690977,1.3942603557303548,-6.734345664662122
1783170073964375000,5.430375,-36.8966092384696,1.774823561143875,-6.484646681216359
1783170073974444800,5.44044482421875,-32.77861044005155,1.5027680767223237,-6.174241007873416
1783170073984514000,5.45051416015625,-27.38772170333862,0.9268998874820769,-5.491615302309394
1783170073994583800,5.460583740234375,-21.20269685112238,0.0470408603772521,-4.958847565257549
1783170074004653000,5.470653076171875,-15.565174948275088,-1.0304504244580863,-4.557862918584049
1783170074014723000,5.48072314453125,-9.708884037774801,-1.6864524731211363,-3.5849510753810403
1783170074024792000,5.4907919921875,-4.286459760591388,-1.6037931868739426,-2.7493551145032047
1783170074034862000,5.500862060546875,0.02397299626171589,-1.336202134515345,-1.8115818046987056
1783170074044931800,5.510931884765625,2.87979380453527,-0.8257952823534608,-1.4175751803442835
1783170074055001000,5.5210009765625,2.8457927507340908,-0.0932068376161158,-0.7017110759146511
1783170074065070800,5.53107080078125,1.9637498037189245,0.3218007814519107,0.2665570331357419
1783170074075140000,5.54114013671875,2.15954710110724,0.4555928735651076,0.5716479411967098
1783170074085209900,5.5512099609375,3.382072295299172,0.40789983288943765,0.731939333178848
1783170074095279400,5.561279296875,5.268004699844122,0.5975513209991157,0.6736890965230763
1783170074105348600,5.5713486328125,7.263299980905652,0.8179568438127637,0.5525887282006442
1783170074115418400,5.58141845703125,8.477204061746598,0.969436714438349,0.7013570017799735
1783170074125487600,5.591487548828125,8.919773056957125,1.1848789157561956,0.7373482064850628
1783170074135557600,5.6015576171875,9.21272198406458,1.402096748444438,0.2786012528032064
1783170074145626600,5.611626708984375,9.96716906325817,1.667750695260614,-0.10517039326280354
1783170074155696600,5.621696533203125,11.215943966472148,1.7199249730035662,-0.27564444882422684
1783170074165766400,5.631766357421875,12.503999909716844,1.670748561902344,-0.23236659424230455
1783170074175835600,5.641835693359375,12.875420315992832,1.6281578128017484,0.19008038104623556
1783170074185905400,5.651905517578125,12.538469165551662,1.392012576803565,0.7683152994178235
1783170074195974700,5.661974609375,11.893078673404455,1.2976502855420111,1.6446720174901186
1783170074206044400,5.67204443359375,10.834406655329465,1.231847733810544,2.3386527914136646
1783170074216113700,5.68211376953125,9.613965281674265,1.3899465841844678,2.5964710761681196
1783170074226183400,5.692183349609375,8.882336183488368,1.6272664169199764,2.5198370415598155
1783170074236253400,5.70225341796875,8.784070455047488,1.9078714107610284,2.0544614635184404
1783170074246322700,5.71232275390625,9.219324158808588,2.16536543199718,1.5612626435279846
1783170074256392400,5.722392333984375,10.108380199456214,2.3622569543629885,1.0493574425671248
1783170074266462500,5.73246240234375,10.624206738579273,2.3373086833283305,0.7706991988796741
1783170074276532700,5.74253271484375,11.136088923990727,2.494103465366363,0.5780021325290203
1783170074286601500,5.7526015625,11.821987952136993,2.702880655837059,0.5083809723574668
1783170074296671700,5.762671630859375,11.841045703828334,2.8195298899695276,0.5944648992910981
1783170074306740500,5.772740478515625,11.164629958820342,2.9583199365004895,0.6462766273319721
1783170074316810500,5.782810546875,10.32540148665905,3.013096359565854,0.6776034204225987
1783170074326880500,5.792880615234375,9.618685880455374,3.226937263166904,0.6033288084220141
1783170074336949500,5.802949462890625,9.21779095789194,3.34969971948266,0.43723106824867425
1783170074347019500,5.81301953125,9.246032717514037,3.298343041732907,0.27179449539780615
1783170074357088500,5.823088623046875,9.490075867155193,3.3004403062731025,0.22340349905323237
1783170074367158500,5.833158447265625,9.769164611214398,3.1578228104084727,0.16343403738941997
1783170074377227500,5.8432275390625,10.329126060140132,3.103554629126191,0.20494374978765845
1783170074387297500,5.853297607421875,10.975957983267307,3.4355767987325785,0.13804185851216316
1783170074397367600,5.863367431640625,10.621086560732126,3.874891468322277,-0.03927490255087614
1783170074407436500,5.8734365234375,9.572548983180523,3.9936397205606102,-0.16658983453921972
1783170074417506600,5.883506591796875,8.695691914370656,3.8846629207521675,-0.23397939973380416
1783170074427575600,5.893575439453125,7.151746316346526,3.5173736229315398,-0.10996668762862681
1783170074437645300,5.903645263671875,5.486899379703402,2.830877505674958,0.23607372339824212
1783170074447715600,5.913715576171875,4.717835161614418,2.2151010844163594,0.5438429655566811
1783170074457784300,5.923784423828125,5.270280243560672,1.388228382089734,0.7189218845650553
1783170074467854600,5.9338544921875,5.819795701795816,0.8200983858861028,0.9605735359597951
1783170074477923600,5.943923583984375,4.111454491341114,0.2620458393216133,0.7945951113171875
1783170074487993600,5.95399365234375,-0.8303694584012031,-0.7593933034241199,0.6680396924592554
1783170074498062600,5.9640625,-7.710182747662067,-1.7147507852360606,0.7730282994143665
1783170074508132400,5.97413232421875,-14.518499657464027,-2.7421435756891963,0.685506740893051
1783170074518202600,5.98420263671875,-19.137471124744415,-3.7032355094999074,0.1899423608150333
1783170074528271400,5.994271240234375,-22.1821170533061,-4.042468633398413,0.027662005239073185
1783170074538341600,6.004341552734375,-24.528144757401943,-4.270240447196364,0.5046729116197676
1783170074548410400,6.014410400390625,-27.467015604805944,-3.8068759167164563,0.9089500239674001
1783170074558480400,6.02448046875,-32.23927676861286,-3.1591929297178982,0.9485878415465354
1783170074568549600,6.034549560546875,-38.22626092842817,-2.191299499198794,-0.2301876427680254
1783170074578619400,6.044619384765625,-41.7909396156311,-1.7510957718148827,-2.2691506545118987
1783170074588689700,6.054689697265625,-40.542536468338966,-2.4533114362508055,-3.695223467957973
1783170074598758400,6.06475830078125,-34.945201614451406,-3.247504542638361,-3.9358030331417915
1783170074608828700,6.07482861328125,-28.01463078237772,-3.9635938341259953,-3.5966157942116257
1783170074618897400,6.0848974609375,-22.02581356191635,-4.3803550188630815,-2.907675206412375
1783170074628967400,6.094967529296875,-17.660040610635278,-4.1580876477003095,-2.3595991333305832
1783170074639037700,6.10503759765625,-13.677260430002212,-3.632686640024185,-1.3469536840237677
1783170074649106400,6.1151064453125,-9.5842084413141,-3.1466140186518428,-0.039531544193066655
1783170074659176700,6.1251767578125,-5.627033242058753,-2.7281585972175,0.6941455360312014
1783170074669245400,6.135245361328125,-1.7125649656295776,-2.1418261509776113,0.9789556534118949
1783170074679315500,6.1453154296875,1.7049352014034986,-1.2029799512445927,0.37225649177394804
1783170074689384400,6.155384521484375,4.551104968756437,-0.5326246753193438,-0.2473653528664261
1783170074699454500,6.165454345703125,7.4102739184141155,-0.112136286752671,-0.5851205131668598
1783170074709524700,6.175524658203125,9.990512529444693,0.1452406839750707,-0.3635360097017139
1783170074719593500,6.185593505859375,11.544195093107223,0.5335192860715091,-0.3042470776479691
1783170074729663500,6.19566357421875,11.610263602298497,1.2218069629199801,-0.5813201710358261
1783170074739732500,6.205732421875,10.346446612775326,1.8752574274040759,-1.1043166017882524
1783170074749802500,6.215802490234375,8.431158349886536,2.291465069911629,-1.6059858746126294
1783170074759871500,6.22587158203125,7.812247868385911,2.5042531034588813,-1.5487493450440466
1783170074769941500,6.23594140625,8.759162808284163,2.51785142070055,-1.2187502787631004
1783170074780011500,6.246011474609375,10.584585506808757,2.636780582463741,-1.0322040631923823
1783170074790080500,6.25608056640625,12.333009721326828,2.5999577492401,-0.4805334727499634
1783170074800150500,6.266150634765625,13.231692252975702,2.3822354741610585,0.2650944132372737
1783170074810219500,6.276219482421875,13.659441864717007,2.244724799916148,0.966314125438407
1783170074820289500,6.28628955078125,13.34993752412796,2.1526351297616957,1.5058248339444398
1783170074830359600,6.296359619140625,12.629357643222809,2.1371350705519316,1.9469313553869723
1783170074840428500,6.306428466796875,12.115206343835592,2.1065338883221147,2.2364082224696875
1783170074850498600,6.31649853515625,11.511604490625858,2.0491097272269427,2.4821456088081
1783170074860567600,6.326567626953125,10.753319440704583,2.1566313597910103,2.5375863410010933
1783170074870637300,6.33663720703125,9.985747506999969,2.2359074333406985,2.4949101055741307
1783170074880706600,6.34670654296875,9.698654320183396,2.1760464004874227,2.4122552032411098
1783170074890776600,6.356776611328125,10.10111693045497,2.2104132188610732,2.125843568947911
1783170074900846600,6.3668466796875,10.78566688207984,2.26814118520841,1.7604520675726234
1783170074910915600,6.37691552734375,11.251945838701724,2.3128571097694337,1.5787848562151192
1783170074920985300,6.3869853515625,11.113103185200691,2.585664727732539,1.4333794831976294
1783170074931054600,6.3970546875,10.494007994782924,2.85032571798861,1.1038941385924816
1783170074941124400,6.407124267578125,9.921220966553687,3.0132331376880406,0.6750454065028577
1783170074951193600,6.417193603515625,9.43138986943066,3.1694612257540222,0.3798322973230853
1783170074961263400,6.427263427734375,8.933563097378611,3.099911888709664,-0.042507527796551585
1783170074971333400,6.43733349609375,8.7910578297168,3.060650722423196,-0.3130774133028462
1783170074981402600,6.447402587890625,8.981669248899816,3.116632137364149,-0.4964831023581326
1783170074991472400,6.457472412109375,9.274735080385208,2.9446780723780392,-0.6783942054741084
1783170075001541600,6.467541748046875,9.500832823491097,2.8500112452119586,-0.7134301552809774
1783170075011611400,6.477611328125,9.354070482906698,2.8305954738631844,-0.7740358690217137
1783170075021681700,6.487681640625,8.542972711208462,2.7341356258004903,-1.0414586521413176
1783170075031750400,6.49775048828125,7.074260341084003,2.7616584234982726,-1.1951114098265767
1783170075041820400,6.5078203125,5.923316282024979,2.666270296320319,-1.1285212148487567
1783170075051889400,6.517889404296875,5.216789476391673,2.345275570554286,-0.685480072081834
1783170075061959400,6.52795947265625,4.806891747683286,2.12054955419302,-0.33051030373871326
1783170075072028700,6.538028564453125,4.263568714347482,1.6313194917030631,-0.15262690350254995
1783170075082098400,6.548098388671875,3.1356144857317205,0.9546605855889618,0.35167240729816257
1783170075092168400,6.55816845703125,1.0595055462896823,0.30514132307395336,0.5124660131813958
1783170075102237200,6.5682373046875,-1.893756814560294,-0.3786607327930629,0.27876983256945387
1783170075112307000,6.578306884765625,-5.910699961557984,-0.844343184826523,0.29108928898172454
1783170075122376200,6.588376220703125,-9.405083461785315,-1.2981515130624175,0.3176786234879866
1783170075132446000,6.598446044921875,-11.109661520314216,-1.792945054898411,0.363410227897577
1783170075142515200,6.60851513671875,-11.72961946504116,-2.2631657348833976,0.3213308623852208
1783170075152585200,6.618585205078125,-13.271134621047972,-2.5591923158705234,0.63841495404616
1783170075162655200,6.6286552734375,-17.134290058869123,-2.811943964885175,0.8954440611843019
1783170075172724200,6.63872412109375,-22.456545404338836,-2.3225869150146843,0.6551243159804493
1783170075182794000,6.6487939453125,-28.2360079267025,-1.0523276905495673,-0.5077081511298194
1783170075192863200,6.65886328125,-33.526810149288174,0.5632324334204196,-2.950356994797289
1783170075202933000,6.66893310546875,-36.051949388909335,1.196421177250892,-4.953851072144508
1783170075213003300,6.679003173828125,-34.905353588187694,0.6333804670102894,-5.181278602549433
1783170075223072000,6.689072021484375,-31.281942141509056,-0.4517948695216328,-3.79200451079905
1783170075233142000,6.69914208984375,-26.878483894956112,-1.7482725310876965,-2.4537220628783105
1783170075243211300,6.709211181640625,-22.87425877523422,-2.4549691403299567,-1.890728114388883
1783170075253281000,6.719281005859375,-19.267312141144274,-2.8489158511906862,-1.5501349541835485
1783170075263350300,6.729350341796875,-15.803442437124252,-2.8560265599787233,-1.124794960867241
1783170075273420000,6.739419921875,-12.845505654722452,-2.5911378984466196,-0.3193310303375125
1783170075283490300,6.749490234375,-10.717851821482181,-1.9492147901490329,-0.010796265432983636
1783170075293559000,6.75955908203125,-9.39308264286816,-1.2568864596076308,-0.05481207890063524
1783170075303629000,6.769629150390625,-8.231383381038905,-0.5170190368432551,0.35819311430379747
1783170075313698000,6.779697998046875,-6.506019139590859,0.23777656352706253,1.1157675317376852
1783170075323768000,6.78976806640625,-4.003787897348404,0.5412636165879666,1.4327935000032186
1783170075333837300,6.79983740234375,-1.29823071577847,0.41546763779520984,1.7064400530084967
1783170075343907000,6.809906982421875,1.8398107048392294,0.48383258736059065,2.0542057351917027
1783170075353977000,6.81997705078125,5.570072168430686,0.5330049068085849,2.4167332254379987
1783170075364046000,6.830046142578125,9.234784762790799,0.847720844566077,2.5094611934959885
1783170075374116000,6.8401162109375,11.702586496686935,1.228293986851722,2.214402434627712
1783170075384185000,6.85018505859375,13.123932135480642,1.266293170378357,1.7833407757289708
1783170075394255000,6.860255126953125,13.80583654103279,1.3388637549400328,1.3605572619624435
1783170075404324000,6.870323974609375,13.88157421132326,1.266528148178011,0.7331259126149118
1783170075414394000,6.88039404296875,14.301616317427158,1.3212307753548025,0.13512728623971343
1783170075424464100,6.890464111328125,14.853814146614074,1.6569294415168463,-0.27882892407923937
1783170075434533000,6.900533203125,15.109488697338103,1.7616349937468767,-0.5092749255225062
1783170075444603100,6.91060302734375,15.221849002104996,1.6173925270289182,-0.42228725468218326
1783170075454672100,6.920672119140625,14.97898015694022,1.505654738074541,-0.1881641721613705
1783170075464742100,6.9307421875,14.324602056217193,1.4521118023268877,0.07543576473444699
1783170075474812200,6.940812255859375,13.182483693170546,1.3902154642537234,0.6348083078563213
1783170075484881200,6.950881103515625,11.991264322346447,1.3246291856214403,0.9582961656123399
1783170075494951200,6.960951171875,11.277718577861785,1.4095318668812513,1.2348038071371614
1783170075505020200,6.971020263671875,10.893879419517516,1.4960712094321846,1.387080527228862
1783170075515090200,6.981090087890625,10.623410619765519,1.650618650934845,1.4854228280372916
1783170075525159200,6.9911591796875,10.1263869807899,1.8791523890160022,1.5020052756562827
1783170075535229200,7.001229248046875,9.94432477876544,2.131499548882991,1.4128396762549877
1783170075545299000,7.011298828125,9.739680742576718,2.4433080747611817,1.6062915795609354
1783170075555368200,7.0213681640625,9.32542306509316,2.6521459093779325,1.6022034334644675
1783170075565438200,7.031438232421875,8.838694025638699,2.8945088508471843,1.3636159188807009
1783170075575507200,7.041507080078125,8.528307641518115,2.979952799376845,1.1491598790559916
1783170075585577200,7.0515771484375,8.576322023102641,2.8668156650185583,1.3691338055193423
1783170075595646200,7.061646240234375,8.669270355913042,2.7388129699617623,1.6092897384636102
1783170075605716200,7.07171630859375,8.62641613357067,2.714888781277835,1.2808385592117906
1783170075615786000,7.081785888671875,8.742518547475337,2.525790397006273,0.8426403264313935
1783170075625855200,7.091855224609375,8.997800299489498,2.305146097000688,0.6862700534157454
1783170075635925000,7.101925048828125,9.031464668682217,2.189424060715735,0.40866884450055657
1783170075645994200,7.111994140625,8.695299700182677,2.241461121945083,0.25566198350340125
1783170075656064300,7.122064208984375,8.181914708992839,2.489274437774718,0.4212819500971585
1783170075666133200,7.13213330078125,7.305360422521829,2.407168986018002,0.4043768463950604
1783170075676203300,7.142203369140625,6.800228880414366,2.023055248516053,0.08137816039547324
1783170075686273000,7.15227294921875,6.833980927890539,1.4728953548975288,-0.44732101204320784
1783170075696342300,7.16234228515625,6.986008057135344,0.8560331842288375,-0.9051425214432179
1783170075706412000,7.172412109375,6.196079914715885,0.14482187404111027,-1.215750220164284
1783170075716481300,7.182481201171875,4.064658253374695,-0.5153880015753209,-1.890916622698307
1783170075726551000,7.192551025390625,0.8385299685031176,-1.1682152195945381,-2.2745945991314946
1783170075736620300,7.202620361328125,-4.533380511495471,-1.8302526028990744,-1.7636831584483383
1783170075746690300,7.212690185546875,-9.877877499389648,-2.0638782572917638,-0.3296276026200503
1783170075756760000,7.222760009765625,-12.942109587430954,-2.9145909771502017,0.9478440374419093
1783170075766829300,7.232829345703125,-13.545453081965446,-4.707938621500134,0.6739932671014219
1783170075776899000,7.242899169921875,-12.30519816981554,-5.855256891277432,-0.11467508451528846
1783170075786968300,7.25296826171875,-12.553296147805451,-6.261043093013763,-0.7377138249270617
1783170075797038000,7.2630380859375,-15.877695421814918,-5.9848424716115,-0.8459358608454466
1783170075807107300,7.273107421875,-22.520962054669855,-4.389243258717656,-1.0516767523601651
1783170075817177000,7.283177001953125,-32.71575797029733,-2.4839409677922726,-2.860350268396735
1783170075827247000,7.2932470703125,-42.2102335337162,-0.32808044624328614,-5.220605235287547
1783170075837316400,7.30331640625,-45.741755801248544,0.7627475092228502,-6.65387395158708
1783170075847386000,7.31338623046875,-42.849003730940815,0.9687313426479697,-6.736618285769223
1783170075857455400,7.323455322265625,-35.232075605559345,0.255480635587126,-6.095264501792192
1783170075867525000,7.333525146484375,-25.806807433879374,-1.2168100314155221,-4.750013676163554
1783170075877595100,7.34359521484375,-16.59739618179798,-2.8783713705167173,-2.8540999758303163
1783170075887664000,7.3536640625,-8.717327407595516,-3.609133915001154,-0.530361991084367
1783170075897734100,7.363734130859375,-3.4480782606482503,-3.4220129682824014,1.0482190131217242
1783170075907803100,7.37380322265625,-1.4722884750455616,-2.4586609805852175,2.1678249539785086
1783170075917873200,7.383873046875,-2.036396522256732,-0.9018003714084625,2.4202380186885595
1783170075927942400,7.3939423828125,-2.9256799419194457,0.28822452893406153,1.6759084288835524
1783170075938012200,7.40401220703125,-3.024198768338561,0.9344317442916333,0.9655315236933529
1783170075948082200,7.414082275390625,-1.5528554651886224,1.0230288961552083,1.2907821533381938
1783170075958151200,7.424151123046875,0.8775280999392271,0.7833831046901643,2.3245533927820623
1783170075968221200,7.43422119140625,3.4702585282742975,0.7323917531214654,2.926432806113362
1783170075978290200,7.444290283203125,6.25032413060069,0.9011866234242916,2.797148839074373
1783170075988360200,7.454360107421875,9.093798667520284,1.1458962741501628,2.5192805767208335
1783170075998429200,7.46442919921875,12.01780161613822,1.2294121772266924,2.557701200529933
1783170076008499200,7.474499267578125,14.481197808551787,1.0697184588767588,2.685375394284725
1783170076018569200,7.4845693359375,16.072219630527496,0.8041732331320643,2.5161966392308472
1783170076028638200,7.49463818359375,16.328803697311876,0.9270821121811866,1.847547436571121
1783170076038708200,7.504708251953125,15.413416699099539,1.090970651872456,1.335911042614281
1783170076048777200,7.514777099609375,13.940328013586997,1.3897219816483557,1.2364556659974157
1783170076058847200,7.52484716796875,12.774089939284323,1.599708255647868,1.1188805491916836
1783170076068916000,7.534916015625,12.050032153135538,1.636232105924934,1.0930832601122558
1783170076078986200,7.544986328125,12.206823135781287,1.7005116858728229,1.5152040721863507
1783170076089056300,7.55505615234375,12.329558704090118,1.6816704995416103,2.3602587662830947
1783170076099125500,7.56512548828125,12.115308050644398,1.6672776709213852,2.7222628171771763
1783170076109195500,7.575195556640625,11.945593289017676,1.6707894784346222,2.887538719573617
1783170076119264300,7.58526416015625,11.911574115037917,1.5819612942941486,3.0451603078246117
1783170076129334500,7.59533447265625,11.567171479547023,1.6970853646859525,3.3215912308514115
1783170076139403300,7.6054033203125,11.136804378783703,1.8059677642092107,3.347974795386195
1783170076149473500,7.6154736328125,10.841033964514732,2.054423177334666,3.2319799335092303
1783170076159543600,7.62554345703125,10.299331810379028,2.3162398840755225,2.9717148401245472
1783170076169612300,7.6356123046875,9.50434989170134,2.605910812425613,2.9094246804282067
1783170076179682600,7.6456826171875,8.57611977852881,2.760775210922956,2.8059198822900653
1783170076189751300,7.655751220703125,8.221065400642155,2.937673162052035,2.385168020481616
1783170076199821600,7.665821533203125,8.513699270451069,3.1288188342422245,2.031806271857023
1783170076209890300,7.675890380859375,8.896276446035504,3.2553409353524443,1.79904088755548
1783170076219960600,7.685960693359375,9.169459765443206,3.18830270434618,1.3998643132172524
1783170076230030600,7.696030517578125,9.248612797135115,3.093726478073001,0.8874100270062685
1783170076240099300,7.706099365234375,8.962636047127843,3.1550124291628596,0.40503260689005255
1783170076250169600,7.716169677734375,8.44032599120438,3.1188708562016485,0.10383381089679897
1783170076260238300,7.72623828125,7.825635757747292,3.026697014895081,0.1446255477514118
1783170076270308600,7.73630859375,7.307098790621757,2.9332091683804986,0.059041679294407366
1783170076280377300,7.74637744140625,6.867468186950683,2.746351256512105,-0.1507196999080479
1783170076290447400,7.756447265625,6.693308136352896,2.516870008447766,-0.33578992464207114
1783170076300517600,7.766517578125,6.8450108559489244,2.267026355834305,-0.49323038417249915
1783170076310586400,7.77658642578125,6.5588441363275045,1.9627869500361381,-0.894952989731729
1783170076320656600,7.78665673828125,5.612972568002343,1.7640303644508122,-1.38389064514637
1783170076330725400,7.796725341796875,4.007345297569036,1.280448829241842,-1.414498841638863
1783170076340795400,7.80679541015625,1.5894471200048923,0.45484673137292264,-1.2345783278182147
1783170076350864400,7.816864501953125,-0.8733429232090711,-1.0231612903632223,-1.1104882761605084
1783170076360934400,7.826934326171875,-3.318589710947871,-2.624186766089499,-0.9106330086182802
1783170076371004400,7.83700439453125,-6.263952258458733,-3.5158731552407145,0.11505582746118306
1783170076381073400,7.847073486328125,-8.699548589798807,-3.755081432071328,1.0057167460221796
1783170076391143700,7.857143798828125,-10.610365260231495,-4.276473204106092,0.6535287173520773
1783170076401212400,7.86721240234375,-13.124917639386654,-4.340793408325315,0.35874033639039843
1783170076411282400,7.877282470703125,-16.08358741223812,-4.216745003852248,0.41551812587343157
1783170076421351400,7.887351318359375,-19.876012194275855,-3.8154847551077604,0.10935231858994811
1783170076431421400,7.89742138671875,-24.299641122198103,-3.244561767184734,-1.2333406027168035
1783170076441491500,7.907491455078125,-28.869054485583305,-2.436515638142079,-3.080949998608231
1783170076451560400,7.917560546875,-33.31784824990034,-1.1220323642861096,-4.864887425056099
1783170076461630500,7.92763037109375,-36.503045973968504,-0.24939313236698507,-6.221479728910326
1783170076471699500,7.937699462890625,-36.36518064106703,0.45808264455422754,-6.235414730760454
1783170076481769500,7.94776953125,-33.221886122226714,0.8334822566594928,-4.912366384589672
1783170076491838500,7.95783837890625,-28.67045499025583,0.6135059921085834,-3.0222426658347246
1783170076501908500,7.967908447265625,-23.931862287294862,-0.15751754335463047,-1.5362721407867967
1783170076511978500,7.977978515625,-19.310330614137648,-0.6118143857598305,-0.4741792083524167
1783170076522047500,7.988047607421875,-14.71426071449518,-0.7088695693671703,0.39167956964634354
1783170076532117200,7.9981171875,-11.089686069256066,-0.7468690451547503,0.920750717202574
1783170076542186500,8.0081865234375,-8.699124811428785,-0.6057638535492121,1.0300516343988477
1783170076552256300,8.01825634765625,-6.819604027491808,-0.5094501359589397,0.591440363838151
1783170076562325500,8.028325439453125,-4.95153519641757,-0.23234189819246528,0.37607889960631724
1783170076572395500,8.0383955078125,-2.973489156320691,0.10834376260191202,0.6776426564544439
1783170076582465500,8.048465576171875,-0.904858005413413,0.38831674214974043,1.1935351004205643
1783170076592534500,8.058534423828124,1.4295020572423933,0.690684508857131,1.5380476260267197
1783170076602604300,8.068604248046874,4.276352208074927,1.0524952291361986,1.6185960575997829
1783170076612673500,8.078673583984376,7.4292048288553945,1.3364737910635769,1.709059587857127
1783170076622743300,8.088743408203126,10.465208601278066,1.7484347359120844,1.6797364627391098
1783170076632812500,8.0988125,12.31047523343563,2.1742773449882864,1.546716524042189
1783170076642882300,8.10888232421875,13.24477034573555,2.3807234621629116,1.336739310131967
1783170076652952300,8.118952392578125,13.671922576105594,2.6059660497441888,1.2974740521922707
1783170076663021600,8.129021484375,13.764038549745083,2.739186187188327,1.4934879149407148
1783170076673091300,8.13909130859375,13.715324495458603,2.6695889193490148,1.2199163999330251
1783170076683160600,8.14916064453125,13.734849864661692,2.580045426546037,0.8798298010103404
1783170076693230300,8.159230224609376,13.89563780798912,2.512398123730719,0.6960539269357919
1783170076703299600,8.169299560546875,14.372841478729248,2.4194638194456695,0.6171782508805393
1783170076713369300,8.179369384765625,14.812570282077788,2.2880501469016075,0.8364734743647276
1783170076723439400,8.189439453125,14.802787723731994,2.0895535274267196,1.239885055924207
1783170076733508400,8.19950830078125,14.267024311995506,2.0437252577096223,1.4596315303072331
1783170076743578400,8.209578369140624,13.23827747658491,2.1953902756437658,1.611899628701061
1783170076753647600,8.219647705078126,11.54298630183935,2.229161904603243,1.8784040548667311
1783170076763717400,8.22971728515625,9.808284323203564,2.293148054562509,2.366523087374866
1783170076773786600,8.23978662109375,8.691476342502236,2.5487746744915842,2.569332309351861
1783170076783856400,8.2498564453125,8.281905361530184,2.960353780415654,2.209301019835472
1783170076793926400,8.259926513671875,8.117687443754077,3.271796395590901,2.0498931326895953
1783170076803995400,8.269995361328125,8.391255963087081,3.3593615740582345,1.9860946142569182
1783170076814065400,8.2800654296875,8.969721036952734,3.435503733496368,1.846898617273569
1783170076824134400,8.290134521484376,9.423010748142003,3.4340585031241178,1.664916787008941
1783170076834204400,8.300204345703126,9.548728547132015,3.3422610939145088,1.5657628775566816
1783170076844273700,8.310273681640625,9.296963278806208,3.263586493389308,1.3472490137085318
1783170076854343400,8.320343505859375,8.734490723842383,3.086666330428421,1.066960903796926
1783170076864413400,8.330413330078125,8.047344910505414,2.931515223944187,1.0377016376953572
1783170076874482400,8.340482421875,7.490547478568553,3.0097739371448755,0.9299854324072598
1783170076884552400,8.350552490234374,7.512844650572538,3.0903301136329766,0.6696776689246297
1783170076894621400,8.360621337890626,8.004185567736625,3.0963641331002116,0.43892778916396197
1783170076904691500,8.37069140625,8.200650389122963,2.9235224716246124,0.14372830665074288
1783170076914760400,8.380760498046875,8.117510333621501,2.5950267225787043,-0.20595855285339057
1783170076924830500,8.39083056640625,7.631593195071816,2.037254308129847,-0.484908107637614
1783170076934900500,8.400900390625,6.702018097031116,1.423665313912928,-0.7488781930200755
1783170076944969500,8.410969482421875,5.66236408315897,0.742686498773098,-0.8004414992578327
1783170076955039500,8.42103955078125,3.948016325765848,-0.04444675223082304,-0.5383170417420565
1783170076965108500,8.4311083984375,1.0209551586210728,-0.9416168334901333,-0.19210311904549598
1783170076975178500,8.441178466796876,-2.9698177743315695,-1.958840112106502,0.20210852636173365
1783170076985247500,8.45124755859375,-7.03344142396152,-2.2939367207221686,0.6798036338806152
1783170076995317500,8.4613173828125,-10.65076975133419,-2.5718127279907463,0.6788869574271142
1783170077005387500,8.471387451171875,-12.671328652989864,-3.717212596926093,-0.24173545722067355
1783170077015456500,8.48145654296875,-12.645849343818425,-4.451991099053621,-1.5549935001306234
1783170077025526500,8.491526611328124,-12.234992414689064,-4.444035463874042,-2.104447291306406
1783170077035595500,8.501595458984376,-12.822619284653664,-4.021368562224507,-1.7782523665487766
1783170077045665500,8.51166552734375,-15.303594388377666,-3.4637440318137407,-1.5516570491842925
1783170077055734300,8.521734375,-19.086477435088156,-3.07391264731735,-1.8614136109687387
1783170077065804500,8.531804443359375,-22.59329780756235,-2.368231498727947,-2.4612530429050326
1783170077075874600,8.54187451171875,-26.34879951087236,-1.5552483516745268,-3.5148020188778637
1783170077085943600,8.551943603515625,-28.74085714473724,-0.9108284581251442,-4.456709944269061
1783170077096014000,8.56201416015625,-28.8886476593256,-0.0003526128299534321,-4.39180930981338
1783170077106082800,8.572082763671874,-26.595535552859303,0.33717838332578537,-3.3928719217330214
1783170077116153000,8.582153076171876,-23.35507946742773,0.20252908986136317,-1.6932868491858244
1783170077126222000,8.59222216796875,-19.96552120028734,-0.12863427095860241,-1.1345558919031173
1783170077136292000,8.6022919921875,-16.004501600563525,-0.6093094172015786,-0.7712265837546437
1783170077146362000,8.612362060546875,-11.975848142027854,-1.0513539501465856,-0.10714870759844779
1783170077156430800,8.622430908203125,-8.222607953909039,-1.568246218805015,0.5946821953035891
1783170077166501000,8.632501220703125,-4.716641567915678,-1.751189879839122,1.2470970331296325
1783170077176569900,8.64256982421875,-2.18597275121808,-1.5985054557293652,1.8584503772489724
1783170077186640100,8.65264013671875,-0.435408017539978,-1.474855695185065,1.8105919168785214
1783170077196708900,8.662708984375,1.2595377047687768,-1.1795068673290312,1.677233540007472
1783170077206779000,8.67277880859375,3.1021658051162957,-0.9016611090682446,1.5799457166880368
1783170077216849200,8.68284912109375,5.202626511004567,-0.7116090773336589,0.9001612989645451
1783170077226918000,8.69291796875,7.0789645732522,-0.40984804434776306,0.12447583610489964
1783170077236988200,8.70298828125,8.133634954470395,0.029562632962316274,-0.42594424281977117
1783170077247057000,8.713056884765624,8.544436354020238,0.5120344533637166,-0.6947810574557631
1783170077257127200,8.723127197265624,9.078263829258084,0.9392087494350969,-0.7381746473718435
1783170077267196000,8.73319580078125,9.657255557346343,1.3109184940464793,-0.969232277907431
1783170077277266000,8.743265869140625,10.342843619847297,1.4260256133034825,-1.0111576219018548
1783170077287336200,8.753336181640625,11.079715294861792,1.4060599529869853,-0.7593053328797221
1783170077297405000,8.763405029296875,11.863803479081392,1.520256533270329,-0.3308899507060647
1783170077307475200,8.77347509765625,12.43281800303459,1.6355639974050222,-0.002849909538403153
1783170077317544000,8.7835439453125,12.878409560936689,1.664574695573002,0.3187758806727826
1783170077327614000,8.793614013671874,13.145067277967929,1.7607658096969128,0.812403155208379
1783170077337683000,8.803682861328125,12.867802826726436,1.686045499755442,1.2007356063839048
1783170077347753000,8.8137529296875,12.320233241862057,1.698962556734681,1.36592098095268
1783170077357822000,8.823822021484375,11.519995886874199,1.754036209180951,1.3521927537210285
1783170077367892000,8.83389208984375,10.721784484755993,1.6741987023562193,1.4150725498735903
1783170077377962200,8.843962158203125,10.37560490272045,1.6417589065223932,1.4934966827690601
1783170077388031000,8.854031005859374,10.251977354007959,1.7342860913112759,1.5928151351332664
1783170077398101000,8.86410107421875,9.839726924693585,1.9291008074030278,1.6514887117676436
1783170077408170000,8.874169921875,9.277139218917489,2.242897876749933,1.6366969469577073
1783170077418240000,8.884239990234375,8.784875926211475,2.54520149217993,1.4865613305479288
1783170077428309000,8.89430908203125,8.28439133312702,2.86720378755331,1.3067353631429373
1783170077438379000,8.90437890625,7.881495007613301,3.173414055033028,1.2222471079029142
1783170077448449000,8.914448974609375,7.38273826123476,3.3067402832001447,1.0006674267433584
1783170077458518000,8.92451806640625,6.947901906102896,3.272705034868419,0.726252446648851
1783170077468588000,8.934588134765624,6.581106237018108,3.147304923525452,0.582009103148058
1783170077478657000,8.944656982421876,6.66650079344809,2.9705455040842295,0.6158682642605156
1783170077488727000,8.95472705078125,7.046918160650134,2.6987331807687878,0.4951438896436244
1783170077498796000,8.964796142578125,7.313660048833489,2.377998567243665,0.13200250528268515
1783170077508866000,8.974865966796875,7.132196397224068,1.8965527288891373,-0.2206122243668884
1783170077518935800,8.984935791015625,6.631299716207384,1.10068920507133,-0.8057856367647648
1783170077529005000,8.995005126953124,6.336483826184272,0.21995734065473077,-0.9713779846992343
1783170077539075000,9.005074951171874,5.454525050321221,-0.5465379037290812,-0.3103161684285849
1783170077549144000,9.01514404296875,3.596975859695673,-1.3671907086275517,0.5069984319578856
1783170077559214000,9.025214111328125,0.36884324926435946,-1.5884278599597512,1.2655658790171145
1783170077569283000,9.035282958984375,-3.9748715994656085,-1.4523730836115776,1.777501840442419
1783170077579353000,9.04535302734375,-8.763073259726166,-1.0737214109078048,1.2218144886393099
1783170077589422000,9.055422119140625,-11.660069543474911,-0.5938851997070014,0.003712590782344341
1783170077599492000,9.0654921875,-11.676081936120987,-0.7781529489517212,-1.1546651984740048
1783170077609561900,9.075561767578124,-10.36057333780527,-1.1422915276564658,-1.348329356291145
1783170077619631000,9.085631103515626,-9.085751554664968,-1.4929925326392053,-1.0303357851024717
1783170077629701000,9.095701171875,-8.199997478172182,-2.0637131298579274,-0.5472567925881594
1783170077639770000,9.10577001953125,-8.332519696480036,-2.039585965947807,0.6557778114531189
1783170077649840000,9.115840087890625,-10.236336717283725,-1.6744373334176836,1.253239481407404
1783170077659909000,9.1259091796875,-13.25075468084216,-0.8735963134482503,0.955408554412052
1783170077669979100,9.135979248046874,-16.217001026427745,0.21146789085939524,0.006640680123493075
1783170077680049000,9.146048828125,-17.831616489958762,0.8108277225852012,-0.9494223926745354
1783170077690118100,9.1561181640625,-17.442474549031257,0.7680208465158939,-1.8721140148118138
1783170077700188000,9.16618798828125,-15.561644436061382,0.35542028858959673,-2.232820427110791
1783170077710257200,9.176257080078125,-13.465467106580734,-0.5159080799266695,-2.124777108760178
1783170077720327200,9.1863271484375,-11.646188317638636,-1.231721184821427,-2.165141267852485
1783170077730396200,9.196396240234375,-9.800648713758587,-1.5222966607958077,-1.8498954610019922
1783170077740466200,9.206466064453124,-8.038388866111635,-1.6527008640363812,-1.2553485825158655
1783170077750536000,9.216535888671874,-6.138142105010152,-1.6565284595005214,-0.744534099401161
1783170077760605200,9.226605224609376,-4.380854200556874,-1.5339242624863982,-0.0986169530313462
1783170077770675000,9.236675048828126,-3.155921945223212,-1.35281015496701,0.4360311909396201
1783170077780744200,9.246744140625,-2.3567811533004046,-1.2348974767699836,0.7751336011305451
1783170077790814000,9.25681396484375,-1.616126452615857,-1.0985201174039394,0.9523913985479623
1783170077800883000,9.266883056640625,-1.2489859156161547,-1.0358888891849667,0.9487976849049329
1783170077810953200,9.276953125,0.4386883543848991,-1.406236624728143,1.079705307622999
1783170077821023000,9.28702294921875,1.7467513128697871,-0.9828162743628025,0.8066190919142215
1783170077831092200,9.29709228515625,1.5620055708497762,-0.8828133468657732,0.45389670063909143
1783170077841162000,9.307161865234375,0.5222568644315004,-0.9445509141806513,0.14632997704911976
1783170077851231000,9.31723095703125,-0.3218284001111984,-0.6713543699651956,-0.2267792225640267
1783170077861301000,9.327301025390625,-0.756047500127554,0.22547625020667908,-0.6083159126522019
1783170077871370000,9.337369873046875,-0.1976098997682333,-0.28388058144561945,-0.9799895265042782
1783170077881440000,9.34743994140625,1.4069284063845873,-0.14855031997971235,-0.6839210060715675
