time,seconds_elapsed,z,y,x
1783170068607353000,0.07335302734375,0.20484228432178497,-0.01887950487434864,0.0016756881959736347
1783170068617423000,0.083423095703125,0.2025437206029892,-0.007709674537181854,-0.009888822212815285
1783170068627491800,0.093491943359375,0.2022743672132492,-0.009964578785002232,-0.03867044299840927
1783170068637562000,0.10356201171875,0.19928763806819916,-0.015560944564640522,-0.06660620123147964
1783170068647630800,0.113630859375,0.1942276954650879,-0.024743519723415375,-0.05483536049723625
1783170068657701000,0.123701171875,0.1868872195482254,-0.0013934578746557236,-0.017501570284366608
1783170068667771100,0.133771240234375,0.17834867537021637,0.03732902929186821,0.02943355217576027
1783170068677840000,0.14383984375,0.16628722846508026,0.05888491868972778,0.05111967399716377
1783170068687910100,0.15391015625,0.15622223913669586,0.047761186957359314,0.05058196932077408
1783170068697979000,0.163978759765625,0.14734645187854767,0.03858153522014618,0.0321560874581337
1783170068708049200,0.174049072265625,0.13917726278305054,0.024204302579164505,0.015981638804078102
1783170068718119200,0.184119140625,0.1252657175064087,0.01755572110414505,0.012532578781247139
1783170068728188200,0.194188232421875,0.1194663792848587,-0.0014706887304782867,0.020419446751475334
1783170068738258200,0.204258056640625,0.10907924920320511,-0.016701573505997658,0.018855905160307884
1783170068748327000,0.214326904296875,0.09785189479589462,-0.01334865391254425,0.010211816988885403
1783170068758397200,0.224397216796875,0.09336020797491074,-0.00816481001675129,0.004368308931589127
1783170068768467000,0.234467041015625,0.0883948877453804,0.0058480845764279366,0.009928778745234013
1783170068778536200,0.2445361328125,0.10616722702980042,0.023119749501347542,0.01319887489080429
1783170068788606000,0.25460595703125,0.13256962597370148,0.014072582125663757,-0.00020337500609457493
1783170068798675000,0.264675048828125,0.14549846947193146,-0.025699865072965622,-0.02168150246143341
1783170068808745200,0.2747451171875,0.14068228006362915,-0.06373406201601028,-0.05238734558224678
1783170068818815000,0.28481494140625,0.12876835465431213,-0.06909287720918655,-0.07538879662752151
1783170068828884200,0.29488427734375,0.09523309022188187,-0.08054780215024948,-0.06434759497642517
1783170068838954000,0.3049541015625,0.04322848096489906,-0.08065032958984375,-0.04663917049765587
1783170068849024000,0.31502392578125,-0.03319418802857399,-0.06357945501804352,-0.03743308037519455
1783170068859093000,0.325093017578125,-0.10133009403944016,-0.03382023423910141,-0.02185704931616783
1783170068869163000,0.3351630859375,-0.1380729228258133,-0.03193245083093643,-0.002102069789543748
1783170068879232000,0.34523193359375,-0.16165947914123535,-0.04199041426181793,0.01626415364444256
1783170068889302000,0.355302001953125,-0.15038631856441498,-0.037540536373853683,0.06514754146337509
1783170068899372000,0.3653720703125,-0.1317519098520279,-0.08128669112920761,0.13527575135231018
1783170068909441000,0.37544091796875,-0.14660902321338654,-0.10663439333438873,0.17596979439258575
1783170068919511000,0.385510986328125,-0.165182963013649,-0.10006038844585419,0.15540753304958344
1783170068929580000,0.395580078125,-0.14732223749160767,-0.06172085180878639,0.09236259758472443
1783170068939650000,0.405650146484375,-0.07244318723678589,-0.001996000297367573,0.0279987845569849
1783170068949720000,0.415719970703125,0.025264861062169075,0.06902570277452469,-0.022450152784585953
1783170068959789000,0.4257890625,0.09697366505861282,0.13835470378398895,0.008534661494195461
1783170068969859000,0.435859130859375,0.11348157376050949,0.1742866188287735,0.0518614798784256
1783170068979928000,0.445927978515625,0.12248652428388596,0.15989038348197937,0.024749169126152992
1783170068989998000,0.455998046875,0.13630123436450958,0.13984315097332,-0.025350457057356834
1783170069000067800,0.46606787109375,0.17437484860420227,0.052710920572280884,-0.05542846769094467
1783170069010137000,0.47613720703125,0.2108595222234726,-0.000691588968038559,-0.04191882163286209
1783170069020206800,0.486206787109375,0.18429236114025116,-0.033473506569862366,-0.008986971341073513
1783170069030276000,0.496276123046875,0.1560855358839035,-0.025759242475032806,0.025524964556097984
1783170069040346000,0.50634619140625,0.11734053492546082,-0.003925582394003868,0.06560953706502914
1783170069050415900,0.516415771484375,0.10893404483795166,0.04283019155263901,0.07365529984235764
1783170069060485000,0.526485107421875,0.11646732687950134,0.10742596536874771,0.021591832861304283
1783170069070555000,0.536554931640625,0.12194803357124329,0.17546720802783966,-0.11969616264104843
1783170069080624000,0.5466240234375,0.13228747248649597,0.2618846595287323,-0.32855963706970215
1783170069090693000,0.556693115234375,0.1418909728527069,0.3531069755554199,-0.5517086982727051
1783170069100763400,0.566763427734375,0.15904518961906433,0.356130987405777,-0.7292922735214233
1783170069110832000,0.57683203125,0.16420862078666687,0.2533095180988312,-0.8129333257675171
1783170069120902400,0.58690234375,0.16586405038833618,0.13685747981071472,-0.8702560067176819
1783170069130972400,0.596972412109375,0.19325631856918335,0.0476052351295948,-0.9483540058135986
1783170069141041200,0.607041259765625,0.22197610139846802,0.0033797193318605423,-1.0415459871292114
1783170069151111400,0.617111328125,0.23155087232589722,0.046798840165138245,-1.1322636604309082
1783170069161180200,0.62718017578125,0.2271619737148285,0.14836274087429047,-1.1789071559906006
1783170069171250400,0.63725048828125,0.23194082081317902,0.2557973265647888,-1.1962027549743652
1783170069181320400,0.647320556640625,0.2275197058916092,0.34320226311683655,-1.1653332710266113
1783170069191389400,0.657389404296875,0.20673146843910217,0.3849633038043976,-1.127345085144043
1783170069201459500,0.66745947265625,0.19472168385982513,0.38499605655670166,-1.1120119094848633
1783170069211528200,0.677528076171875,0.20470194518566132,0.3300286829471588,-1.113803505897522
1783170069221598500,0.687598388671875,0.20242972671985626,0.23961862921714783,-1.0881340503692627
1783170069231668200,0.697668212890625,0.19394128024578094,0.1705179661512375,-1.0035840272903442
1783170069241737500,0.707737548828125,0.18559972941875458,0.14502805471420288,-0.8456125259399414
1783170069251807200,0.71780712890625,0.17099346220493317,0.1788448840379715,-0.6348224878311157
1783170069261876200,0.727876220703125,0.16097864508628845,0.2524344325065613,-0.4016997814178467
1783170069271946500,0.737946533203125,0.14141783118247986,0.3258095681667328,-0.2041216790676117
1783170069282016300,0.748016357421875,0.1286194771528244,0.3737618923187256,-0.06637979298830032
1783170069292085500,0.75808544921875,0.1130722314119339,0.366691917181015,-0.0016634471248835325
1783170069302155300,0.7681552734375,0.09626821428537369,0.31206274032592773,-0.005377491936087608
1783170069312224500,0.778224609375,0.10065728425979614,0.273685097694397,-0.04165147989988327
1783170069322294300,0.788294189453125,0.11500053852796555,0.25490424036979675,-0.06615815311670303
1783170069332364300,0.7983642578125,0.12671877443790436,0.2656828463077545,-0.06982725113630295
1783170069342433300,0.808433349609375,0.13755783438682556,0.28664112091064453,-0.05009642615914345
1783170069352503300,0.81850341796875,0.13217011094093323,0.26623985171318054,-0.036344971507787704
1783170069362573300,0.8285732421875,0.1292600780725479,0.23005174100399017,-0.04054983705282211
1783170069372642300,0.838642333984375,0.12502403557300568,0.18948127329349518,-0.059056058526039124
1783170069382712300,0.84871240234375,0.13262124359607697,0.14725233614444733,-0.08613348007202148
1783170069392781300,0.85878125,0.14876939356327057,0.08426658809185028,-0.10716328024864197
1783170069402851300,0.868851318359375,0.16033391654491425,0.004844997078180313,-0.11060009151697159
1783170069412921300,0.87892138671875,0.1616973876953125,-0.059660498052835464,-0.12090885639190674
1783170069422990300,0.888990234375,0.1595604568719864,-0.04697319492697716,-0.1337362378835678
1783170069433060400,0.899060302734375,0.15452131628990173,0.028378421440720558,-0.13471616804599762
1783170069443129300,0.90912939453125,0.14487721025943756,0.10357064008712769,-0.10042476654052734
1783170069453199400,0.919199462890625,0.139500230550766,0.13872447609901428,-0.04250158742070198
1783170069463269000,0.92926904296875,0.13258107006549835,0.10305703431367874,0.0013545521069318056
1783170069473338400,0.93933837890625,0.12342774868011475,0.026855621486902237,0.003987888339906931
1783170069483408100,0.949408203125,0.10409266501665115,-0.06942963600158691,-0.019237540662288666
1783170069493477400,0.959477294921875,0.08974035829305649,-0.14314141869544983,-0.05333718657493591
1783170069503547400,0.96954736328125,0.07593213021755219,-0.18569499254226685,-0.08633960783481598
1783170069513617200,0.9796171875,0.07162150740623474,-0.18848839402198792,-0.11589440703392029
1783170069523686400,0.989686279296875,0.056240420788526535,-0.1631702482700348,-0.12836413085460663
1783170069533756200,0.999756103515625,0.03872522711753845,-0.12792105972766876,-0.12430410832166672
1783170069543825400,1.009825439453125,0.01776721328496933,-0.09633968770503998,-0.11131240427494049
1783170069553895200,1.019895263671875,-0.005466936156153679,-0.0908205509185791,-0.07566498965024948
1783170069563965400,1.02996533203125,-0.03132915869355202,-0.10716649889945984,-0.027673490345478058
1783170069574034200,1.0400341796875,-0.05135434865951538,-0.12437359243631363,0.005982615053653717
1783170069584104200,1.050104248046875,-0.05534110218286514,-0.14036880433559418,0.005238527897745371
1783170069594173400,1.06017333984375,-0.05673115700483322,-0.16121244430541992,-0.011854239739477634
1783170069604243200,1.0702431640625,-0.05426453799009323,-0.1505347639322281,-0.0320119708776474
1783170069614313500,1.0803134765625,-0.04377259686589241,-0.10887958109378815,-0.026396363973617554
1783170069624382200,1.09038232421875,-0.03955281898379326,-0.06432250142097473,-0.012972699478268623
1783170069634452200,1.1004521484375,-0.04067332670092583,-0.030666396021842957,-0.0003926639910787344
1783170069644521200,1.110521240234375,-0.04243101179599762,-0.013049584813416004,-0.002811879152432084
1783170069654591200,1.12059130859375,-0.03764033317565918,-0.008995859883725643,-0.0016657777596265078
1783170069664661500,1.13066162109375,-0.038457658141851425,-0.000486261211335659,0.010196474380791187
1783170069674730200,1.140730224609375,-0.045206207782030106,0.00933681707829237,0.024431848898530006
1783170069684800500,1.150800537109375,-0.04609090834856033,0.002003003843128681,0.03936099633574486
1783170069694869200,1.160869140625,-0.04987349733710289,-0.015556552447378635,0.02873307839035988
1783170069704939300,1.170939208984375,-0.0536048524081707,-0.031291842460632324,0.0016585851553827524
1783170069715009300,1.18100927734375,-0.05383918061852455,-0.024286141619086266,-0.026564454659819603
1783170069725078300,1.191078369140625,-0.04810246452689171,0.014332091435790062,-0.051479388028383255
1783170069735148500,1.2011484375,-0.04030837491154671,0.05543731898069382,-0.05908791720867157
1783170069745218300,1.21121826171875,-0.04543682187795639,0.051038578152656555,-0.05215170979499817
1783170069755287300,1.221287353515625,-0.04537440463900566,0.02465917356312275,-0.029520660638809204
1783170069765357300,1.231357421875,-0.04296264424920082,-0.0003814641386270523,-0.0021859745029360056
1783170069775426300,1.24142626953125,-0.05712450295686722,-0.019418004900217056,0.013977917842566967
1783170069785496300,1.251496337890625,-0.06556352972984314,-0.036684878170490265,0.02148164063692093
1783170069795566300,1.26156640625,-0.0739240050315857,-0.04981652647256851,0.03729743883013725
1783170069805635300,1.27163525390625,-0.07249069213867188,-0.047251634299755096,0.057778213173151016
1783170069815705300,1.281705322265625,-0.06875809282064438,-0.026808014139533043,0.059266794472932816
1783170069825774300,1.2917744140625,-0.06466054916381836,-0.0016190391033887863,0.05105893313884735
1783170069835844400,1.30184423828125,-0.06122849881649017,0.023467939347028732,0.030330851674079895
1783170069845913300,1.311913330078125,-0.06104154884815216,0.009045325219631195,0.029254138469696045
1783170069855983400,1.3219833984375,-0.06011122092604637,-0.0279487743973732,0.03460268676280975
1783170069866053400,1.332053466796875,-0.06504818797111511,-0.07180251181125641,0.04084034264087677
1783170069876122000,1.3421220703125,-0.07092473655939102,-0.10507165640592575,0.048835236579179764
1783170069886192400,1.3521923828125,-0.07182861119508743,-0.11098946630954742,0.03874078765511513
1783170069896262400,1.362262451171875,-0.07364147901535034,-0.0885428786277771,0.025849469006061554
1783170069906331400,1.372331298828125,-0.06504985690116882,-0.05581609532237053,0.018088752403855324
1783170069916401400,1.3824013671875,-0.06191399693489075,-0.022602615877985954,-0.011108731850981712
1783170069926470400,1.392470458984375,-0.05826893076300621,0.008385393768548965,-0.02053472399711609
1783170069936540400,1.40254052734375,-0.037908051162958145,0.03981375694274902,-0.013084819540381432
1783170069946610200,1.412610107421875,-0.011830642819404602,0.06359418481588364,0.0056611718609929085
1783170069956679400,1.422679443359375,0.006591874174773693,0.0613347627222538,0.011082344688475132
1783170069966749400,1.43274951171875,0.010462779551744461,0.05387311801314354,-0.005364805459976196
1783170069976818400,1.442818359375,0.014650413766503334,0.03012290596961975,0.01047178078442812
1783170069986888400,1.452888427734375,0.015245364047586918,0.007882049307227135,0.05306478217244148
1783170069996958200,1.462958251953125,0.016059711575508118,0.012232733890414238,0.10678820312023163
1783170070007027500,1.47302734375,0.020566845312714577,0.025378361344337463,0.1570071578025818
1783170070017097200,1.48309716796875,0.011532621458172798,0.025055188685655594,0.21058882772922516
1783170070027166500,1.49316650390625,0.018660837784409523,-0.017227284610271454,0.23946893215179443
1783170070037236200,1.503236328125,0.03133849799633026,-0.1011393815279007,0.2593349814414978
1783170070047306200,1.51330615234375,0.035457074642181396,-0.16842041909694672,0.22907988727092743
1783170070057375500,1.52337548828125,0.04787459596991539,-0.21017585694789886,0.17738713324069977
1783170070067445200,1.5334453125,0.04595685377717018,-0.23976543545722961,0.1094198077917099
1783170070077514500,1.543514404296875,0.028735226020216942,-0.29049253463745117,0.06013181060552597
1783170070087584500,1.55358447265625,0.014308083802461624,-0.33878761529922485,0.052945271134376526
1783170070097654300,1.563654296875,-0.030535954982042313,-0.3734247088432312,0.1077633649110794
1783170070107723500,1.5737236328125,-0.09880661964416504,-0.3849785625934601,0.17056283354759216
1783170070117793300,1.583793212890625,-0.15373891592025757,-0.40740156173706055,0.1368667185306549
1783170070127862500,1.593862548828125,-0.16735300421714783,-0.43119293451309204,0.04410162195563316
1783170070137932300,1.603932373046875,-0.21391509473323822,-0.40075016021728516,-0.060882434248924255
1783170070148002300,1.614002197265625,-0.2639889121055603,-0.25534236431121826,-0.19606101512908936
1783170070158071600,1.624071533203125,-0.2662011981010437,-0.014841491356492043,-0.3094620704650879
1783170070168141300,1.634141357421875,-0.22535738348960876,0.24975527822971344,-0.406773179769516
1783170070178210600,1.64421044921875,-0.20493991672992706,0.5102524161338806,-0.521260678768158
1783170070188280300,1.6542802734375,-0.19982558488845825,0.6492661833763123,-0.5492520928382874
1783170070198350300,1.664350341796875,-0.2575591802597046,0.6657615303993225,-0.46444880962371826
1783170070208419300,1.67441943359375,-0.37498939037323,0.6615380644798279,-0.3131865859031677
1783170070218489300,1.6844892578125,-0.46756094694137573,0.5185694694519043,-0.11598663777112961
1783170070228558300,1.694558349609375,-0.5699036121368408,0.3498384356498718,-0.01954185962677002
1783170070238628400,1.70462841796875,-0.7809913158416748,0.43863171339035034,0.0649557113647461
1783170070248698400,1.714698486328125,-1.0075706243515015,0.665045440196991,0.16313740611076355
1783170070258767400,1.724767333984375,-1.0669896602630615,0.8103357553482056,0.33658307790756226
1783170070268837400,1.73483740234375,-0.9796267747879028,0.7355949282646179,0.46100249886512756
1783170070278906400,1.74490625,-0.9163814187049866,0.4073565900325775,0.45947378873825073
1783170070288976400,1.754976318359375,-0.9053921699523926,-0.07315780967473984,0.40725240111351013
1783170070299046400,1.76504638671875,-0.8116400241851807,-0.5328695774078369,0.30752965807914734
1783170070309115400,1.775115478515625,-0.579391360282898,-0.8919119238853455,0.07188650965690613
1783170070319185400,1.785185302734375,-0.3007086217403412,-1.1175140142440796,-0.13414230942726135
1783170070329254400,1.79525439453125,-0.07144906371831894,-1.2708736658096313,-0.18379215896129608
1783170070339324400,1.805324462890625,0.11068437248468399,-1.3302654027938843,-0.044002335518598557
1783170070349394400,1.81539453125,0.27858734130859375,-1.2293869256973267,0.16309572756290436
1783170070359463400,1.82546337890625,0.419098436832428,-1.0217756032943726,0.4267306625843048
1783170070369533200,1.835533203125,0.5148787498474121,-0.8050199151039124,0.7784740924835205
1783170070379602400,1.8456025390625,0.6305582523345947,-0.5688008666038513,1.179506540298462
1783170070389672400,1.85567236328125,0.7325349450111389,-0.2481115162372589,1.4649840593338013
1783170070399742500,1.865742431640625,0.7489073872566223,0.05141115188598633,1.461729884147644
1783170070409811500,1.8758115234375,0.7362645864486694,0.22433951497077942,1.241176724433899
1783170070419881200,1.885881103515625,0.6984572410583496,0.3059464991092682,0.9275348782539368
1783170070429950500,1.895950439453125,0.6232501268386841,0.3207733929157257,0.6131119132041931
1783170070440020200,1.906020263671875,0.5010550022125244,0.27703428268432617,0.3496031165122986
1783170070450089500,1.91608935546875,0.35618680715560913,0.23223379254341125,0.17856690287590027
1783170070460159200,1.9261591796875,0.24878652393817902,0.1948523372411728,0.10601137578487396
1783170070470229500,1.9362294921875,0.1911272257566452,0.20286925137043,0.09798860549926758
1783170070480298500,1.946298583984375,0.20148195326328278,0.243015319108963,0.1509184092283249
1783170070490368300,1.9563681640625,0.2533073425292969,0.25034859776496887,0.23727354407310486
1783170070500437500,1.9664375,0.32875993847846985,0.2748853862285614,0.31816330552101135
1783170070510507300,1.97650732421875,0.4010080397129059,0.2832450568675995,0.3145541846752167
1783170070520577500,1.98657763671875,0.44501930475234985,0.23111751675605774,0.2186865657567978
1783170070530646300,1.996646240234375,0.46870413422584534,0.11156343668699265,0.10900773853063583
1783170070540716300,2.00671630859375,0.46646103262901306,-0.02869713492691517,0.05754067376255989
1783170070550785300,2.016785400390625,0.4656549096107483,-0.17316457629203796,0.07221949100494385
1783170070560855300,2.026855224609375,0.48128196597099304,-0.2666509747505188,0.12048596143722534
1783170070570925600,2.036925537109375,0.48430171608924866,-0.3317034840583801,0.19613677263259888
1783170070580994300,2.046994384765625,0.4659477472305298,-0.3627423346042633,0.3228036165237427
1783170070591064600,2.057064697265625,0.4244921803474426,-0.3301582932472229,0.4546239674091339
1783170070601133300,2.06713330078125,0.3808148205280304,-0.26412656903266907,0.5874983668327332
1783170070611203300,2.077203369140625,0.3303561806678772,-0.1913525015115738,0.6950498223304749
1783170070621273600,2.087273681640625,0.26465994119644165,-0.12940391898155212,0.7485635876655579
1783170070631342300,2.09734228515625,0.22148478031158447,-0.10852418839931488,0.7010698318481445
1783170070641412600,2.10741259765625,0.16756701469421387,-0.13771803677082062,0.5395711660385132
1783170070651481300,2.1174814453125,0.15615244209766388,-0.2297361046075821,0.30437541007995605
1783170070661551400,2.12755126953125,0.21113303303718567,-0.3156968057155609,0.14959140121936798
1783170070671621400,2.137621337890625,0.28350043296813965,-0.3116365373134613,0.16709423065185547
1783170070681690400,2.1476904296875,0.31757476925849915,-0.23760494589805603,0.3374842405319214
1783170070691760400,2.157760498046875,0.32380735874176025,-0.09117181599140167,0.5754648447036743
1783170070701829400,2.167829345703125,0.31160658597946167,0.10450685024261475,0.7486487030982971
1783170070711899400,2.1778994140625,0.2915026545524597,0.18096832931041718,0.8011244535446167
1783170070721969400,2.187969482421875,0.2792094051837921,0.22443245351314545,0.6106452941894531
1783170070732038400,2.198038330078125,0.2859666347503662,0.37803003191947937,0.06504111737012863
1783170070742108400,2.2081083984375,0.29522091150283813,0.5782559514045715,-0.7080699801445007
1783170070752177400,2.218177490234375,0.29407310485839844,0.6506657004356384,-1.2068257331848145
1783170070762247400,2.228247314453125,0.2147384136915207,0.6294471621513367,-1.2144628763198853
1783170070772317400,2.2383173828125,0.06743871420621872,0.40416693687438965,-0.767151415348053
1783170070782386200,2.24838623046875,-0.12974518537521362,0.0016798237338662148,-0.17242231965065002
1783170070792456400,2.25845654296875,-0.25349268317222595,-0.27243825793266296,0.19661962985992432
1783170070802525400,2.268525390625,-0.22812369465827942,-0.35012057423591614,0.06804405897855759
1783170070812595500,2.278595458984375,-0.034546758979558945,-0.3521064817905426,-0.402620404958725
1783170070822665500,2.28866552734375,0.15130171179771423,-0.31550201773643494,-0.9196150898933411
1783170070832734500,2.298734375,0.19932755827903748,-0.14596304297447205,-1.3298680782318115
1783170070842804500,2.308804443359375,0.11374134570360184,0.0993131622672081,-1.2690914869308472
1783170070852873200,2.318873291015625,0.023998143151402473,0.08382821828126907,-0.601043164730072
1783170070862943500,2.328943603515625,-0.051875680685043335,0.08415018767118454,0.3389546275138855
1783170070873013500,2.339013427734375,-0.15881066024303436,0.14386969804763794,1.0509753227233887
1783170070883082500,2.34908251953125,-0.30394190549850464,0.07095662504434586,1.5148117542266846
1783170070893152500,2.359152587890625,-0.41294562816619873,0.0009069656953215599,1.8026129007339478
1783170070903221200,2.36922119140625,-0.35592207312583923,0.06001156568527222,1.9821566343307495
1783170070913291500,2.37929150390625,-0.24025565385818481,0.1875937432050705,1.9629249572753906
1783170070923360300,2.3893603515625,-0.18498292565345764,0.18138206005096436,1.553109884262085
1783170070933430500,2.399430419921875,-0.010557589121162891,-0.04792223125696182,0.9154991507530212
1783170070943500500,2.40950048828125,0.22070103883743286,-0.30598852038383484,0.2396756410598755
1783170070953569500,2.419569580078125,0.4196610152721405,-0.3673666715621948,-0.39053216576576233
1783170070963639600,2.4296396484375,0.5080478191375732,-0.18708811700344086,-0.8351680040359497
1783170070973708300,2.439708251953125,0.3531181514263153,0.2910206615924835,-0.7930852770805359
1783170070983778600,2.449778564453125,0.11932745575904846,0.7244534492492676,-0.3117387890815735
1783170070993848300,2.459848388671875,-0.03694497048854828,0.941164493560791,0.09831157326698303
1783170071003917600,2.46991748046875,-0.10713164508342743,0.8992495536804199,0.21837875247001648
1783170071013987300,2.4799873046875,-0.12482569366693497,0.6377798318862915,0.1370178461074829
1783170071024056300,2.490056396484375,-0.05101567134261131,0.31335338950157166,-0.10522590577602386
1783170071034126600,2.500126708984375,0.01215957012027502,-0.06238080561161041,-0.4494152367115021
1783170071044196400,2.5101962890625,0.056263089179992676,-0.32430800795555115,-0.725367546081543
1783170071054265600,2.520265625,0.1120413988828659,-0.41429516673088074,-0.7941223978996277
1783170071064335400,2.53033544921875,0.18933089077472687,-0.3113496005535126,-0.7396385073661804
1783170071074404400,2.540404296875,0.2130066603422165,-0.06352541595697403,-0.6274043321609497
1783170071084474400,2.550474365234375,0.17050796747207642,0.09743176400661469,-0.43883785605430603
1783170071094545200,2.560545166015625,0.12901245057582855,0.18075060844421387,-0.22355404496192932
1783170071104614100,2.5706142578125,0.11877799779176712,0.22754289209842682,-0.03439802676439285
1783170071114684200,2.58068408203125,0.1287882775068283,0.2712607979774475,0.06394665688276291
1783170071124753200,2.590753173828125,0.15019798278808594,0.3227771520614624,0.00859090592712164
1783170071134823200,2.6008232421875,0.20957155525684357,0.31700289249420166,-0.1440308541059494
1783170071144893200,2.61089306640625,0.2700842320919037,0.20568406581878662,-0.24355031549930573
1783170071154962200,2.620962158203125,0.35010504722595215,0.057264506816864014,-0.24531172215938568
1783170071165032200,2.6310322265625,0.44430914521217346,-0.03686398267745972,-0.21756041049957275
1783170071175101200,2.64110107421875,0.5182358026504517,-0.10522545874118805,-0.16855184733867645
1783170071185171200,2.651171142578125,0.5621554851531982,-0.1922605037689209,-0.136760413646698
1783170071195241200,2.6612412109375,0.5741586685180664,-0.21475090086460114,-0.10248658806085587
1783170071205310200,2.671310302734375,0.5403158068656921,-0.21960210800170898,-0.08770211040973663
1783170071215380200,2.681380126953125,0.48593589663505554,-0.18091782927513123,-0.12404573708772659
1783170071225449000,2.691448974609375,0.4392702579498291,-0.10443757474422455,-0.17583271861076355
1783170071235519200,2.701519287109375,0.4040731191635132,-0.026912156492471695,-0.18433061242103577
1783170071245589200,2.71158935546875,0.35016608238220215,0.01226840727031231,-0.12037856876850128
1783170071255658200,2.721658203125,0.29857853055000305,-0.03859024494886398,-0.009355372749269009
1783170071265728300,2.731728271484375,0.30612727999687195,-0.1230233684182167,0.08604848384857178
1783170071275797200,2.74179736328125,0.3219677805900574,-0.15318074822425842,0.13948693871498108
1783170071285867300,2.7518671875,0.3137969374656677,-0.10506460815668106,0.16281063854694366
1783170071295936000,2.76193603515625,0.31893202662467957,-0.06573903560638428,0.20304779708385468
1783170071306006300,2.77200634765625,0.30694857239723206,-0.05885332077741623,0.25783464312553406
1783170071316076300,2.782076171875,0.26330095529556274,-0.08331631869077682,0.31264516711235046
1783170071326145300,2.792145263671875,0.17998895049095154,-0.09573261439800262,0.29129162430763245
1783170071336215300,2.80221533203125,0.07175729423761368,-0.02941324934363365,0.16480852663516998
1783170071346284000,2.812283935546875,-0.03155066817998886,0.11146277189254761,-0.050441473722457886
1783170071356354300,2.822354248046875,-0.08020182698965073,0.35910212993621826,-0.2578924000263214
1783170071366424000,2.832424072265625,-0.10740531980991364,0.6747940182685852,-0.3828202486038208
1783170071376493300,2.842493408203125,-0.13192690908908844,0.9893221259117126,-0.4703623652458191
1783170071386563300,2.852563232421875,-0.07994697242975235,1.267554759979248,-0.5161034464836121
1783170071396632300,2.86263232421875,0.11100513488054276,1.3984153270721436,-0.37324461340904236
1783170071406702300,2.872702392578125,0.2948390543460846,1.2558619976043701,0.06723424792289734
1783170071416772000,2.882772216796875,0.3483651280403137,1.1235923767089844,0.5258808732032776
1783170071426841300,2.89284130859375,0.3155041038990021,0.9054713249206543,0.6327512860298157
1783170071436911000,2.9029111328125,0.21737752854824066,0.4055291414260864,0.18884997069835663
1783170071446980400,2.91298046875,0.15905478596687317,-0.4843321740627289,-0.7847862839698792
1783170071457050000,2.923050048828125,0.12317296117544174,-1.2944484949111938,-1.8199849128723145
1783170071467120000,2.9331201171875,0.1349605768918991,-1.7379968166351318,-2.4575326442718506
1783170071477189400,2.943189453125,0.11547315865755081,-1.8703032732009888,-2.2505106925964355
1783170071487259100,2.953259033203125,-0.1220773309469223,-1.7353689670562744,-1.1960550546646118
1783170071497328400,2.963328369140625,-0.4402206838130951,-1.2883530855178833,0.11151652783155441
1783170071507398100,2.973398193359375,-0.6110506057739258,-0.6742640137672424,1.1109604835510254
1783170071517467100,2.983467041015625,-0.58443683385849,-0.26246634125709534,1.5737733840942383
1783170071527537200,2.993537109375,-0.46929192543029785,-0.06416831910610199,1.6308015584945679
1783170071537607200,3.003607177734375,-0.36045944690704346,0.08515405654907227,1.3601573705673218
1783170071547676200,3.01367626953125,-0.19903966784477234,0.17115484178066254,0.8196205496788025
1783170071557746200,3.02374609375,0.06132214143872261,0.10720543563365936,0.17787303030490875
1783170071567815400,3.0338154296875,0.3467511236667633,0.15260964632034302,-0.39007967710494995
1783170071577885200,3.04388525390625,0.5645191669464111,0.43179231882095337,-0.70585036277771
1783170071587955200,3.053955078125,0.6726863384246826,0.6896279454231262,-0.7411646246910095
1783170071598024200,3.064024169921875,0.6823911666870117,0.6017550826072693,-0.61903977394104
1783170071608094200,3.07409423828125,0.6237090229988098,0.20101380348205566,-0.45266446471214294
1783170071618163200,3.0841630859375,0.5013231635093689,-0.280192494392395,-0.2208043336868286
1783170071628233200,3.094233154296875,0.34295737743377686,-0.5742037296295166,-0.001181887462735176
1783170071638303200,3.10430322265625,0.16093191504478455,-0.5901326537132263,0.09893512725830078
1783170071648372200,3.114372314453125,-0.0661085993051529,-0.49558040499687195,0.14367102086544037
1783170071658442200,3.124442138671875,-0.26690852642059326,-0.4885576665401459,0.18007804453372955
1783170071668511200,3.13451123046875,-0.3848543167114258,-0.430000901222229,0.14266176521778107
1783170071678581200,3.144581298828125,-0.3945048153400421,-0.25992345809936523,0.02816794067621231
1783170071688651000,3.154651123046875,-0.34355607628822327,-0.04116446524858475,-0.09395109862089157
1783170071698720300,3.16472021484375,-0.31019678711891174,0.17494173347949982,-0.1874602884054184
1783170071708790300,3.174790283203125,-0.2810995280742645,0.36912772059440613,-0.2079405039548874
1783170071718859300,3.184859375,-0.2823655903339386,0.47931891679763794,-0.18881848454475403
1783170071728929300,3.19492919921875,-0.30298087000846863,0.47438275814056396,-0.17935147881507874
1783170071738999000,3.2049990234375,-0.3364487886428833,0.42308786511421204,-0.20499026775360107
1783170071749068300,3.215068359375,-0.3683735132217407,0.3905351459980011,-0.2532803416252136
1783170071759138000,3.225137939453125,-0.33986330032348633,0.31898000836372375,-0.30423274636268616
1783170071769207300,3.235207275390625,-0.27424609661102295,0.27044257521629333,-0.3440343737602234
1783170071779277000,3.245277099609375,-0.1993849128484726,0.26569363474845886,-0.36180752515792847
1783170071789346300,3.25534619140625,-0.11195619404315948,0.2991708815097809,-0.37811601161956787
1783170071799416300,3.265416259765625,-0.039049237966537476,0.3015725314617157,-0.3714272081851959
1783170071809486000,3.275486083984375,0.0024055964313447475,0.26951393485069275,-0.28882211446762085
1783170071819555300,3.285555419921875,0.012371145188808441,0.1612609326839447,-0.18254148960113525
1783170071829625000,3.295625,-0.011749112978577614,0.007614112924784422,-0.08491485565900803
1783170071839694300,3.3056943359375,-0.03537481278181076,-0.10286924988031387,-0.005283941514790058
1783170071849764000,3.31576416015625,-0.03403294086456299,-0.1978468894958496,0.08346109837293625
1783170071859834000,3.325834228515625,-0.01297719031572342,-0.2518882751464844,0.1264549046754837
1783170071869903000,3.335903076171875,-0.019456783309578896,-0.29208725690841675,0.1459822952747345
1783170071879973000,3.34597314453125,-0.05877489224076271,-0.30865931510925293,0.1715100258588791
1783170071890042400,3.35604248046875,-0.08682256191968918,-0.3155989646911621,0.15890751779079437
1783170071900112100,3.366112060546875,-0.12670020759105682,-0.3240656852722168,0.1619216799736023
1783170071910182100,3.37618212890625,-0.16669486463069916,-0.3043217957019806,0.22019988298416138
1783170071920251100,3.386251220703125,-0.21417397260665894,-0.22317367792129517,0.30145400762557983
1783170071930321200,3.396321044921875,-0.22543565928936005,-0.13033363223075867,0.3448714017868042
1783170071940390100,3.40639013671875,-0.20930355787277222,-0.06246402859687805,0.3355543315410614
1783170071950460200,3.416460205078125,-0.25066709518432617,-0.0004475237801671028,0.29096660017967224
1783170071960529200,3.426529052734375,-0.3154117166996002,0.03440020605921745,0.27791497111320496
1783170071970599200,3.43659912109375,-0.42259782552719116,0.09540988504886627,0.2670791745185852
1783170071980669200,3.446669189453125,-0.5289130806922913,0.2737814784049988,0.24101294577121735
1783170071990738200,3.45673828125,-0.6009278297424316,0.4699592590332031,0.17850780487060547
1783170072000808200,3.46680810546875,-0.5951541066169739,0.5553362369537354,0.07673989981412888
1783170072010877200,3.476877197265625,-0.5626859068870544,0.42937323451042175,0.026023123413324356
1783170072020947200,3.486947265625,-0.5647405385971069,0.16794560849666595,0.08374234288930893
1783170072031017200,3.497017333984375,-0.6243014335632324,-0.09142523258924484,0.1718769520521164
1783170072041086200,3.507086181640625,-0.7667560577392578,-0.33840814232826233,0.15054716169834137
1783170072051156200,3.51715625,-0.9342313408851624,-0.8991666436195374,-0.07599715143442154
1783170072061225200,3.52722509765625,-0.9969796538352966,-1.7233407497406006,-0.45762839913368225
1783170072071295200,3.537295166015625,-0.9274859428405762,-2.346860885620117,-0.7358118891716003
1783170072081365000,3.547364990234375,-0.8078415393829346,-2.5231168270111084,-0.693701446056366
1783170072091433000,3.557432861328125,-0.7201830744743347,-2.078922748565674,-0.33641746640205383
1783170072101503200,3.567503173828125,-0.7598641514778137,-1.4569700956344604,0.10774186253547668
1783170072111572200,3.577572265625,-0.925034761428833,-0.7316203117370605,0.5472582578659058
1783170072121642200,3.587642333984375,-1.0301060676574707,0.09672695398330688,0.8341022729873657
1783170072131712300,3.597712158203125,-0.9502519965171814,0.8726521134376526,0.9270927309989929
1783170072141781000,3.607781005859375,-0.791812002658844,1.6153481006622314,0.9194619655609131
1783170072151851300,3.617851318359375,-0.5640959143638611,2.190096139907837,0.6898547410964966
1783170072161920000,3.627919921875,-0.254043847322464,2.186497449874878,0.1956484615802765
1783170072171990300,3.637990234375,0.1068762019276619,1.6414618492126465,-0.3970092236995697
1783170072182059000,3.64805908203125,0.4691460132598877,0.8681551814079285,-0.9865363836288452
1783170072192129000,3.65812890625,0.7705585360527039,0.2854694426059723,-1.3444674015045166
1783170072202199300,3.66819921875,0.8918455839157104,0.12230528146028519,-1.4967401027679443
1783170072212268000,3.67826806640625,0.783231258392334,0.28651872277259827,-1.2716777324676514
1783170072222338300,3.68833837890625,0.4934132993221283,0.5198401212692261,-0.6647974252700806
1783170072232407000,3.698406982421875,0.15221397578716278,0.5714922547340393,-0.08731774985790253
1783170072242477000,3.70847705078125,-0.1480499804019928,0.48249101638793945,0.244199737906456
1783170072252547300,3.71854736328125,-0.36589136719703674,0.34076425433158875,0.38902008533477783
1783170072262616000,3.728615966796875,-0.566145122051239,0.11898418515920639,0.4466879069805145
1783170072272686300,3.738686279296875,-0.7042261958122253,-0.022828470915555954,0.4645666480064392
1783170072282755000,3.748755126953125,-0.7118369936943054,-0.034150101244449615,0.3576146364212036
1783170072292825300,3.758825439453125,-0.6707035303115845,-0.018049299716949463,0.19164736568927765
1783170072302895000,3.76889501953125,-0.6209234595298767,-0.05551944673061371,0.04898502305150032
1783170072312964000,3.778964111328125,-0.553612232208252,-0.10777518898248672,-0.026004323735833168
1783170072323034000,3.7890341796875,-0.4889722168445587,-0.13725052773952484,-0.005136325489729643
1783170072333103000,3.79910302734375,-0.42603880167007446,-0.2037772238254547,0.07015035301446915
1783170072343173400,3.80917333984375,-0.3599916100502014,-0.282701313495636,0.17665976285934448
1783170072353242000,3.8192421875,-0.26933255791664124,-0.2601025402545929,0.27008745074272156
1783170072363312000,3.82931201171875,-0.1737852543592453,-0.15316171944141388,0.3316895663738251
1783170072373382100,3.839382080078125,-0.05933891609311104,-0.0183880552649498,0.27911117672920227
1783170072383451100,3.849451171875,0.07751240581274033,0.05090713128447533,0.13893061876296997
1783170072393521200,3.859521240234375,0.23153150081634521,0.027246274054050446,-0.032435107976198196
1783170072403590100,3.869590087890625,0.3568934202194214,-0.03881050646305084,-0.18771924078464508
1783170072413660200,3.87966015625,0.43190857768058777,-0.11071400344371796,-0.25508400797843933
1783170072423730200,3.889730224609375,0.47409865260124207,-0.17217816412448883,-0.2361486554145813
1783170072433799200,3.899799072265625,0.4722858667373657,-0.2238818258047104,-0.21717438101768494
1783170072443869200,3.909869140625,0.45648452639579773,-0.22168871760368347,-0.2287609875202179
1783170072453938200,3.919938232421875,0.44521626830101013,-0.16965840756893158,-0.22993819415569305
1783170072464008200,3.93000830078125,0.3909037709236145,-0.13993194699287415,-0.21847142279148102
1783170072474078200,3.940078125,0.32143425941467285,-0.08988647162914276,-0.19046537578105927
1783170072484147000,3.95014697265625,0.2494756430387497,-0.057593509554862976,-0.1813696175813675
1783170072494217200,3.96021728515625,0.18131810426712036,-0.08076689392328262,-0.2470935732126236
1783170072504286000,3.970285888671875,0.14438670873641968,-0.18630211055278778,-0.35151827335357666
1783170072514356200,3.980356201171875,0.11935868114233017,-0.32274699211120605,-0.4712131917476654
1783170072524425200,3.99042529296875,0.12289296835660934,-0.3960241377353668,-0.5642925500869751
1783170072534495200,4.0004951171875,0.11159180104732513,-0.4054333567619324,-0.5669686794281006
1783170072544565200,4.010565185546875,0.06289057433605194,-0.36057987809181213,-0.5055934190750122
1783170072554634000,4.020634033203125,-0.029224922880530357,-0.1702798455953598,-0.3354738652706146
1783170072564704300,4.030704345703125,-0.1260787695646286,0.10571472346782684,-0.07639063894748688
1783170072574773000,4.04077294921875,-0.2170366644859314,0.3149574100971222,0.04956479370594025
1783170072584843300,4.05084326171875,-0.28799471259117126,0.5060219168663025,-0.016152169555425644
1783170072594913300,4.060913330078125,-0.3552453815937042,0.6272059082984924,-0.2403879314661026
1783170072604982000,4.07098193359375,-0.40120142698287964,0.5575040578842163,-0.617817223072052
1783170072615052300,4.08105224609375,-0.3637823462486267,0.32921144366264343,-1.0094285011291504
1783170072625121000,4.09112109375,-0.23671069741249084,0.10332480072975159,-1.139548897743225
1783170072635191300,4.10119140625,-0.13163605332374573,-0.1219131126999855,-0.8130829930305481
1783170072645261000,4.111260986328125,-0.12208116054534912,-0.10798504948616028,-0.23657679557800293
1783170072655330300,4.121330322265625,-0.22770123183727264,-0.028567438945174217,0.20701192319393158
1783170072665400300,4.131400390625,-0.4676493704319,-0.1548670530319214,0.24572283029556274
1783170072675469000,4.141468994140625,-0.7072604298591614,-0.4917517304420471,-0.042301829904317856
1783170072685539300,4.151539306640625,-0.834309458732605,-0.9985664486885071,-0.2271483838558197
1783170072695608000,4.161608154296875,-0.8475019931793213,-1.4775633811950684,-0.07671351730823517
1783170072705678300,4.17167822265625,-0.8111269474029541,-1.6786497831344604,0.32766246795654297
1783170072715748000,4.181748046875,-0.8130106329917908,-1.4950833320617676,0.7875669002532959
1783170072725817000,4.191817138671875,-0.8286218047142029,-1.048693060874939,1.1740508079528809
1783170072735887000,4.20188720703125,-0.8100757002830505,-0.48363977670669556,1.392179012298584
1783170072745956000,4.2119560546875,-0.8028172254562378,0.10988082736730576,1.445063829421997
1783170072756026400,4.2220263671875,-0.7671939134597778,0.6455912590026855,1.33748197555542
1783170072766096100,4.23209619140625,-0.6297628283500671,0.9699459075927734,1.1104615926742554
1783170072776165000,4.2421650390625,-0.4046590030193329,0.9647117257118225,0.7903051972389221
1783170072786235100,4.252235107421875,-0.1557685136795044,0.6947974562644958,0.40183016657829285
1783170072796304100,4.26230419921875,0.09078160673379898,0.3356134295463562,0.15190847218036652
1783170072806374100,4.2723740234375,0.24757415056228638,0.11295931786298752,0.06432296335697174
1783170072816444200,4.282444091796875,0.3343346118927002,0.07143451273441315,0.08742828667163849
1783170072826513200,4.29251318359375,0.4211941659450531,0.07361217588186264,0.08151926100254059
1783170072836583200,4.302583251953125,0.39472490549087524,-0.07135994732379913,0.03213173523545265
1783170072846652200,4.312652099609375,0.2779804468154907,-0.1985168308019638,-0.09687258303165436
1783170072856722200,4.32272216796875,0.14063654839992523,-0.21537649631500244,-0.11786670982837677
1783170072866791200,4.332791259765625,-0.038234397768974304,-0.20933911204338074,0.007374035194516182
1783170072876861200,4.342861083984375,-0.23183059692382812,-0.22497053444385529,0.1239197701215744
1783170072886931200,4.35293115234375,-0.349699467420578,-0.2751586139202118,0.20509983599185944
1783170072897000200,4.363000244140625,-0.38905012607574463,-0.32543760538101196,0.2526249289512634
1783170072907070200,4.3730703125,-0.3708612620830536,-0.3281297981739044,0.26456016302108765
1783170072917139000,4.383138916015625,-0.2749030292034149,-0.28042539954185486,0.14074212312698364
1783170072927209200,4.393209228515625,-0.13795368373394012,-0.2098119556903839,-0.017345238476991653
1783170072937279200,4.403279296875,-0.04442352429032326,-0.08208741247653961,-0.10137225687503815
1783170072947348200,4.41334814453125,-0.045369479805231094,-0.00524296797811985,-0.16435202956199646
1783170072957418200,4.423418212890625,-0.11165112257003784,0.09606955200433731,-0.14645105600357056
1783170072967487000,4.433487060546875,-0.2198265939950943,0.17763283848762512,-0.07797718793153763
1783170072977557200,4.44355712890625,-0.32768917083740234,0.24478229880332947,-0.0201144739985466
1783170072987626000,4.4536259765625,-0.36183327436447144,0.25797826051712036,0.015352440997958183
1783170072997696300,4.4636962890625,-0.32103055715560913,0.2264215499162674,-0.00426299124956131
1783170073007766300,4.473766357421875,-0.19700048863887787,0.18642060458660126,-0.05181799456477165
1783170073017835300,4.483835205078125,-0.040446486324071884,0.194994255900383,-0.1138966828584671
1783170073027905300,4.4939052734375,0.1335759162902832,0.22384214401245117,-0.20353442430496216
1783170073037974000,4.50397412109375,0.30438634753227234,0.22456853091716766,-0.2351292371749878
1783170073048044300,4.514044189453125,0.3796944320201874,0.19419731199741364,-0.18192140758037567
1783170073058114000,4.524114013671875,0.3671165406703949,0.10996364802122116,-0.09075810015201569
1783170073068183300,4.534183349609375,0.32037806510925293,0.00780531857162714,-0.009073885157704353
1783170073078253300,4.54425341796875,0.2806795537471771,-0.08098606020212173,0.0507550910115242
1783170073088322800,4.55432275390625,0.2507232427597046,-0.14960481226444244,0.0909978523850441
1783170073098393000,4.56439306640625,0.2196185141801834,-0.18972733616828918,0.13161492347717285
1783170073108463000,4.574463134765625,0.16036663949489594,-0.1961548775434494,0.17706842720508575
1783170073118531800,4.58453173828125,0.10268282890319824,-0.15829803049564362,0.2645428776741028
1783170073128602000,4.59460205078125,0.04684620350599289,-0.10164619982242584,0.36595338582992554
1783170073138670800,4.6046708984375,-0.034832898527383804,-0.13961023092269897,0.39084091782569885
1783170073148741000,4.6147412109375,-0.1227497011423111,-0.27343806624412537,0.35772985219955444
1783170073158809900,4.624809814453125,-0.1895463913679123,-0.3774961829185486,0.30295541882514954
1783170073168879900,4.6348798828125,-0.27674630284309387,-0.41909554600715637,0.29348549246788025
1783170073178950000,4.644949951171875,-0.36770111322402954,-0.40159592032432556,0.34514233469963074
1783170073189019000,4.655018798828125,-0.4254445731639862,-0.3048621714115143,0.39660659432411194
1783170073199089200,4.665089111328125,-0.4693411886692047,-0.17754043638706207,0.37055742740631104
1783170073209158000,4.675157958984375,-0.5021451711654663,-0.12983790040016174,0.32507675886154175
1783170073219228000,4.685227783203125,-0.49111440777778625,-0.04276863485574722,0.3319139778614044
1783170073229297000,4.695296875,-0.4078086018562317,0.03288484737277031,0.3556384742259979
1783170073239367000,4.705366943359375,-0.14849591255187988,0.10402426868677139,0.3268938660621643
1783170073249437000,4.71543701171875,0.28237292170524597,0.13217973709106445,0.29174625873565674
1783170073259506000,4.725505859375,0.7748119831085205,0.16759590804576874,0.2997376024723053
1783170073269576000,4.735575927734375,1.205816626548767,0.39221224188804626,0.2701198160648346
1783170073279645000,4.74564501953125,1.4300209283828735,0.7418853044509888,0.21105808019638062
1783170073289715000,4.75571484375,1.4094895124435425,0.894134521484375,0.09590619057416916
1783170073299785000,4.765784912109375,1.1917446851730347,0.6847715377807617,-0.3624800145626068
1783170073309854000,4.77585400390625,0.9374554753303528,0.10753060132265091,-0.912507951259613
1783170073319924000,4.785924072265625,0.6551803946495056,-0.6302021741867065,-1.1262924671173096
1783170073329993000,4.795992919921875,0.3725411891937256,-1.1462194919586182,-0.9193203449249268
1783170073340063000,4.80606298828125,0.13561372458934784,-1.2520134449005127,-0.4491140842437744
1783170073350133000,4.816133056640625,-0.04338984191417694,-0.9516035318374634,-0.04444700479507446
1783170073360201700,4.82620166015625,-0.12837252020835876,-0.42945364117622375,0.14722412824630737
1783170073370272000,4.83627197265625,-0.10101679712533951,0.15526893734931946,0.2271280139684677
1783170073380341000,4.846341064453125,-0.020339511334896088,0.5431143045425415,0.3098047077655792
1783170073390411000,4.856410888671875,0.08259671926498413,0.6756917834281921,0.3831215500831604
1783170073400480000,4.86647998046875,0.20405583083629608,0.6017801761627197,0.3227844536304474
1783170073410549800,4.8765498046875,0.33171018958091736,0.42070406675338745,0.11408556997776031
1783170073420620000,4.8866201171875,0.4902486503124237,0.08778297901153564,-0.13481402397155762
1783170073430688800,4.896688720703125,0.6076168417930603,-0.36761248111724854,-0.25813809037208557
1783170073440759000,4.906759033203125,0.7244815826416016,-0.5406267642974854,-0.1956450194120407
1783170073450827800,4.916827880859375,0.8532171845436096,-0.3552534580230713,-0.05512572079896927
1783170073460898000,4.92689794921875,0.9854459762573242,-0.2846410572528839,0.20097078382968903
1783170073470968000,4.936968017578125,1.003106713294983,-0.2377379983663559,0.37056753039360046
1783170073481036800,4.947036865234375,0.8958196043968201,-0.2011132836341858,0.4878050684928894
1783170073491107000,4.957107177734375,0.6914507150650024,-0.23202991485595703,0.5803637504577637
1783170073501175800,4.96717578125,0.46790772676467896,-0.3132377862930298,0.6331879496574402
1783170073511246000,4.97724609375,0.2661527693271637,-0.38843613862991333,0.5749009251594543
1783170073521314800,4.987314697265625,0.11697199195623398,-0.47198325395584106,0.4087367057800293
1783170073531384800,4.997384765625,-0.003882790682837367,-0.4838966429233551,0.24237807095050812
1783170073541455000,5.007455078125,-0.06112627312541008,-0.38060033321380615,0.18842701613903046
1783170073551523800,5.01752392578125,-0.034854717552661896,-0.14072862267494202,0.18883022665977478
1783170073561594000,5.027593994140625,0.055290620774030685,0.13363555073738098,0.14630939066410065
1783170073571662800,5.037662841796875,0.1548968404531479,0.34557443857192993,0.060498349368572235
1783170073581732900,5.04773291015625,0.23800738155841827,0.5197089314460754,-0.030462663620710373
1783170073591803000,5.057802978515625,0.2859061658382416,0.6851551532745361,-0.042929984629154205
1783170073601872000,5.067871826171875,0.29384246468544006,0.7627374529838562,0.013527191244065762
1783170073611942100,5.077942138671875,0.2940067648887634,0.7832067608833313,0.059854742139577866
1783170073622011000,5.088010986328125,0.28367874026298523,0.7634175419807434,0.06605252623558044
1783170073632081200,5.0980810546875,0.2800920009613037,0.6574063897132874,0.015382695011794567
1783170073642150000,5.10814990234375,0.2779161334037781,0.4649074971675873,-0.07140620797872543
1783170073652220000,5.118219970703125,0.2850984036922455,0.26153093576431274,-0.13762305676937103
1783170073662290000,5.1282900390625,0.28547200560569763,0.10705213248729706,-0.15252067148685455
1783170073672359000,5.13835888671875,0.29249635338783264,0.02039260044693947,-0.15401576459407806
1783170073682429000,5.148428955078125,0.3466818034648895,-0.018936149775981903,-0.1601051241159439
1783170073692498000,5.158497802734375,0.4206644296646118,-0.009610824286937714,-0.14209629595279694
1783170073702568000,5.16856787109375,0.47096773982048035,0.05004238337278366,-0.10339919477701187
1783170073712638000,5.178637939453125,0.49341338872909546,0.12514831125736237,-0.01384614035487175
1783170073722707000,5.18870703125,0.49463215470314026,0.20094960927963257,0.07934564352035522
1783170073732777000,5.19877685546875,0.47648191452026367,0.25401735305786133,0.12214663624763489
1783170073742846000,5.208845947265625,0.4466656744480133,0.19672369956970215,0.09540573507547379
1783170073752916000,5.218916015625,0.40107715129852295,0.07119640707969666,-0.04519958794116974
1783170073762985000,5.22898486328125,0.36557498574256897,-0.012961736880242825,-0.18140102922916412
1783170073773054700,5.2390546875,0.34960052371025085,0.0020212065428495407,-0.2590752840042114
1783170073783125000,5.249125,0.34863635897636414,0.06935776025056839,-0.2914285659790039
1783170073793194000,5.259194091796875,0.3254508972167969,0.13617034256458282,-0.36687779426574707
1783170073803264000,5.269263916015625,0.28781333565711975,0.25179773569107056,-0.5609529614448547
1783170073813333000,5.2793330078125,0.2586013674736023,0.2539871335029602,-0.8577055335044861
1783170073823403000,5.289403076171875,0.2791004478931427,0.0050778440199792385,-1.1519854068756104
1783170073833473000,5.29947314453125,0.3996678590774536,-0.2912331819534302,-1.3216272592544556
1783170073843541800,5.309541748046875,0.5859289169311523,-0.5176947116851807,-1.2039598226547241
1783170073853612000,5.319612060546875,0.7670816779136658,-0.5999509692192078,-0.844510018825531
1783170073863680800,5.3296806640625,0.9152852892875671,-0.5769628882408142,-0.5123858451843262
1783170073873749000,5.3397490234375,0.9859232306480408,-0.6012208461761475,-0.24833714962005615
1783170073883818000,5.34981787109375,0.9823893904685974,-0.4322773814201355,-0.17502091825008392
1783170073893888000,5.359887939453125,0.9891613125801086,-0.14709864556789398,-0.2766769528388977
1783170073903957000,5.36995703125,0.9255879521369934,0.07214275747537613,-0.4607263505458832
1783170073914027000,5.380027099609375,0.7529024481773376,0.18515744805335999,-0.6793857216835022
1783170073924097000,5.390096923828125,0.47975030541419983,0.17299093306064606,-1.041310429573059
1783170073934166000,5.400166015625,0.25091928243637085,-0.037001702934503555,-1.221832275390625
1783170073944236000,5.410236083984375,0.12236450612545013,-0.496829092502594,-0.8644217848777771
1783170073954305000,5.420304931640625,0.11119520664215088,-0.8986076712608337,-0.12201663106679916
1783170073964375000,5.430375,0.1578799933195114,-1.0252758264541626,0.5266740322113037
1783170073974444800,5.44044482421875,0.24186065793037415,-0.9251292943954468,0.9804306030273438
1783170073984514000,5.45051416015625,0.3348432779312134,-0.4498436152935028,1.1809310913085938
1783170073994583800,5.460583740234375,0.3762296140193939,-0.016772329807281494,1.2419850826263428
1783170074004653000,5.470653076171875,0.4229241907596588,0.24681124091148376,1.185726284980774
1783170074014723000,5.48072314453125,0.48315635323524475,0.4421495795249939,0.9674117565155029
1783170074024792000,5.4907919921875,0.5545454621315002,0.6431987881660461,0.6193562746047974
1783170074034862000,5.500862060546875,0.6367407441139221,0.9449573159217834,0.16596350073814392
1783170074044931800,5.510931884765625,0.6659801006317139,1.0726749897003174,-0.1811038851737976
1783170074055001000,5.5210009765625,0.6715295910835266,1.065535545349121,-0.18290898203849792
1783170074065070800,5.53107080078125,0.6515093445777893,0.9650232791900635,0.07100094854831696
1783170074075140000,5.54114013671875,0.5912492275238037,0.7883492112159729,0.3763771057128906
1783170074085209900,5.5512099609375,0.49825558066368103,0.5668779611587524,0.5779393315315247
1783170074095279400,5.561279296875,0.34744635224342346,0.24969197809696198,0.6225755214691162
1783170074105348600,5.5713486328125,0.18304556608200073,-0.06923113763332367,0.620096743106842
1783170074115418400,5.58141845703125,0.07066762447357178,-0.30677685141563416,0.6714342832565308
1783170074125487600,5.591487548828125,-0.026318801566958427,-0.344103068113327,0.8155898451805115
1783170074135557600,5.6015576171875,-0.10886187851428986,-0.15534061193466187,0.9456687569618225
1783170074145626600,5.611626708984375,-0.1502826064825058,0.22289511561393738,1.008158564567566
1783170074155696600,5.621696533203125,-0.16993194818496704,0.6456977725028992,0.9358436465263367
1783170074165766400,5.631766357421875,-0.13944463431835175,0.889578104019165,0.7356503009796143
1783170074175835600,5.641835693359375,-0.10647258162498474,0.9090276956558228,0.502490758895874
1783170074185905400,5.651905517578125,-0.050317756831645966,0.7819545269012451,0.2825128436088562
1783170074195974700,5.661974609375,0.07167686522006989,0.67960524559021,0.13761025667190552
1783170074206044400,5.67204443359375,0.21020464599132538,0.6739396452903748,0.13398408889770508
1783170074216113700,5.68211376953125,0.3555607795715332,0.677355945110321,0.23989853262901306
1783170074226183400,5.692183349609375,0.48019927740097046,0.6300830245018005,0.39274847507476807
1783170074236253400,5.70225341796875,0.5451074242591858,0.5297492146492004,0.5237720012664795
1783170074246322700,5.71232275390625,0.5493541359901428,0.4017053246498108,0.5124597549438477
1783170074256392400,5.722392333984375,0.5196194052696228,0.26807937026023865,0.42677944898605347
1783170074266462500,5.73246240234375,0.49142614006996155,0.16844306886196136,0.33903607726097107
1783170074276532700,5.74253271484375,0.4588972330093384,0.14488022029399872,0.1773531585931778
1783170074286601500,5.7526015625,0.4237029552459717,0.17596663534641266,-0.015939729288220406
1783170074296671700,5.762671630859375,0.3747814893722534,0.1940620094537735,-0.1533401906490326
1783170074306740500,5.772740478515625,0.31333616375923157,0.1801280826330185,-0.1943293809890747
1783170074316810500,5.782810546875,0.2692720293998718,0.18134728074073792,-0.1609264314174652
1783170074326880500,5.792880615234375,0.2438211590051651,0.22433148324489594,-0.07401341944932938
1783170074336949500,5.802949462890625,0.22627225518226624,0.27381250262260437,0.02157222479581833
1783170074347019500,5.81301953125,0.2270190268754959,0.2541435956954956,0.09793269634246826
1783170074357088500,5.823088623046875,0.22123996913433075,0.24083256721496582,0.156923308968544
1783170074367158500,5.833158447265625,0.21494023501873016,0.2700686454772949,0.17895013093948364
1783170074377227500,5.8432275390625,0.2240208238363266,0.3440866768360138,0.08845671266317368
1783170074387297500,5.853297607421875,0.2433396279811859,0.3855316936969757,-0.09480921924114227
1783170074397367600,5.863367431640625,0.2405422329902649,0.36312466859817505,-0.24779662489891052
1783170074407436500,5.8734365234375,0.20426198840141296,0.3204684257507324,-0.3653332591056824
1783170074417506600,5.883506591796875,0.13767950236797333,0.3059440851211548,-0.3904476463794708
1783170074427575600,5.893575439453125,0.05172066017985344,0.41963520646095276,-0.2066304236650467
1783170074437645300,5.903645263671875,-0.017885850742459297,0.4634319543838501,0.0750286802649498
1783170074447715600,5.913715576171875,-0.02197154611349106,0.37034890055656433,0.15220266580581665
1783170074457784300,5.923784423828125,0.05497942864894867,0.29697561264038086,-0.15828409790992737
1783170074467854600,5.9338544921875,0.20401513576507568,0.3303360939025879,-0.7104209661483765
1783170074477923600,5.943923583984375,0.3883751332759857,0.39668208360671997,-1.2283517122268677
1783170074487993600,5.95399365234375,0.5750598311424255,0.40880733728408813,-1.492282748222351
1783170074498062600,5.9640625,0.7310571670532227,0.34550079703330994,-1.4162529706954956
1783170074508132400,5.97413232421875,0.7651500105857849,0.48683395981788635,-1.2250877618789673
1783170074518202600,5.98420263671875,0.6071299910545349,0.655012309551239,-1.0771808624267578
1783170074528271400,5.994271240234375,0.4089113175868988,0.5606305599212646,-1.1153688430786133
1783170074538341600,6.004341552734375,0.26052746176719666,0.15597759187221527,-1.4484692811965942
1783170074548410400,6.014410400390625,0.20103797316551208,-0.4736071228981018,-1.8412986993789673
1783170074558480400,6.02448046875,0.17831295728683472,-1.1329938173294067,-1.8359811305999756
1783170074568549600,6.034549560546875,0.09804723411798477,-1.5502138137817383,-1.1949435472488403
1783170074578619400,6.044619384765625,-0.04427529126405716,-1.5242576599121094,-0.15015502274036407
1783170074588689700,6.054689697265625,-0.19011898338794708,-1.1283015012741089,0.7523918747901917
1783170074598758400,6.06475830078125,-0.2625234127044678,-0.5956425070762634,1.1911261081695557
1783170074608828700,6.07482861328125,-0.24144402146339417,-0.1497490257024765,1.2476487159729004
1783170074618897400,6.0848974609375,-0.21404196321964264,0.14812500774860382,1.158757209777832
1783170074628967400,6.094967529296875,-0.14519843459129333,0.2800746560096741,1.0409127473831177
1783170074639037700,6.10503759765625,-0.009322632104158401,0.14048424363136292,0.89961177110672
1783170074649106400,6.1151064453125,0.18802636861801147,-0.21371695399284363,0.809573233127594
1783170074659176700,6.1251767578125,0.43521833419799805,-0.5102919340133667,0.8178066611289978
1783170074669245400,6.135245361328125,0.6190699934959412,-0.741118311882019,0.879469096660614
1783170074679315500,6.1453154296875,0.6761831045150757,-0.8133267760276794,0.9529430270195007
1783170074689384400,6.155384521484375,0.6252733469009399,-0.7653155326843262,0.9123027324676514
1783170074699454500,6.165454345703125,0.5375693440437317,-0.6608349084854126,0.7052046656608582
1783170074709524700,6.175524658203125,0.4514622688293457,-0.540505051612854,0.32878226041793823
1783170074719593500,6.185593505859375,0.3645939528942108,-0.4421609044075012,-0.07465201616287231
1783170074729663500,6.19566357421875,0.26215460896492004,-0.34615156054496765,-0.3102272152900696
1783170074739732500,6.205732421875,0.1322043240070343,-0.12769566476345062,-0.20440490543842316
1783170074749802500,6.215802490234375,-0.048690419644117355,0.11618252098560333,0.18831180036067963
1783170074759871500,6.22587158203125,-0.21997322142124176,0.33542510867118835,0.6090303063392639
1783170074769941500,6.23594140625,-0.3592219650745392,0.38849303126335144,0.8679406642913818
1783170074780011500,6.246011474609375,-0.4825071394443512,0.3236972391605377,0.8959107995033264
1783170074790080500,6.25608056640625,-0.543581485748291,0.24808955192565918,0.7769443392753601
1783170074800150500,6.266150634765625,-0.5509853363037109,0.20919328927993774,0.5395815968513489
1783170074810219500,6.276219482421875,-0.5022095441818237,0.24658259749412537,0.24428203701972961
1783170074820289500,6.28628955078125,-0.42359066009521484,0.36187615990638733,0.010242367163300514
1783170074830359600,6.296359619140625,-0.3452829122543335,0.5110458135604858,-0.18387728929519653
1783170074840428500,6.306428466796875,-0.24907435476779938,0.6484715938568115,-0.32311320304870605
1783170074850498600,6.31649853515625,-0.154241144657135,0.7365003824234009,-0.39322158694267273
1783170074860567600,6.326567626953125,-0.07063973695039749,0.733953058719635,-0.36910825967788696
1783170074870637300,6.33663720703125,0.0008431320893578231,0.6608816385269165,-0.2831234931945801
1783170074880706600,6.34670654296875,0.06114402413368225,0.5393677353858948,-0.21449889242649078
1783170074890776600,6.356776611328125,0.0881354808807373,0.4298746585845947,-0.21733006834983826
1783170074900846600,6.3668466796875,0.10719545930624008,0.35443422198295593,-0.317918986082077
1783170074910915600,6.37691552734375,0.13921469449996948,0.288296103477478,-0.4635201096534729
1783170074920985300,6.3869853515625,0.17944228649139404,0.21941129863262177,-0.5669373273849487
1783170074931054600,6.3970546875,0.20079967379570007,0.14175738394260406,-0.6008184552192688
1783170074941124400,6.407124267578125,0.2195264846086502,0.059092871844768524,-0.5917565226554871
1783170074951193600,6.417193603515625,0.20981496572494507,0.007168685086071491,-0.5131800770759583
1783170074961263400,6.427263427734375,0.1841290444135666,-0.01354191917926073,-0.41359832882881165
1783170074971333400,6.43733349609375,0.1796349436044693,-0.05248519033193588,-0.32410672307014465
1783170074981402600,6.447402587890625,0.16581207513809204,-0.09797517955303192,-0.2775309681892395
1783170074991472400,6.457472412109375,0.15362942218780518,-0.09812536835670471,-0.2946612536907196
1783170075001541600,6.467541748046875,0.12759622931480408,-0.0165836364030838,-0.3674723505973816
1783170075011611400,6.477611328125,0.06889671087265015,0.11979203671216965,-0.43547505140304565
1783170075021681700,6.487681640625,-0.037608951330184937,0.2154650241136551,-0.3971084952354431
1783170075031750400,6.49775048828125,-0.1758125126361847,0.22120985388755798,-0.2695503532886505
1783170075041820400,6.5078203125,-0.2993296682834625,0.18649394810199738,-0.165394127368927
1783170075051889400,6.517889404296875,-0.38368868827819824,0.0923369750380516,-0.14421066641807556
1783170075061959400,6.52795947265625,-0.44286784529685974,-0.028433125466108322,-0.20235148072242737
1783170075072028700,6.538028564453125,-0.408089280128479,-0.06450137495994568,-0.35797998309135437
1783170075082098400,6.548098388671875,-0.30557167530059814,-0.01456950232386589,-0.5633683204650879
1783170075092168400,6.55816845703125,-0.2014114111661911,0.172394260764122,-0.7399817109107971
1783170075102237200,6.5682373046875,-0.10255458950996399,0.45657458901405334,-0.6981445550918579
1783170075112307000,6.578306884765625,-0.00029991415794938803,0.7263617515563965,-0.402365118265152
1783170075122376200,6.588376220703125,0.12086938321590424,0.861041247844696,-0.09758524596691132
1783170075132446000,6.598446044921875,0.20009633898735046,0.7752066254615784,-0.08644494414329529
1783170075142515200,6.60851513671875,0.24093511700630188,0.3759423494338989,-0.5132335424423218
1783170075152585200,6.618585205078125,0.2547153830528259,-0.12062003463506699,-1.1322646141052246
1783170075162655200,6.6286552734375,0.21143555641174316,-0.4721743166446686,-1.6392428874969482
1783170075172724200,6.63872412109375,0.133443221449852,-0.6285669207572937,-1.8122047185897827
1783170075182794000,6.6487939453125,-0.09501978754997253,-0.7149007320404053,-1.5475863218307495
1783170075192863200,6.65886328125,-0.45110270380973816,-0.7575794458389282,-0.8956853151321411
1783170075202933000,6.66893310546875,-0.843849241733551,-0.8040897250175476,-0.10934627056121826
1783170075213003300,6.679003173828125,-1.1227165460586548,-0.930180549621582,0.4811527132987976
1783170075223072000,6.689072021484375,-1.235905647277832,-1.0607476234436035,0.730902910232544
1783170075233142000,6.69914208984375,-1.2574260234832764,-1.1039743423461914,0.805349588394165
1783170075243211300,6.709211181640625,-1.1837272644042969,-0.9711493849754333,0.8079725503921509
1783170075253281000,6.719281005859375,-1.072413682937622,-0.7469145655632019,0.667624831199646
1783170075263350300,6.729350341796875,-0.8889645338058472,-0.5508931279182434,0.4159018099308014
1783170075273420000,6.739419921875,-0.7128672003746033,-0.49807441234588623,0.1505223661661148
1783170075283490300,6.749490234375,-0.6198205947875977,-0.4701383709907532,-0.004953508730977774
1783170075293559000,6.75955908203125,-0.5605378150939941,-0.4586217701435089,0.01818787306547165
1783170075303629000,6.769629150390625,-0.45515307784080505,-0.5212612152099609,0.17310793697834015
1783170075313698000,6.779697998046875,-0.34259551763534546,-0.6308073997497559,0.37324613332748413
1783170075323768000,6.78976806640625,-0.25142380595207214,-0.7119951844215393,0.6317315101623535
1783170075333837300,6.79983740234375,-0.19776856899261475,-0.7925856113433838,0.9051390886306763
1783170075343907000,6.809906982421875,-0.14608220756053925,-0.7532760500907898,1.0671781301498413
1783170075353977000,6.81997705078125,-0.09104067832231522,-0.648343026638031,0.9759818911552429
1783170075364046000,6.830046142578125,-0.05185732990503311,-0.5843472480773926,0.7416301369667053
1783170075374116000,6.8401162109375,-0.054291121661663055,-0.47598797082901,0.5242398977279663
1783170075384185000,6.85018505859375,-0.07034039497375488,-0.2991138696670532,0.4031393527984619
1783170075394255000,6.860255126953125,-0.08866795152425766,0.004209922626614571,0.4127107858657837
1783170075404324000,6.870323974609375,-0.15316464006900787,0.2494223415851593,0.5062702894210815
1783170075414394000,6.88039404296875,-0.20582528412342072,0.35698047280311584,0.5695456266403198
1783170075424464100,6.890464111328125,-0.23659837245941162,0.3242590129375458,0.5869648456573486
1783170075434533000,6.900533203125,-0.24971505999565125,0.1880577653646469,0.5594788789749146
1783170075444603100,6.91060302734375,-0.26642000675201416,0.022915158420801163,0.46657904982566833
1783170075454672100,6.920672119140625,-0.3067565858364105,-0.09102819114923477,0.3315927982330322
1783170075464742100,6.9307421875,-0.35768821835517883,-0.09985577315092087,0.20954838395118713
1783170075474812200,6.940812255859375,-0.42140835523605347,0.029482506215572357,0.1602204144001007
1783170075484881200,6.950881103515625,-0.4637848436832428,0.22905951738357544,0.13594862818717957
1783170075494951200,6.960951171875,-0.478693425655365,0.36672738194465637,0.09117018431425095
1783170075505020200,6.971020263671875,-0.4759841859340668,0.44065061211586,0.008885961957275867
1783170075515090200,6.981090087890625,-0.43282419443130493,0.4607730507850647,-0.0526212640106678
1783170075525159200,6.9911591796875,-0.383952260017395,0.37196943163871765,-0.11419833451509476
1783170075535229200,7.001229248046875,-0.3141648471355438,0.19266077876091003,-0.18895035982131958
1783170075545299000,7.011298828125,-0.2175743728876114,0.013433508574962616,-0.22544552385807037
1783170075555368200,7.0213681640625,-0.14419035613536835,-0.1002039834856987,-0.19492696225643158
1783170075565438200,7.031438232421875,-0.10064768046140671,-0.10640168935060501,-0.12678438425064087
1783170075575507200,7.041507080078125,-0.08135940134525299,-0.06029810756444931,-0.056790705770254135
1783170075585577200,7.0515771484375,-0.03792191296815872,0.007556304335594177,-0.031956996768713
1783170075595646200,7.061646240234375,-0.027223477140069008,0.08582541346549988,-0.01209692656993866
1783170075605716200,7.07171630859375,-0.05534299835562706,0.14081355929374695,0.01799413189291954
1783170075615786000,7.081785888671875,-0.1153675764799118,0.11319073289632797,0.03265153616666794
1783170075625855200,7.091855224609375,-0.18179960548877716,0.04081852734088898,0.016203319653868675
1783170075635925000,7.101925048828125,-0.25637286901474,-0.056525468826293945,0.03944890946149826
1783170075645994200,7.111994140625,-0.2882796823978424,-0.13356539607048035,0.07077992707490921
1783170075656064300,7.122064208984375,-0.2928031086921692,-0.20495861768722534,0.16693101823329926
1783170075666133200,7.13213330078125,-0.29916566610336304,-0.2780751585960388,0.3120621144771576
1783170075676203300,7.142203369140625,-0.33134910464286804,-0.3492279052734375,0.38622549176216125
1783170075686273000,7.15227294921875,-0.3748933970928192,-0.4351601302623749,0.27548354864120483
1783170075696342300,7.16234228515625,-0.41239026188850403,-0.3759872317314148,-0.021574899554252625
1783170075706412000,7.172412109375,-0.46410858631134033,-0.16722789406776428,-0.3314147889614105
1783170075716481300,7.182481201171875,-0.5862331390380859,0.06016957014799118,-0.5761118531227112
1783170075726551000,7.192551025390625,-0.7232157588005066,0.24621985852718353,-0.6340156197547913
1783170075736620300,7.202620361328125,-0.8054282665252686,0.3287043571472168,-0.3579411208629608
1783170075746690300,7.212690185546875,-0.7076734304428101,0.4616070091724396,0.05242539197206497
1783170075756760000,7.222760009765625,-0.4875992238521576,0.5258674025535583,0.43058159947395325
1783170075766829300,7.232829345703125,-0.2691318690776825,0.6605131030082703,0.35666051506996155
1783170075776899000,7.242899169921875,-0.12803897261619568,0.6465950012207031,-0.2916119694709778
1783170075786968300,7.25296826171875,-0.1384705752134323,0.18752247095108032,-1.350022792816162
1783170075797038000,7.2630380859375,-0.26869308948516846,-0.8121274709701538,-2.495853900909424
1783170075807107300,7.273107421875,-0.5069701075553894,-1.8542698621749878,-3.1266515254974365
1783170075817177000,7.283177001953125,-0.8449640870094299,-2.3747777938842773,-2.660325288772583
1783170075827247000,7.2932470703125,-1.136116862297058,-2.095656633377075,-1.337105631828308
1783170075837316400,7.30331640625,-1.2734018564224243,-1.31898033618927,0.24120622873306274
1783170075847386000,7.31338623046875,-1.2930387258529663,-0.4613383412361145,1.4734649658203125
1783170075857455400,7.323455322265625,-1.251205325126648,0.3091382682323456,2.098867893218994
1783170075867525000,7.333525146484375,-1.1894181966781616,0.8259097337722778,2.15195894241333
1783170075877595100,7.34359521484375,-1.0541110038757324,1.0424679517745972,1.6888374090194702
1783170075887664000,7.3536640625,-0.8689001798629761,0.8943106532096863,0.8954097628593445
1783170075897734100,7.363734130859375,-0.6540610790252686,0.3482726216316223,0.07297932356595993
1783170075907803100,7.37380322265625,-0.4314349293708801,-0.2792786657810211,-0.4339570999145508
1783170075917873200,7.383873046875,-0.23578405380249023,-0.85996413230896,-0.5694955587387085
1783170075927942400,7.3939423828125,-0.13982903957366943,-1.2059295177459717,-0.3827717900276184
1783170075938012200,7.40401220703125,-0.07771063596010208,-1.3474137783050537,-0.0494583323597908
1783170075948082200,7.414082275390625,-0.007833818905055523,-1.3975781202316284,0.26064279675483704
1783170075958151200,7.424151123046875,0.04886862635612488,-1.4618948698043823,0.49380621314048767
1783170075968221200,7.43422119140625,0.005495586432516575,-1.397596836090088,0.6440037488937378
1783170075978290200,7.444290283203125,-0.10616787523031235,-1.2006351947784424,0.7280037999153137
1783170075988360200,7.454360107421875,-0.2299121916294098,-0.9270462393760681,0.7257097363471985
1783170075998429200,7.46442919921875,-0.3308338522911072,-0.6666629910469055,0.61962890625
1783170076008499200,7.474499267578125,-0.38590696454048157,-0.4430866241455078,0.3813822269439697
1783170076018569200,7.4845693359375,-0.4583752155303955,-0.2879176735877991,0.10689517110586166
1783170076028638200,7.49463818359375,-0.5595971941947937,-0.09375166147947311,-0.09233804047107697
1783170076038708200,7.504708251953125,-0.6137694716453552,0.0870177149772644,-0.14472240209579468
1783170076048777200,7.514777099609375,-0.634345293045044,0.14164553582668304,-0.039632730185985565
1783170076058847200,7.52484716796875,-0.6524291038513184,0.17304712533950806,0.1586265116930008
1783170076068916000,7.534916015625,-0.6667081713676453,0.23181642591953278,0.2883312404155731
1783170076078986200,7.544986328125,-0.6260986924171448,0.3439227342605591,0.25260066986083984
1783170076089056300,7.55505615234375,-0.5815647840499878,0.4501487612724304,0.13318133354187012
1783170076099125500,7.56512548828125,-0.5609562397003174,0.5368050932884216,-0.016202088445425034
1783170076109195500,7.575195556640625,-0.5619626641273499,0.6138921976089478,-0.18603986501693726
1783170076119264300,7.58526416015625,-0.5460401177406311,0.6901585459709167,-0.33983418345451355
1783170076129334500,7.59533447265625,-0.5019434690475464,0.7385956048965454,-0.4252611994743347
1783170076139403300,7.6054033203125,-0.44690629839897156,0.7288010716438293,-0.499772846698761
1783170076149473500,7.6154736328125,-0.38529539108276367,0.667041540145874,-0.5454441905021667
1783170076159543600,7.62554345703125,-0.33107200264930725,0.49329185485839844,-0.5578151941299438
1783170076169612300,7.6356123046875,-0.23739001154899597,0.2975905239582062,-0.5029426217079163
1783170076179682600,7.6456826171875,-0.15564806759357452,0.20341141521930695,-0.38872793316841125
1783170076189751300,7.655751220703125,-0.08380423486232758,0.183085635304451,-0.30314671993255615
1783170076199821600,7.665821533203125,-0.005541050806641579,0.17282874882221222,-0.2799628674983978
1783170076209890300,7.675890380859375,0.054646920412778854,0.18269948661327362,-0.27416568994522095
1783170076219960600,7.685960693359375,0.06629077345132828,0.24133774638175964,-0.27447763085365295
1783170076230030600,7.696030517578125,0.04554395377635956,0.3105255961418152,-0.28910985589027405
1783170076240099300,7.706099365234375,-0.023344602435827255,0.33049213886260986,-0.26754260063171387
1783170076250169600,7.716169677734375,-0.10416461527347565,0.2882155179977417,-0.21026946604251862
1783170076260238300,7.72623828125,-0.18687719106674194,0.1953497678041458,-0.10814473032951355
1783170076270308600,7.73630859375,-0.2963256537914276,0.06596329808235168,-0.0010321256704628468
1783170076280377300,7.74637744140625,-0.40248069167137146,-0.04418611526489258,0.09543683379888535
1783170076290447400,7.756447265625,-0.4698008596897125,-0.07982054352760315,0.10838432610034943
1783170076300517600,7.766517578125,-0.4911794066429138,0.00802155863493681,0.04504484310746193
1783170076310586400,7.77658642578125,-0.5392404198646545,0.1813560575246811,-0.04868564382195473
1783170076320656600,7.78665673828125,-0.5980920195579529,0.33063212037086487,-0.21275942027568817
1783170076330725400,7.796725341796875,-0.6401166915893555,0.42988279461860657,-0.35217857360839844
1783170076340795400,7.80679541015625,-0.6441776156425476,0.6065552830696106,-0.36899322271347046
1783170076350864400,7.816864501953125,-0.6026623845100403,0.8584303855895996,-0.3255227208137512
1783170076360934400,7.826934326171875,-0.5212578177452087,0.9847056269645691,-0.24996280670166016
1783170076371004400,7.83700439453125,-0.3755357563495636,0.9206600785255432,-0.2382025569677353
1783170076381073400,7.847073486328125,-0.2788518965244293,0.6833212971687317,-0.4219702184200287
1783170076391143700,7.857143798828125,-0.30963748693466187,0.43979305028915405,-0.6664755940437317
1783170076401212400,7.86721240234375,-0.3785579800605774,0.16385802626609802,-0.9044232368469238
1783170076411282400,7.877282470703125,-0.45398348569869995,-0.23935654759407043,-1.1635767221450806
1783170076421351400,7.887351318359375,-0.5636777877807617,-0.8372227549552917,-1.3686914443969727
1783170076431421400,7.89742138671875,-0.7214961647987366,-1.2865116596221924,-1.4780848026275635
1783170076441491500,7.907491455078125,-0.904522180557251,-1.4246493577957153,-1.3836373090744019
1783170076451560400,7.917560546875,-1.1034632921218872,-1.2912931442260742,-0.9483348727226257
1783170076461630500,7.92763037109375,-1.2898460626602173,-1.0228266716003418,-0.3419020473957062
1783170076471699500,7.937699462890625,-1.3864251375198364,-0.6696452498435974,0.1598377674818039
1783170076481769500,7.94776953125,-1.3445615768432617,-0.22741854190826416,0.4986613988876343
1783170076491838500,7.95783837890625,-1.214161992073059,0.14260238409042358,0.7507418394088745
1783170076501908500,7.967908447265625,-1.0371954441070557,0.320913165807724,0.8947005867958069
1783170076511978500,7.977978515625,-0.8603734970092773,0.3140525817871094,0.8671544790267944
1783170076522047500,7.988047607421875,-0.7253013849258423,0.17752403020858765,0.704084038734436
1783170076532117200,7.9981171875,-0.5903627872467041,-0.0027370844036340714,0.5318976640701294
1783170076542186500,8.0081865234375,-0.5122217535972595,-0.10535479336977005,0.4501667022705078
1783170076552256300,8.01825634765625,-0.4970340132713318,-0.12421850115060806,0.4862477481365204
1783170076562325500,8.028325439453125,-0.4994818866252899,-0.11119737476110458,0.5855048298835754
1783170076572395500,8.0383955078125,-0.48348531126976013,-0.12362688034772873,0.7400866746902466
1783170076582465500,8.048465576171875,-0.4737693965435028,-0.14447996020317078,0.9365704655647278
1783170076592534500,8.058534423828124,-0.4946978688240051,-0.11902705579996109,1.1125068664550781
1783170076602604300,8.068604248046874,-0.5150690078735352,-0.023441974073648453,1.1815940141677856
1783170076612673500,8.078673583984376,-0.500140905380249,-0.020437926054000854,1.0512696504592896
1783170076622743300,8.088743408203126,-0.47031137347221375,-0.0832604169845581,0.8306936621665955
1783170076632812500,8.0988125,-0.45469486713409424,-0.17679809033870697,0.6592265963554382
1783170076642882300,8.10888232421875,-0.44614437222480774,-0.3296242654323578,0.562554657459259
1783170076652952300,8.118952392578125,-0.4289563298225403,-0.489468514919281,0.5270875096321106
1783170076663021600,8.129021484375,-0.42828765511512756,-0.6146461367607117,0.5577995181083679
1783170076673091300,8.13909130859375,-0.4778813123703003,-0.658032238483429,0.6083316802978516
1783170076683160600,8.14916064453125,-0.5633248686790466,-0.6777440309524536,0.6501528024673462
1783170076693230300,8.159230224609376,-0.663490355014801,-0.6538064479827881,0.6157218813896179
1783170076703299600,8.169299560546875,-0.7530583143234253,-0.5807417035102844,0.46431484818458557
1783170076713369300,8.179369384765625,-0.7963682413101196,-0.4542072117328644,0.19013841450214386
1783170076723439400,8.189439453125,-0.7995789051055908,-0.29925596714019775,-0.11484120786190033
1783170076733508400,8.19950830078125,-0.7866839170455933,-0.049440011382102966,-0.3925686776638031
1783170076743578400,8.209578369140624,-0.7623488306999207,0.20954814553260803,-0.5597665309906006
1783170076753647600,8.219647705078126,-0.7322966456413269,0.39664426445961,-0.564367949962616
1783170076763717400,8.22971728515625,-0.6498419046401978,0.4512699544429779,-0.4454052746295929
1783170076773786600,8.23978662109375,-0.5705521702766418,0.3806237578392029,-0.2943667471408844
1783170076783856400,8.2498564453125,-0.5049770474433899,0.2550725042819977,-0.1359286904335022
1783170076793926400,8.259926513671875,-0.4338914155960083,0.08590210974216461,-0.020111285150051117
1783170076803995400,8.269995361328125,-0.374050498008728,-0.09961888939142227,-0.010141770355403423
1783170076814065400,8.2800654296875,-0.31544551253318787,-0.2174810767173767,-0.08488525450229645
1783170076824134400,8.290134521484376,-0.274625301361084,-0.2684963047504425,-0.1921427845954895
1783170076834204400,8.300204345703126,-0.25428807735443115,-0.2855410873889923,-0.2811621427536011
1783170076844273700,8.310273681640625,-0.27178138494491577,-0.3106207549571991,-0.31921857595443726
1783170076854343400,8.320343505859375,-0.29930171370506287,-0.3433437943458557,-0.2707200050354004
1783170076864413400,8.330413330078125,-0.33174562454223633,-0.33196982741355896,-0.1350335329771042
1783170076874482400,8.340482421875,-0.3650133013725281,-0.3238554298877716,0.016308587044477463
1783170076884552400,8.350552490234374,-0.3855893313884735,-0.3369636833667755,0.10534878075122833
1783170076894621400,8.360621337890626,-0.40228548645973206,-0.35086777806282043,0.12559546530246735
1783170076904691500,8.37069140625,-0.427190899848938,-0.3575707972049713,0.1057511568069458
1783170076914760400,8.380760498046875,-0.4683108925819397,-0.391470730304718,0.028026796877384186
1783170076924830500,8.39083056640625,-0.5217913389205933,-0.4261990189552307,-0.08395179361104965
1783170076934900500,8.400900390625,-0.5817023515701294,-0.45835188031196594,-0.21785473823547363
1783170076944969500,8.410969482421875,-0.6054834723472595,-0.5145763754844666,-0.4254796802997589
1783170076955039500,8.42103955078125,-0.5785322785377502,-0.5568370223045349,-0.619023859500885
1783170076965108500,8.4311083984375,-0.4932219088077545,-0.46125951409339905,-0.6508060693740845
1783170076975178500,8.441178466796876,-0.366170734167099,-0.1312621831893921,-0.5395677089691162
1783170076985247500,8.45124755859375,-0.18127880990505219,0.2168421447277069,-0.2895145118236542
1783170076995317500,8.4613173828125,-0.0020725668873637915,0.43567410111427307,0.057233866304159164
1783170077005387500,8.471387451171875,0.06887390464544296,0.5748660564422607,0.23093411326408386
1783170077015456500,8.48145654296875,0.005848863627761602,0.5728034377098083,0.09301300346851349
1783170077025526500,8.491526611328124,-0.11455342918634415,0.38299769163131714,-0.2890374958515167
1783170077035595500,8.501595458984376,-0.19258297979831696,-0.05986815318465233,-0.7750518918037415
1783170077045665500,8.51166552734375,-0.25360214710235596,-0.5113237500190735,-1.0955322980880737
1783170077055734300,8.521734375,-0.3162146806716919,-0.6997133493423462,-1.25824773311615
1783170077065804500,8.531804443359375,-0.4066569209098816,-0.6436470746994019,-1.244281530380249
1783170077075874600,8.54187451171875,-0.5756605863571167,-0.3987733721733093,-0.9657787680625916
1783170077085943600,8.551943603515625,-0.7586812376976013,-0.11211244016885757,-0.5423879027366638
1783170077096014000,8.56201416015625,-0.920985996723175,0.11836950480937958,-0.18702660501003265
1783170077106082800,8.572082763671874,-0.9093400835990906,0.23230990767478943,0.024060646072030067
1783170077116153000,8.582153076171876,-0.8171568512916565,0.2412264347076416,0.15882618725299835
1783170077126222000,8.59222216796875,-0.7290721535682678,0.20957118272781372,0.22716261446475983
1783170077136292000,8.6022919921875,-0.6145434975624084,0.18108174204826355,0.22302405536174774
1783170077146362000,8.612362060546875,-0.4754970967769623,0.10490535199642181,0.2022356539964676
1783170077156430800,8.622430908203125,-0.291301429271698,0.033584825694561005,0.12749668955802917
1783170077166501000,8.632501220703125,-0.03733931481838226,0.04526399448513985,0.05223505571484566
1783170077176569900,8.64256982421875,0.24624605476856232,0.10754388570785522,0.025016482919454575
1783170077186640100,8.65264013671875,0.5133207440376282,0.1483064889907837,0.05501130223274231
1783170077196708900,8.662708984375,0.7561853528022766,0.19939790666103363,0.14501576125621796
1783170077206779000,8.67277880859375,0.9018711447715759,0.24460798501968384,0.21553991734981537
1783170077216849200,8.68284912109375,0.9109967350959778,0.2389271855354309,0.19713374972343445
1783170077226918000,8.69291796875,0.826366662979126,0.176864355802536,0.15766160190105438
1783170077236988200,8.70298828125,0.6717067956924438,0.14905084669589996,0.21204015612602234
1783170077247057000,8.713056884765624,0.49256187677383423,0.1400287002325058,0.3309500813484192
1783170077257127200,8.723127197265624,0.3047911822795868,0.08001303672790527,0.4467938542366028
1783170077267196000,8.73319580078125,0.10917606949806213,0.027756772935390472,0.5427718162536621
1783170077277266000,8.743265869140625,-0.06445111334323883,0.009503200650215149,0.6319062113761902
1783170077287336200,8.753336181640625,-0.16973386704921722,0.025293748825788498,0.6614617705345154
1783170077297405000,8.763405029296875,-0.22772394120693207,0.054570674896240234,0.6295304894447327
1783170077307475200,8.77347509765625,-0.2483966201543808,0.06008661910891533,0.544005274772644
1783170077317544000,8.7835439453125,-0.20967665314674377,0.08604392409324646,0.3965625464916229
1783170077327614000,8.793614013671874,-0.1272556036710739,0.18686732649803162,0.2709100544452667
1783170077337683000,8.803682861328125,-0.018783725798130035,0.37498530745506287,0.16752934455871582
1783170077347753000,8.8137529296875,0.06618678569793701,0.5095119476318359,0.09792085736989975
1783170077357822000,8.823822021484375,0.10469210147857666,0.5499776005744934,0.06655894219875336
1783170077367892000,8.83389208984375,0.10516472905874252,0.5112447738647461,0.031258873641490936
1783170077377962200,8.843962158203125,0.09696725010871887,0.4157523214817047,-0.06545116007328033
1783170077388031000,8.854031005859374,0.07962609827518463,0.2752624452114105,-0.19292131066322327
1783170077398101000,8.86410107421875,0.06699951738119125,0.14343462884426117,-0.2809302508831024
1783170077408170000,8.874169921875,0.06331552565097809,0.07955685257911682,-0.3493685722351074
1783170077418240000,8.884239990234375,0.07669844478368759,0.0709063708782196,-0.37269920110702515
1783170077428309000,8.89430908203125,0.13184085488319397,0.13405205309391022,-0.37361404299736023
1783170077438379000,8.90437890625,0.20253634452819824,0.17409293353557587,-0.34131041169166565
1783170077448449000,8.914448974609375,0.25385382771492004,0.17077969014644623,-0.2634876072406769
1783170077458518000,8.92451806640625,0.2792761027812958,0.1485833078622818,-0.11964520066976547
1783170077468588000,8.934588134765624,0.27029767632484436,0.09448052942752838,0.046166229993104935
1783170077478657000,8.944656982421876,0.22976571321487427,-0.03556375205516815,0.14706780016422272
1783170077488727000,8.95472705078125,0.14137300848960876,-0.1983426809310913,0.15208619832992554
1783170077498796000,8.964796142578125,0.028250452131032944,-0.36285626888275146,0.11061199009418488
1783170077508866000,8.974865966796875,-0.09066224843263626,-0.46038708090782166,0.049064263701438904
1783170077518935800,8.984935791015625,-0.2134220004081726,-0.488422691822052,-0.10681401193141937
1783170077529005000,8.995005126953124,-0.2638547420501709,-0.4850723147392273,-0.3948571979999542
1783170077539075000,9.005074951171874,-0.2555174231529236,-0.4507090151309967,-0.7376832365989685
1783170077549144000,9.01514404296875,-0.2057155817747116,-0.452258437871933,-1.0362746715545654
1783170077559214000,9.025214111328125,-0.1106356680393219,-0.47493258118629456,-1.1522347927093506
1783170077569283000,9.035282958984375,0.039853379130363464,-0.37273791432380676,-0.9080330729484558
1783170077579353000,9.04535302734375,0.1340416669845581,-0.15696728229522705,-0.3206883370876312
1783170077589422000,9.055422119140625,0.18769025802612305,0.2108209878206253,0.2736029028892517
1783170077599492000,9.0654921875,0.20397283136844635,0.5385253429412842,0.5998896956443787
1783170077609561900,9.075561767578124,0.21709808707237244,0.7079055905342102,0.5884698629379272
1783170077619631000,9.085631103515626,0.1716640144586563,0.666304349899292,0.24957941472530365
1783170077629701000,9.095701171875,0.1874326467514038,0.39092618227005005,-0.35457247495651245
1783170077639770000,9.10577001953125,0.2978803515434265,0.09029923379421234,-1.0135914087295532
1783170077649840000,9.115840087890625,0.44511544704437256,-0.0117501737549901,-1.405737280845642
1783170077659909000,9.1259091796875,0.5474404692649841,0.15386781096458435,-1.4238121509552002
1783170077669979100,9.135979248046874,0.5706112384796143,0.3350309431552887,-1.1031763553619385
1783170077680049000,9.146048828125,0.4854380190372467,0.34040600061416626,-0.6812556982040405
1783170077690118100,9.1561181640625,0.31030455231666565,0.13608403503894806,-0.3963640332221985
1783170077700188000,9.16618798828125,0.11579284816980362,-0.0789363831281662,-0.26774266362190247
1783170077710257200,9.176257080078125,-0.08431229740381241,-0.12976935505867004,-0.22432002425193787
1783170077720327200,9.1863271484375,-0.25639432668685913,-0.01364779844880104,-0.2230835109949112
1783170077730396200,9.196396240234375,-0.33622342348098755,0.20177702605724335,-0.2277909368276596
1783170077740466200,9.206466064453124,-0.34052789211273193,0.4883057177066803,-0.24832125008106232
1783170077750536000,9.216535888671874,-0.2679841220378876,0.653157651424408,-0.322750985622406
1783170077760605200,9.226605224609376,-0.1284744292497635,0.6476744413375854,-0.4108792543411255
1783170077770675000,9.236675048828126,0.04004158079624176,0.5259498357772827,-0.45905712246894836
1783170077780744200,9.246744140625,0.20926523208618164,0.39004388451576233,-0.45530232787132263
1783170077790814000,9.25681396484375,0.33654192090034485,0.3671468198299408,-0.18477663397789001
1783170077800883000,9.266883056640625,0.4416462481021881,0.38538333773612976,-0.10365621000528336
1783170077810953200,9.276953125,0.4753856956958771,0.19882984459400177,-0.2791233956813812
1783170077821023000,9.28702294921875,0.4544428586959839,-0.06790650635957718,-0.4970242977142334
1783170077831092200,9.29709228515625,0.40116989612579346,-0.22637858986854553,-0.5185733437538147
1783170077841162000,9.307161865234375,0.3061027526855469,-0.2510223984718323,-0.3557034730911255
1783170077851231000,9.31723095703125,0.18948878347873688,-0.24335531890392303,-0.01903349906206131
1783170077861301000,9.327301025390625,0.08037055283784866,-0.14283348619937897,0.4377119541168213
1783170077871370000,9.337369873046875,0.008749258704483509,-0.018452005460858345,0.7425635457038879
1783170077881440000,9.34743994140625,-0.049253325909376144,-0.06274889409542084,0.8713694214820862
