time,seconds_elapsed,z,y,x
1783170514372503600,0.073503662109375,-0.055989598247408866,0.09336495078727602,0.5052689047515392
1783170514382572300,0.083572265625,0.17125614584982393,0.1180102933526039,0.5590775787632912
1783170514392642600,0.093642578125,0.42701019155085085,0.014589374105632304,0.5406224691402167
1783170514402711300,0.103711181640625,0.44870296792089936,-0.13151084930822252,0.5449819795239716
1783170514412781600,0.113781494140625,0.29410218879580496,-0.20737433793544768,0.5327769432716072
1783170514422850300,0.123850341796875,-0.0008218377768993377,-0.2240126073949039,0.5014006119508296
1783170514432920600,0.133920654296875,-0.32770401414632794,-0.1985328598320484,0.5661327579718083
1783170514442989300,0.1439892578125,-0.4856669631808996,-0.12615794397294522,0.6505720595035701
1783170514453059300,0.154059326171875,-0.42928047457039353,-0.13138561549335717,0.6807738671522587
1783170514463128600,0.164128662109375,-0.273023744931817,-0.18780819833055137,0.6837276023913175
1783170514473198300,0.1741982421875,-0.2243482690900564,-0.1676123825199902,0.6720591572336853
1783170514483267600,0.184267578125,-0.21239771905541419,-0.16085253299623728,0.7251468234945089
1783170514493337300,0.19433740234375,-0.2253027933359146,-0.14775383583977816,0.8063788534175604
1783170514503406600,0.204406494140625,-0.14358078793883322,-0.1294922029621899,0.8490841688085347
1783170514513476400,0.214476318359375,-0.019067104041576386,-0.1386841019384563,0.8668197319854051
1783170514523545600,0.224545654296875,0.007709259203076363,-0.24471608046665785,0.7444019243888557
1783170514533615400,0.234615478515625,-0.01606733770370483,-0.3441908924363553,0.6290314780205488
1783170514543684600,0.2446845703125,-0.020202830073237418,-0.3543830544963479,0.5816151353944092
1783170514553753300,0.25475341796875,-0.07720657379925251,-0.35144334778264164,0.5811687068011612
1783170514563823400,0.2648232421875,-0.19716332504451273,-0.2563103644095361,0.5749269628673792
1783170514573892400,0.274892333984375,-0.2375415126621723,-0.1591124113306403,0.6190059777643531
1783170514583962400,0.28496240234375,-0.20139058735072612,-0.061167877668142315,0.60081404912211
1783170514594031600,0.295031494140625,-0.04428980810344219,-0.05338496870696544,0.5467286039955914
1783170514604101400,0.305101318359375,0.2443909401655197,-0.10911226275637745,0.48431043400540946
1783170514614170600,0.315170654296875,0.46284605956375596,-0.18127528943046928,0.41731838022843
1783170514624240400,0.325240478515625,0.5599257930904626,-0.2399009352698922,0.3152252755191177
1783170514634309600,0.3353095703125,0.6004273148268461,-0.28942133750319476,0.28089688945971425
1783170514644379400,0.34537939453125,0.5472685560911894,-0.3881444543227553,0.20913842499852178
1783170514654448400,0.355448486328125,0.44082069023847575,-0.43486411992162466,0.1343758833505213
1783170514664518400,0.365518310546875,0.4544412193119526,-0.4783770984336734,0.10023768610097468
1783170514674587400,0.37558740234375,0.5622878460466861,-0.5106698870122433,0.05732888402715325
1783170514684657700,0.38565771484375,0.6783750623822212,-0.5248772760629654,0.031090427051484584
1783170514694726400,0.395726318359375,0.7750771947681904,-0.5744605143994093,0.05271086883768439
1783170514704796700,0.405796630859375,0.8573866446644067,-0.5993930033430457,0.05847746954038739
1783170514714865400,0.415865478515625,0.9243944805324077,-0.6593026976436376,0.04025872595645487
1783170514724934700,0.4259345703125,0.9198486537963151,-0.7424946294628083,0.012112827924266456
1783170514735004400,0.43600439453125,0.7939081519663334,-0.8588545252598822,-0.02362871286869049
1783170514745073700,0.44607373046875,0.6895137115120887,-0.9246158681981265,-0.12885500103719533
1783170514755143400,0.456143310546875,0.6655851389139891,-0.9513670970015228,-0.13971490629091857
1783170514765212400,0.46621240234375,0.6540004995822906,-0.9831859844580292,-0.15928806015849112
1783170514775282400,0.476282470703125,0.6705027215719223,-1.0439021728359161,-0.21264416809715328
1783170514785351400,0.486351318359375,0.6233586930811404,-1.0370340406320988,-0.17878646828942
1783170514795421400,0.49642138671875,0.43024785829782486,-1.0440855665788054,-0.12289152605552225
1783170514805490400,0.506490478515625,0.18852642960250376,-1.0200793986998498,-0.14335154576022177
1783170514815560700,0.516560791015625,0.07620996397733688,-0.9912452261425554,-0.09746464119106531
1783170514825629400,0.52662939453125,0.09375614206194877,-1.0106899313248694,0.004696158459596336
1783170514835699500,0.536699462890625,0.04781389057636261,-1.0409414233341812,0.03148198365233838
1783170514845768400,0.5467685546875,-0.0431651879876852,-1.0751613805830478,0.006921579424105585
1783170514855838500,0.55683837890625,-0.06553776331543922,-1.0898650287181137,0.0335984643496573
1783170514865907500,0.566907470703125,-0.08155132500529289,-1.113756338045746,0.07119056491274386
1783170514875977500,0.5769775390625,-0.09151859226822853,-1.0851304014116525,0.07945592362862079
1783170514886046500,0.58704638671875,-0.08561959735751151,-1.0448232332035898,0.09699311468917876
1783170514896115500,0.597115478515625,-0.10071779776811599,-1.0166970627851784,0.1630508467581123
1783170514906185500,0.607185546875,-0.13744798427224159,-1.0034883293829857,0.2596482401279732
1783170514916254500,0.61725439453125,-0.21106267105937002,-0.9486097611173987,0.22392116625178604
1783170514926324500,0.627324462890625,-0.2504185298919678,-0.9101055506780743,0.10583970735911279
1783170514936393500,0.6373935546875,-0.4242804743260145,-0.9478926988892257,0.13563061438566074
1783170514946463200,0.647463134765625,-0.6444429821640253,-0.8686056655541062,0.1501127104582265
1783170514956532500,0.657532470703125,-0.7722808420479297,-0.7359303025111555,0.14955107625378294
1783170514966602500,0.6676025390625,-0.8804922104418277,-0.6413654744148254,0.1859739138417877
1783170514976671500,0.67767138671875,-0.8974784165561198,-0.4923186761550605,0.17377932591820136
1783170514986741500,0.687741455078125,-0.9628986909717321,-0.33828736748099325,0.11853113888893275
1783170514996810500,0.697810546875,-0.9869862535238265,-0.23117226989120243,0.025976993027888237
1783170515006880500,0.707880615234375,-0.8554805187821388,-0.11156301690936088,-0.055954161607846616
1783170515016949500,0.717949462890625,-0.6073375326067209,-0.04392112092152237,-0.13871486240290104
1783170515027019500,0.72801953125,-0.4500900383651256,0.033547757075726985,-0.1944069938073866
1783170515037088500,0.738088623046875,-0.4531365664541721,0.1677203729391098,-0.13264321433901785
1783170515047157500,0.748157470703125,-0.529413750448823,0.3003101035252213,-0.035129564640764145
1783170515057227300,0.758227294921875,-0.5296013819754123,0.4712659512542188,0.033967882183939216
1783170515067296800,0.768296875,-0.4959364282608032,0.591651741566509,0.04807290683872997
1783170515077366800,0.77836669921875,-0.5399205314159393,0.6176126967750489,-0.012621215837821364
1783170515087435800,0.788435791015625,-0.526567713367939,0.6157552323400974,-0.14226714805699883
1783170515097505800,0.798505859375,-0.34531916581392286,0.6743292941227554,-0.28337339910846204
1783170515107574800,0.80857470703125,-0.06235094997286796,0.6990228597439825,-0.3936479471098631
1783170515117644800,0.818644775390625,0.04999591079056263,0.6952683295160531,-0.5001078321939334
1783170515127713800,0.8287138671875,0.05249065021574497,0.7708462792001665,-0.6142203509230166
1783170515137783800,0.83878369140625,0.03329261327087879,0.8348292142890393,-0.6918369668278843
1783170515147852500,0.8488525390625,-0.02434182957410812,0.9321700829699635,-0.7496113296002149
1783170515157922800,0.8589228515625,-0.023786533778905865,0.982192297245562,-0.8012794113866984
1783170515167991600,0.868991455078125,0.06488485236465931,0.9761357736855745,-0.842043310386315
1783170515178061800,0.879061767578125,0.21331424937844276,0.9014651481047272,-0.8741697294220327
1783170515188130800,0.889130859375,0.328929172027111,0.7974838184960186,-0.8737732774503528
1783170515198200600,0.89920068359375,0.3971446301192045,0.736755647419393,-0.8645752409942448
1783170515208269800,0.909269775390625,0.4795727379590273,0.7207233810290694,-0.8615117617703973
1783170515218338800,0.9193388671875,0.5911538750469685,0.7062301607742906,-0.7641589103907346
1783170515228408800,0.929408935546875,0.6961644015729427,0.658765668157488,-0.6847468624364584
1783170515238477800,0.939477783203125,0.7364706929981708,0.622234219095856,-0.6123079414304345
1783170515248547800,0.9495478515625,0.7090180379271507,0.5736034591786563,-0.6217281692698597
1783170515258616600,0.959616455078125,0.6405336997658014,0.5221984122425317,-0.6457384288020431
1783170515268686800,0.969686767578125,0.5531470927357673,0.4923341659851372,-0.7162037847127765
1783170515278755600,0.979755615234375,0.40862464003264903,0.4357468941055238,-0.8165766415007412
1783170515288825900,0.989825927734375,0.2657663211494684,0.4083174737796187,-0.8470940909698605
1783170515298894600,0.99989453125,0.12997253382503984,0.38597909298241134,-0.8838850677505135
1783170515308964600,1.009964599609375,-0.0365425549775362,0.38919410950616,-0.8541219437800347
1783170515319033900,1.020033935546875,-0.2832482018262148,0.45564489601328967,-0.7511509602576494
1783170515329103600,1.030103515625,-0.4880763624101877,0.5333353078067302,-0.7122116463366895
1783170515339172900,1.0401728515625,-0.5557072986125946,0.574225098208338,-0.6942202817678451
1783170515349242600,1.05024267578125,-0.552552633973956,0.5364719983972609,-0.660330433256179
1783170515359312000,1.060311767578125,-0.5297317303568124,0.4780791384004056,-0.695899028635025
1783170515369380600,1.070380615234375,-0.48049335993528364,0.400971641061455,-0.7070907961916179
1783170515379451000,1.080450927734375,-0.36502222967147824,0.32095453988611694,-0.7070774252533912
1783170515389519600,1.09051953125,-0.23049393223822115,0.21071181179508566,-0.649338206859678
1783170515399590000,1.10058984375,-0.050506198400259016,0.0902127703666687,-0.6344974152762443
1783170515409658600,1.11065869140625,0.1334340724557638,-0.005158990198373794,-0.6618424452543258
1783170515419728600,1.120728759765625,0.2844295205652714,-0.10587021209523081,-0.7010265277165919
1783170515429797600,1.130797607421875,0.41760874147713184,-0.179577691732347,-0.7481364347420633
1783170515439867600,1.14086767578125,0.5729156230449676,-0.24509075899794697,-0.7582977632723749
1783170515449937000,1.15093701171875,0.7199491817861795,-0.3062804101064801,-0.7578925434723496
1783170515460006700,1.161006591796875,0.8394225334286689,-0.383738036057353,-0.7295034843340515
1783170515470076000,1.171075927734375,0.8524018419891596,-0.44956075379401444,-0.701189097867161
1783170515480145700,1.181145751953125,0.712851917001605,-0.5015364402249455,-0.6737358582742512
1783170515490215000,1.19121484375,0.38719548303484913,-0.5004657422535121,-0.6386549733471125
1783170515500283600,1.20128369140625,0.11329729335606098,-0.4648553535595536,-0.5917278024774044
1783170515510354000,1.21135400390625,0.012514029136300087,-0.4047137501992285,-0.5011523362781852
1783170515520422700,1.221422607421875,0.15421148754656314,-0.4138492428131401,-0.4446424770163372
1783170515530492700,1.23149267578125,0.28948797299861906,-0.5446902300357819,-0.4502705460311845
1783170515540561700,1.241561767578125,0.30062545308470723,-0.6939410264350473,-0.49281252408660947
1783170515550631700,1.251631591796875,0.22756723113656044,-0.7621664213992655,-0.4815449513474479
1783170515560700700,1.26170068359375,0.10368775348961352,-0.8078226955503225,-0.4575180694740265
1783170515570770700,1.271770751953125,0.03984042747914791,-0.7683242133766413,-0.41950931440144773
1783170515580839700,1.281839599609375,0.039892449927330015,-0.7625058824867009,-0.40199572341218587
1783170515590909700,1.29190966796875,0.07825462154746055,-0.7754929359622299,-0.3785943895585835
1783170515600979000,1.30197900390625,0.19756722967028617,-0.7751499677434563,-0.34861608846746384
1783170515611048700,1.312048583984375,0.2987228343337774,-0.7917574036732316,-0.2699657638669945
1783170515621118000,1.322117919921875,0.24932664300203322,-0.8436062488541006,-0.2819540338298306
1783170515631187700,1.332187744140625,0.17702537690103054,-0.8705404330089688,-0.2845590834953822
1783170515641256700,1.342256591796875,0.17496610628366469,-0.8718078225962818,-0.24292963544130325
1783170515651326700,1.35232666015625,0.24238427651822567,-0.8788653398923575,-0.1885865988245234
1783170515661395700,1.362395751953125,0.3386865959316492,-0.8870638439171016,-0.16631934703476725
1783170515671464700,1.372464599609375,0.35868718143105505,-0.864548645248264,-0.20331317117745057
1783170515681534700,1.38253466796875,0.2833984239518642,-0.9121002316266298,-0.25308782216645775
1783170515691603700,1.392603759765625,0.14106032955050468,-0.9597763211674988,-0.32191355764400215
1783170515701673700,1.402673828125,0.04562544062137604,-0.9615846857637167,-0.3966393109455704
1783170515711742700,1.41274267578125,0.009212064981460572,-0.9552708264417946,-0.4747343945497647
1783170515721812700,1.422812744140625,-0.01115618478655815,-0.9133607530817389,-0.5062275571832433
1783170515731882000,1.432882080078125,-0.025490999609231946,-0.8380936229124665,-0.49050106880646194
1783170515741951700,1.44295166015625,-0.02199263609945774,-0.732483084666729,-0.3897188640326261
1783170515752020700,1.453020751953125,-0.20107494553029537,-0.6943045990504324,-0.4122399079203605
1783170515762090800,1.4630908203125,-0.31655425910055635,-0.6128017893619835,-0.3102417149528861
1783170515772159700,1.47315966796875,-0.3260071471005678,-0.5505003776192665,-0.10486124511524103
1783170515782229800,1.483229736328125,-0.15668226157426834,-0.5614717073582113,0.11850295397406443
1783170515792298800,1.493298828125,0.1220844109237194,-0.572321748805046,0.3162365349208936
1783170515802367700,1.50336767578125,0.10663608190119266,-0.6388182741500437,0.3709092784160748
1783170515812437800,1.513437744140625,-0.2791875282585621,-0.7364175015062093,0.36023934277649966
1783170515822506800,1.5235068359375,-0.8812778078615665,-0.7649127974979579,0.2597640119947493
1783170515832576800,1.53357666015625,-1.4883359390050173,-0.6935301075465977,0.216176324278675
1783170515842645800,1.543645751953125,-1.8109820852398872,-0.5310064264677464,0.30361681692041453
1783170515852715800,1.5537158203125,-2.080054462197423,-0.24520035685226318,0.45405426582098
1783170515862784800,1.56378466796875,-2.2200258274674414,0.06729074446260928,0.4848214522674679
1783170515872854800,1.573854736328125,-2.2964777835071084,0.24593130147531628,0.4472537920258939
1783170515882923800,1.583923828125,-2.288776123088598,0.3859408067986369,0.32806934032738205
1783170515892993800,1.593993896484375,-2.034305687457323,0.4873436642214656,0.2153631629985757
1783170515903062800,1.604062744140625,-1.6383862152189015,0.5326762593761086,0.14402522550439462
1783170515913132500,1.614132568359375,-1.2688684276938438,0.5556964849576354,0.13773808065946214
1783170515923201800,1.624201904296875,-1.0062292986541985,0.6705290250569581,0.1372473197341431
1783170515933271600,1.634271484375,-0.6016214930474758,0.5931102698117494,-0.10832596208374015
1783170515943340800,1.6443408203125,-0.2650041046053171,0.3799848210036754,0.07286480913474223
1783170515953409800,1.654409912109375,0.1726005461961031,0.2907673452846706,-0.02078292238297872
1783170515963479800,1.664479736328125,0.5927420210212468,0.35123555025085806,-0.002837378850392997
1783170515973548500,1.674548583984375,0.9010311406016349,0.27888299235403535,0.08257210115408524
1783170515983618800,1.684618896484375,1.1376251432806253,0.314322554525733,0.09437033757069148
1783170515993687800,1.694687744140625,1.268890055003762,0.3933122123494744,0.18763404734004288
1783170516003757800,1.7047578125,1.285070789954066,0.4668475502900779,0.264951753363572
1783170516013826800,1.714826904296875,1.1701157925188541,0.5357466067321598,0.32318745003733784
1783170516023896600,1.724896484375,0.9728554368406533,0.5323899897806346,0.2811888216109946
1783170516033965800,1.7349658203125,0.813489635270834,0.49680079000517724,0.2422476079938933
1783170516044035600,1.74503564453125,0.757362089857459,0.42764629749730226,0.22965945417545736
1783170516054104800,1.755104736328125,0.797509975850582,0.3615066227659583,0.2380701761787757
1783170516064174600,1.765174560546875,0.8343956451773643,0.37191286596804857,0.36422099629119037
1783170516074243600,1.77524365234375,0.8445704177111387,0.3790726745948195,0.5185614439796656
1783170516084312600,1.7853125,0.8314297811090946,0.3797612413808703,0.6538043194230646
1783170516094382600,1.795382568359375,0.833126063632965,0.3827976864673197,0.8078601780164987
1783170516104451600,1.80545166015625,0.8521171798288821,0.37110739480406046,0.9632135290745645
1783170516114521600,1.815521484375,0.8602034556508064,0.29904169102460143,1.0638494207128881
1783170516124590600,1.825590576171875,0.7747539541631937,0.22443813933059573,1.1272986873164772
1783170516134660600,1.83566064453125,0.6045277358829975,0.1593492888264358,1.1384659049537031
1783170516144729600,1.8457294921875,0.3655442077189684,0.07336158880889415,1.1153444840200244
1783170516154799600,1.855799560546875,0.0043897593915462494,-0.007920709996670484,1.0711275219570844
1783170516164868600,1.86586865234375,-0.43967970350980756,-0.07249401219412684,1.0125710688963532
1783170516174938600,1.875938720703125,-0.8582932381153107,-0.034854894151538605,0.9289083046950399
1783170516185007600,1.886007568359375,-1.0043640893042087,0.06797185859456659,0.9687623223081231
1783170516195077600,1.89607763671875,-0.9916711964696645,0.16201383186057208,0.9857674523185938
1783170516205146600,1.906146728515625,-0.9551432545393704,0.18398761712908743,0.9171860104583204
1783170516215216600,1.916216552734375,-0.9368716847896575,0.13097586564868688,0.8199640919819474
1783170516225285600,1.92628564453125,-0.8771668654114008,0.015307313116639852,0.7457653216965496
1783170516235354600,1.936354736328125,-0.6425982310801744,-0.031347762813419104,0.7450353999868035
1783170516245424400,1.94642431640625,-0.34645313827991486,-0.011634469822794199,0.8013754191070794
1783170516255493600,1.95649365234375,-0.0015887304961681365,0.008765197996795177,0.8684507672533393
1783170516265563400,1.9665634765625,0.3309334975868463,0.017433073098957537,0.9350965648759156
1783170516275632600,1.976632568359375,0.5891431197464466,0.020014467894285917,0.9442379757739603
1783170516285702400,1.986702392578125,0.7368254977852106,0.01694528958201408,0.916155863692984
1783170516295771600,1.996771728515625,0.8190525300949811,-0.06475961854979395,0.9001771541208028
1783170516305841700,2.006841552734375,0.8641080618739128,-0.054055269183963535,0.8583682761128991
1783170516315910700,2.01691064453125,0.9307160847693681,-0.05879369588270783,0.8740156348388641
1783170516325980700,2.026980712890625,1.031118825238943,-0.06210019008219242,0.8514823890566825
1783170516336049700,2.037049560546875,1.0873036537975072,-0.09273030614554882,0.827788136671111
1783170516346119700,2.04711962890625,1.0441688609480857,-0.15506006719991564,0.7214969226848333
1783170516356188400,2.0571884765625,0.9863315890073776,-0.22755437165498732,0.6766674547467381
1783170516366257700,2.067257568359375,0.9219710527777671,-0.2711751944556832,0.6882106660895049
1783170516376327400,2.077327392578125,0.7140355738282204,-0.2663162101171911,0.661330257948488
1783170516386396700,2.087396728515625,0.4769207621455192,-0.27394875082224607,0.652538098879531
1783170516396466400,2.097466552734375,0.29721184524893757,-0.23713483155742288,0.6542234946832061
1783170516406535700,2.10753564453125,0.08749708166718483,-0.21139745597168802,0.6586569470860064
1783170516416605400,2.11760546875,-0.09244213685393333,-0.14490209967046974,0.607312617361173
1783170516426674700,2.1276748046875,-0.21050386813282965,-0.06671075261756777,0.6052822805773467
1783170516436744700,2.13774462890625,-0.22158464959561824,-0.06234744284152984,0.5439478872358798
1783170516446813700,2.147813720703125,-0.25886662476360794,-0.07580532869920134,0.4922780518837273
1783170516456883700,2.1578837890625,-0.4383744661301374,-0.10553893431425095,0.42943014870677143
1783170516466952400,2.167952392578125,-0.550025745844841,-0.08653656607195734,0.3860782425079495
1783170516477022700,2.178022705078125,-0.5718056159764527,-0.11223463256061077,0.3583574380200356
1783170516487091500,2.188091552734375,-0.51571138831079,-0.16983736509308217,0.38535321616902946
1783170516497160700,2.19816064453125,-0.4641372684180736,-0.17496596015319227,0.3969481576990336
1783170516507230500,2.20823046875,-0.3257178087651729,-0.16207053048387168,0.42093390384446827
1783170516517299700,2.2182998046875,-0.16499942354261873,-0.21154694744497538,0.3842945008963346
1783170516527369500,2.228369384765625,-0.04280278441607952,-0.2676376679793,0.34830979899726805
1783170516537438700,2.238438720703125,0.0860819541722536,-0.3463663367792964,0.26370723319519307
1783170516547508500,2.248508544921875,0.17219781061410902,-0.42344373124092816,0.21292419061493129
1783170516557577700,2.25857763671875,0.15392682538628577,-0.4354502492465079,0.205767742989026
1783170516567647700,2.268647705078125,0.11901508648097514,-0.3863809517815709,0.1985983628163114
1783170516577716500,2.278716552734375,0.12563888853490351,-0.34780732936784625,0.22768161476384846
1783170516587786800,2.288786865234375,0.09843699335455894,-0.35074133699312804,0.31389548822008073
1783170516597855500,2.29885546875,0.1412082135885954,-0.44059184991866346,0.4758656270693987
1783170516607925800,2.30892578125,0.3420996192455292,-0.5648606191441417,0.5631356219824403
1783170516617994500,2.318994384765625,0.31149113049209115,-0.5868542781569064,0.4232087534412741
1783170516628064500,2.329064453125,0.06769055743515491,-0.5916958729691804,0.2402286511206068
1783170516638133500,2.339133544921875,-0.21749358088970183,-0.6736421886414289,0.11620276900660247
1783170516648202800,2.34920263671875,-0.6468044505983591,-0.6944941302731633,0.08097500468837097
1783170516658272500,2.3592724609375,-1.1107716231465339,-0.5352031475052237,0.08781611188794486
1783170516668341800,2.369341796875,-1.520372999256849,-0.25195406889617444,0.08436794419544748
1783170516678411500,2.37941162109375,-1.8830057034432888,0.06603869857490062,0.08770050441795028
1783170516688480500,2.38948046875,-2.0861691456854343,0.379779507689923,0.13738433531834743
1783170516698550800,2.39955078125,-2.00409818072021,0.6367470208339393,0.17902625012835488
1783170516708619500,2.40961962890625,-1.7963596856474875,0.7896512251742184,0.21260653950050473
1783170516718689800,2.419689697265625,-1.3588386214762926,0.8735014747716486,0.20596149372914804
1783170516728758500,2.429758544921875,-0.8481564595043659,0.7585496922068298,0.18537428571451453
1783170516738828500,2.43982861328125,-0.44369186176061626,0.7015554469615221,0.15686450453968717
1783170516748897500,2.4498974609375,-0.21823300108015536,0.6975589246712625,0.04095507419016212
1783170516758967600,2.459967529296875,-0.07292436643540859,0.6956823171444236,-0.0372000690381974
1783170516769036500,2.47003662109375,0.007456745746731758,0.7413890063084662,-0.04411713668396696
1783170516779106600,2.4801064453125,0.10586275944113731,0.8113678208112716,-0.014411935179494321
1783170516789175600,2.490175537109375,0.33083179077804087,0.8353582065992057,0.000391666198708117
1783170516799244500,2.50024462890625,0.5589677617132663,0.8369616962730884,0.00594740062970668
1783170516809314600,2.510314453125,0.6841518922179937,0.8117122503347695,-0.03286949248798191
1783170516819383600,2.520383544921875,0.7132786179810762,0.7930642484880983,-0.11064274199297651
1783170516829453600,2.53045361328125,0.7722615528255701,0.7879422292992472,-0.1129862181128934
1783170516839522600,2.5405224609375,0.7728805615067481,0.7640674327149987,-0.16125470232265068
1783170516849592600,2.550592529296875,0.6735925042808055,0.7463898833356797,-0.26325119652338325
1783170516859661600,2.56066162109375,0.47203065201640126,0.7078522090181708,-0.3134796739608049
1783170516869731600,2.570731689453125,0.2099094093710184,0.7275047117322683,-0.3408804527141154
1783170516879800600,2.580800537109375,-0.09373977544903754,0.7748067072637379,-0.3440594480764121
1783170516889870600,2.59087060546875,-0.37076691080331803,0.8413641690157353,-0.2905407699871808
1783170516899939600,2.600939697265625,-0.5712000512987375,0.904155848493427,-0.1996104807346128
1783170516910008600,2.611008544921875,-0.684123250645399,0.9736009945109486,-0.09275489259753375
1783170516920078600,2.62107861328125,-0.7549737334161997,0.9948058412335813,-0.037599443619325754
1783170516930147600,2.631147705078125,-0.7462830619603396,0.9721166011720895,-0.03207319101113826
1783170516940217600,2.641217529296875,-0.611263181617856,0.9265803001388907,-0.003923895445466041
1783170516950286600,2.65128662109375,-0.37021746022701263,0.8218728482127189,-0.012256620309129357
1783170516960356400,2.6613564453125,-0.07875906393826007,0.7207686814755201,-0.04157744387220591
1783170516970425600,2.671425537109375,0.2042974147081375,0.6137718034379184,-0.03095540249496698
1783170516980495600,2.68149560546875,0.4313566963225603,0.49557563212439415,-0.05526508336514234
1783170516990564600,2.691564697265625,0.5313637154728174,0.36253669646605846,-0.10189389234278351
1783170517000634600,2.701634521484375,0.5776964275807142,0.24254224355891346,-0.09967267262935638
1783170517010703600,2.71170361328125,0.6504355005770921,0.18943726083710788,-0.10079637942966073
1783170517020773600,2.721773681640625,0.7430524094760418,0.1666875227600336,-0.08849259551055728
1783170517030842600,2.731842529296875,0.7759124765485524,0.11487506406679748,-0.06872194630950688
1783170517040912600,2.74191259765625,0.7929314158886671,0.05836304938048124,-0.13323734430726616
1783170517050981600,2.751981689453125,0.8037035697937012,-0.060803574400395154,-0.21941114148143678
1783170517061051600,2.7620517578125,0.7486077055156231,-0.2275393202163279,-0.3502962966393679
1783170517071120600,2.77212060546875,0.5692161840051412,-0.3233450882844627,-0.4617680916013196
1783170517081189600,2.782189697265625,0.3871896378159523,-0.40346725726947186,-0.5557834325887262
1783170517091259600,2.792259765625,0.31075112577974795,-0.4478067497335374,-0.5720287206752226
1783170517101328600,2.80232861328125,0.3444412139356136,-0.4754683713801205,-0.5698103870386257
1783170517111398700,2.812398681640625,0.3669207567691803,-0.4900543844848871,-0.5529271663747728
1783170517121467600,2.822467529296875,0.27498423134982586,-0.44969870095998044,-0.5414781726540997
1783170517131537700,2.83253759765625,0.09894260478913783,-0.4106625756010413,-0.5642827096583322
1783170517141606700,2.842606689453125,-0.048715807852149004,-0.41457346543446183,-0.5882680174123496
1783170517151676700,2.8526767578125,-0.09754150581955909,-0.44608577115982767,-0.6150608203351497
1783170517161745700,2.86274560546875,0.0012064531803131103,-0.48470337884575126,-0.6716222271211445
1783170517171815700,2.872815673828125,0.1484878492027521,-0.5298419127330184,-0.673079367126897
1783170517181884400,2.882884521484375,0.3487251748651266,-0.6278977978155017,-0.6704493839494884
1783170517191954700,2.89295458984375,0.3807955528646707,-0.7196319325305521,-0.6702864484727382
1783170517202023700,2.903023681640625,0.27130232796669007,-0.776319888305664,-0.667372752983123
1783170517212093700,2.91309375,0.14213292721807955,-0.7517249607533216,-0.637092473270744
1783170517222162700,2.92316259765625,0.09002221623063086,-0.7473448459729551,-0.6674526132863015
1783170517232231700,2.933231689453125,0.13561959980130195,-0.7898650140553712,-0.6967559377253055
1783170517242301700,2.9433017578125,0.20958909137547016,-0.8651341900512576,-0.7562188381064683
1783170517252370700,2.95337060546875,0.20602818402349948,-0.9135673815697432,-0.842535477817431
1783170517262440700,2.963440673828125,0.18441431810855866,-0.9606583646990359,-0.8782239001836627
1783170517272509700,2.973509765625,0.15359189434349535,-1.002358302439749,-0.923409268887341
1783170517282579700,2.983579833984375,0.13110650629103182,-0.9917318406157195,-0.9085364016652107
1783170517292648400,2.9936484375,0.07659165677130222,-0.948970995645225,-0.8740002180740237
1783170517302718700,3.00371875,0.045430794832110405,-0.9066767452731728,-0.836437526268512
1783170517312787500,3.013787353515625,0.049748073509335515,-0.8268352929256856,-0.7333438662145286
1783170517322857700,3.023857666015625,0.09877133987545966,-0.7489888137876987,-0.6506253971260041
1783170517332926500,3.033926513671875,0.20082360111773012,-0.7503434432670474,-0.5987107566999271
1783170517342996500,3.04399658203125,0.3403273488759994,-0.823256411525607,-0.597788856082037
1783170517353065700,3.054065673828125,0.40342648686766625,-0.8571811852201819,-0.6255465585142373
1783170517363134700,3.064134765625,0.3255021201878786,-0.9004268910981714,-0.6186675395902246
1783170517373204700,3.074204833984375,0.27513679156303406,-0.870636148468405,-0.7124215627603232
1783170517383273700,3.084273681640625,0.23037702786028383,-0.8402033085428178,-0.7043088373228907
1783170517393343700,3.09434375,0.0867617531299591,-0.809798671798408,-0.6607564035832881
1783170517403412500,3.10441259765625,0.03585924888849258,-0.7913166741684079,-0.48549138741828496
1783170517413482800,3.114482666015625,0.21661679805517195,-0.7691451743707061,-0.24788645413108168
1783170517423551500,3.124551513671875,0.2598579738885164,-0.7469535085678101,-0.3317082082863897
1783170517433621800,3.134621826171875,0.14305004206299782,-0.7791489742517471,-0.4591306923024356
1783170517443690500,3.1446904296875,-0.06676175215244293,-0.873565041527152,-0.5600652015611529
1783170517453760500,3.154760498046875,-0.5068944601267575,-1.1363076309412716,-0.6395574751447886
1783170517463829500,3.16482958984375,-1.2369903573960066,-1.1131786842882632,-0.6614129677958787
1783170517473899500,3.1748994140625,-1.9520991134136914,-0.6112929922342301,-0.6445029687229543
1783170517483968800,3.18496875,-2.3347411709278822,-0.002601414670050144,-0.5673736614109948
1783170517494038500,3.19503857421875,-2.591601716566086,0.4267012717321515,-0.5248776048565283
1783170517504107800,3.205107666015625,-2.464086512765288,0.7994768920093774,-0.4706332428412512
1783170517514176500,3.215176513671875,-1.8588696255743502,1.1192074430584906,-0.42632418204806743
1783170517524246800,3.225246826171875,-1.1147732600033282,1.0749946457140147,-0.5230920731466263
1783170517534315500,3.2353154296875,-0.5909662435203791,0.7729169479943812,-0.6040402080943807
1783170517544385800,3.2453857421875,-0.4960182613253593,0.6434907960057258,-0.6691830903407185
1783170517554454500,3.25545458984375,-0.6475269196540117,0.6965482863239943,-0.6139690065104514
1783170517564524500,3.265524658203125,-0.9475690198928117,0.8648075884453952,-0.38697891767472026
1783170517574593500,3.275593505859375,-1.3879565794110298,1.240955315504223,-0.24654263830669224
1783170517584663600,3.28566357421875,-1.6151912175923584,1.616859443065524,-0.14192556807771325
1783170517594732500,3.295732666015625,-1.559523690906167,1.85730792921558,-0.07907360978014767
1783170517604802600,3.305802490234375,-1.246490007147193,2.0232932950556277,-0.09613426937013864
1783170517614871800,3.315871826171875,-0.7922142075300216,2.005175600693375,-0.21803652865998446
1783170517624941600,3.325941650390625,-0.2945528551727533,1.8680311294123528,-0.35119923682846127
1783170517635010800,3.3360107421875,0.1606266152858734,1.7665341639652847,-0.40841223939098414
1783170517645080600,3.34608056640625,0.48381695140004155,1.7481071113929152,-0.4529122561790049
1783170517655149800,3.35614990234375,0.7895213151842355,1.7007056010097263,-0.46627486496865744
1783170517665218600,3.366218505859375,1.0059230091840028,1.6905398885652423,-0.40069750029519197
1783170517675288600,3.37628857421875,1.1088117212504147,1.688214660488069,-0.42935273608900604
1783170517685357600,3.386357666015625,1.1428595368027687,1.6223638857007026,-0.5022809749819338
1783170517695427600,3.396427490234375,1.1463070469081402,1.518027020652592,-0.6024922114674002
1783170517705496600,3.40649658203125,1.0551333225548267,1.3378414261549711,-0.7332938165277242
1783170517715566600,3.416566650390625,0.8826187010765075,1.137241112399101,-0.8618161515444517
1783170517725635600,3.426635498046875,0.6134498780071735,1.0210948593527078,-0.9818781167298555
1783170517735705600,3.43670556640625,0.3163894239276647,0.9588508768856525,-0.9690484457731247
1783170517745774800,3.44677490234375,-0.01400397543311119,1.033504259070754,-0.8689728914313017
1783170517755844600,3.4568447265625,-0.32588615106940266,1.2110337861016391,-0.7139083672519773
1783170517765913600,3.46691357421875,-0.4430734376013279,1.318797995249927,-0.5867702531352639
1783170517775983600,3.476983642578125,-0.5625152250617742,1.3023571480587124,-0.5196450014326721
1783170517786052600,3.487052490234375,-0.761890380936861,1.2050614336937666,-0.5433193800739944
1783170517796121600,3.49712158203125,-0.9983651411503552,1.1277256805568934,-0.6204907364293932
1783170517806191600,3.507191650390625,-1.161766481846571,1.05519206700474,-0.6394545262269675
1783170517816260600,3.517260498046875,-1.1876444349467754,0.9615332478374242,-0.649023880213499
1783170517826330600,3.52733056640625,-1.0455091696411372,0.9063310005754232,-0.6764117264200001
1783170517836399600,3.537399658203125,-0.7282961543709039,0.8507274790361523,-0.6999131596472113
1783170517846469600,3.5474697265625,-0.30179098973274227,0.8027312176302075,-0.6834273773357272
1783170517856538600,3.55753857421875,-0.008257540735602378,0.7183095978856087,-0.693505265366286
1783170517866608600,3.567608642578125,0.10056231494545936,0.7177265373006463,-0.7118740118801593
1783170517876677600,3.577677734375,0.08614215992689132,0.7108949377149343,-0.7358035343263298
1783170517886747600,3.58774755859375,0.14638883109688758,0.7167664600968361,-0.7730433508530259
1783170517896816600,3.597816650390625,0.18052023327946662,0.6257938112735748,-0.8336657965328544
1783170517906886700,3.60788671875,0.13414602011740206,0.5539154467597603,-0.931105230217427
1783170517916955600,3.61795556640625,0.13454875569939612,0.5168526673004031,-1.0326116941452026
1783170517927025700,3.628025634765625,0.1846773529589176,0.49618748041242355,-1.0115144725155085
1783170517937094700,3.6380947265625,0.18858488179147243,0.6110293728619813,-0.8694153745017945
1783170517947163600,3.64816357421875,0.19047990175783633,0.8394888766631483,-0.6628517684273422
1783170517957233700,3.658233642578125,0.17910685935020446,1.0013578932255507,-0.43791897744759917
1783170517967302700,3.668302734375,0.1174088203281164,1.0840089961662889,-0.279603050256893
1783170517977372700,3.67837255859375,0.05903963346779346,1.1073112535595893,-0.25269904204458
1783170517987441700,3.688441650390625,0.013990531429648399,1.08161041059196,-0.2524934364698827
1783170517997511700,3.69851171875,-0.038519992530345916,1.042618708896637,-0.19618717348873613
1783170518007580400,3.708580322265625,-0.045375849774479865,1.0236430825307965,-0.11605039145648478
1783170518017650700,3.718650634765625,0.051288288688659665,1.0146522590845823,-0.04154664687514305
1783170518027719700,3.7287197265625,0.1590022289544344,0.9978861254617571,0.04450374311506748
1783170518037789700,3.738789794921875,0.25785949354767795,1.0132825781665742,0.11814524484388529
1783170518047858700,3.748858642578125,0.27892566245198247,0.9562066459871827,0.20682072264067827
1783170518057928400,3.758928466796875,0.1777718113541603,0.916629984010756,0.22753895489014683
1783170518067997000,3.768996826171875,0.11250292810797691,0.8731213894128799,0.2798628702368587
1783170518078067000,3.77906689453125,0.10883972942531109,0.8441367024689912,0.3426189669445157
1783170518088136000,3.789135986328125,0.17847616023123264,0.8228652202509343,0.4261741791181266
1783170518098205200,3.799205078125,0.305030994567275,0.7694802515439688,0.4892827425252646
1783170518108275000,3.80927490234375,0.3940203606188297,0.6760508572183549,0.554607447611913
1783170518118344200,3.81934423828125,0.3766676592797041,0.5724539968825877,0.5822112015914171
1783170518128414000,3.8294140625,0.3731120126247406,0.5487172935947775,0.5967064676728099
1783170518138483000,3.83948291015625,0.42332887268960473,0.4363362383008003,0.5994734481681138
1783170518148553000,3.849552978515625,0.40545945399999617,0.2656339269414544,0.6053748542316257
1783170518158622000,3.8596220703125,0.3078910601735115,0.1973575324423611,0.6132490216728299
1783170518168692200,3.869692138671875,0.2043839239478111,0.20126096962168813,0.6626675709668547
1783170518178761000,3.879760986328125,0.12273732187449932,0.22325477476492522,0.8203796870455146
1783170518188831000,3.8898310546875,0.09846914205849171,0.24206556595787404,1.00543405662328
1783170518198900000,3.89989990234375,0.02764846990406513,0.23780907755717634,1.1264154747411608
1783170518208970000,3.909969970703125,0.024013328272104263,0.17411153528094292,1.2467276152953506
1783170518219039000,3.9200390625,0.07325403678119183,0.11846052133813499,1.3352645614042877
1783170518229109000,3.93010888671875,0.09672668230533599,0.121052875918895,1.3817089171931147
1783170518239178000,3.940177978515625,0.00015957447588443754,0.11993322423920035,1.4574671918801962
1783170518249247000,3.9502470703125,-0.25440964535474775,0.2150394657358527,1.5091818892873823
1783170518259317000,3.96031689453125,-0.48325113421082494,0.42190673093199726,1.5534236204653977
1783170518269386000,3.970385986328125,-0.6692600280344486,0.5761405764408409,1.5521296351321041
1783170518279456000,3.9804560546875,-0.7875064682304859,0.6869970525160431,1.595349475916475
1783170518289525000,3.99052490234375,-0.8046955034404992,0.7872880031742155,1.6082313154518604
1783170518299595000,4.000594970703125,-0.775967421606183,0.839866185542941,1.5881412981033325
1783170518309664000,4.0106640625,-0.7245680737584829,0.8021236071258783,1.4693299175009131
1783170518319734000,4.020734130859375,-0.5946855563044547,0.7288591950811445,1.2705252549901604
1783170518329803000,4.030802978515625,-0.4239759384214878,0.5425009032979607,1.042810797402635
1783170518339873000,4.040873046875,-0.3016033582061529,0.4309142132520675,0.7643810287088155
1783170518349942000,4.05094189453125,-0.2871756044030189,0.4094190052807331,0.48444268208295105
1783170518360011000,4.061010986328125,-0.4198790244966745,0.3315712109684944,0.22448555866889655
1783170518370081000,4.0710810546875,-0.6643424453765153,0.3112565910838544,-0.06690349871069193
1783170518380150000,4.08114990234375,-0.8978022416830063,0.33748467279598116,-0.38906105771102006
1783170518390220000,4.091219970703125,-1.1018033037930726,0.35245120965093374,-0.6802895177014172
1783170518400289000,4.1012890625,-1.2868722864180802,0.37186785778254267,-0.9235465584661811
1783170518410358800,4.11135888671875,-1.4391180268496273,0.4248651423461735,-1.137495379421115
1783170518420428000,4.121427978515625,-1.519319690811634,0.5409731092087924,-1.282460022933781
1783170518430497800,4.131497802734375,-1.528597806766629,0.637064708480984,-1.4617644506826997
1783170518440567000,4.141567138671875,-1.4820266097277401,0.683098437642306,-1.6962372234240173
1783170518450637000,4.151636962890625,-1.369516667357087,0.7966375769302249,-1.9852838823959231
1783170518460706000,4.1617060546875,-1.1962591185569762,0.9704523212216793,-2.3012755391776563
1783170518470776000,4.171776123046875,-0.9938830273002386,1.1062407017186284,-2.594374688410759
1783170518480845000,4.181844970703125,-0.8518009534865617,1.1524340053558348,-2.8219600397258997
1783170518490915000,4.1919150390625,-0.5888128648787736,1.126615819618851,-2.9912431319370865
1783170518500984000,4.201984130859375,-0.25073709432184693,1.0410846311971544,-2.9791239473372695
1783170518511053000,4.212052978515625,0.042403555965423584,0.9704318629555404,-2.9537556973248718
1783170518521122800,4.222122802734375,0.34982524506151674,0.9310191593691706,-2.8655136425092813
1783170518531192000,4.232192138671875,0.6749211225360632,0.8162256361059844,-2.6510452546596524
1783170518541261800,4.24226171875,0.9280611863464117,0.7643329517833888,-2.5151775253161786
1783170518551331000,4.2523310546875,0.9849988790988922,0.6177930217780172,-2.4787989287286996
1783170518561400800,4.26240087890625,1.1702157457619904,0.40178164227008817,-2.3433994014188646
1783170518571470000,4.272469970703125,1.2460095301538705,0.21738296012207864,-2.334599424369633
1783170518581540000,4.2825400390625,1.378660927799344,0.04075827297642827,-2.249566686989367
1783170518591609000,4.292609130859375,1.4921218872845172,-0.14361425181701779,-2.1153508165061474
1783170518601679000,4.30267919921875,1.4792249963104724,-0.27143428378328677,-1.976333683221042
1783170518611748000,4.312748046875,1.361499365118146,-0.338603009301424,-1.8159233410343527
1783170518621818000,4.322818115234375,1.1174684904366732,-0.287415112247318,-1.5017244128882885
1783170518631886800,4.332886962890625,0.7810825726628303,-0.2934799652442336,-1.2496357578270136
1783170518641956000,4.3429560546875,0.5475017803251743,-0.0872539205610752,-0.9757904673792421
1783170518652025900,4.35302587890625,0.43284313548803327,-0.042069940096884965,-0.8085814780283719
1783170518662095000,4.36309521484375,0.4298053752273321,-0.21386574578136205,-0.7620091119457035
1783170518672164900,4.373164794921875,0.44906478697061536,-0.4222207653172314,-0.8259398053906858
1783170518682234000,4.383234130859375,0.38712475588619705,-0.6126319857530296,-0.8676007262952625
1783170518692304000,4.393303955078125,0.3801069860786199,-0.7126093404173851,-0.8887786119457334
1783170518702373000,4.403373046875,0.4146902236819267,-0.7838431234173476,-0.8795030532740056
1783170518712443100,4.413443115234375,0.42468320990800856,-0.8145797685950994,-0.8480940617926418
1783170518722512100,4.42351220703125,0.3522890048265457,-0.8421607262209058,-0.8180681221675127
1783170518732582100,4.43358203125,0.34192601624429225,-0.8717077232226729,-0.7736002540834248
1783170518742651000,4.44365087890625,0.3609989655047655,-0.9434307510443031,-0.7975238582454621
1783170518752721200,4.45372119140625,0.2553606624692678,-1.0273099344752727,-0.8477676063172519
1783170518762790000,4.463789794921875,0.16998071908652782,-1.1007947112724183,-0.890975756663829
1783170518772859100,4.473859130859375,-0.12033961308300495,-1.1047622997291386,-0.9408086589124053
1783170518782929000,4.483928955078125,-0.5063356572002172,-1.037098922561854,-0.924957082851231
1783170518792998100,4.493998046875,-0.9356780910909175,-0.9038729398988187,-0.8949031592406332
1783170518803068000,4.50406787109375,-1.0838193188130856,-0.760049721506238,-0.7885024204652756
1783170518813137200,4.51413720703125,-0.948165232220292,-0.6587437485866248,-0.5814229738231748
1783170518823207000,4.52420703125,-0.6814478939563036,-0.6585198767028748,-0.46089693478997795
1783170518833276200,4.534276123046875,-0.39803076530396936,-0.7505179230511188,-0.43807489866167304
1783170518843346200,4.54434619140625,-0.14360709142386913,-0.9380449663527309,-0.49888928671702737
1783170518853415000,4.554414794921875,0.007116554006934166,-1.093205717448145,-0.6213552443042397
1783170518863485200,4.564485107421875,0.09138122962415218,-1.208918985904753,-0.6967255425870418
1783170518873554000,4.574553955078125,0.13797873014807702,-1.2641036975100637,-0.6726439713843166
1783170518883624200,4.584624267578125,0.11425707829892634,-1.2456139549650251,-0.6523861231882124
1783170518893693000,4.59469287109375,0.003071078008413315,-1.2092929337836802,-0.611078472700715
1783170518903762200,4.60476220703125,-0.13205810792744158,-1.1692572759933768,-0.6081679190162569
1783170518913832000,4.61483203125,-0.14590309340655802,-1.1679153598651288,-0.6537630375646054
1783170518923901200,4.624901123046875,-0.11416647740602492,-1.2419332206256688,-0.7224689095221459
1783170518933971000,4.634970947265625,-0.01975041013062,-1.3384148421287536,-0.8078700418233871
1783170518944040000,4.6450400390625,0.17785189085304737,-1.412987121901661,-0.8693558263342827
1783170518954110000,4.65510986328125,0.37560558300614355,-1.516616423202306,-0.9064996351405977
1783170518964179000,4.665178955078125,0.4961719905823469,-1.5631059333071111,-0.9213541629884392
1783170518974249000,4.6752490234375,0.4853630117982626,-1.5907590793862938,-0.914959493515268
1783170518984318000,4.68531787109375,0.41867257131636143,-1.5525396772377191,-0.8948524519667029
1783170518994388200,4.69538818359375,0.21432313416004178,-1.4792590447105467,-0.8247064642034471
1783170519004457000,4.70545703125,-0.043677813684940336,-1.415607533533126,-0.8090127821177243
1783170519014526000,4.71552587890625,-0.2191898634135723,-1.3645590449497103,-0.8112019627250731
1783170519024596000,4.725595947265625,-0.23949615386128426,-1.3388153857536613,-0.759629377202317
1783170519034665200,4.735665283203125,-0.1218839199155569,-1.3545071681432426,-0.6908620573811233
1783170519044735000,4.74573486328125,-0.052284898510575294,-1.3871570995964109,-0.6977372038476168
1783170519054804000,4.755803955078125,-0.17211130137443542,-1.4190676108591258,-0.7676246868051588
1783170519064874000,4.7658740234375,-0.535079521125555,-1.3799496524356305,-0.8277594220332801
1783170519074943000,4.77594287109375,-1.060397526693344,-1.208017507020384,-0.8604117646392434
1783170519085013000,4.786012939453125,-1.5100439129441976,-0.9191396287441254,-0.7773511310495436
1783170519095082000,4.79608203125,-1.749403288683295,-0.6711043407268822,-0.6963910499356687
1783170519105152000,4.806152099609375,-1.9404782337248325,-0.44487464180439706,-0.7620270129285752
1783170519115221000,4.816220947265625,-1.9871096365183591,-0.25057240527942776,-0.8439310238290577
1783170519125290800,4.826290771484375,-1.676968751591444,-0.21897958166375756,-0.8616163911886513
1783170519135360000,4.836360107421875,-1.195817804530263,-0.2866081797786057,-0.8637186241649091
1783170519145429000,4.846428955078125,-0.866530320584774,-0.2924276797123253,-0.8570378312267363
1783170519155499000,4.8564990234375,-0.7001181076347828,-0.2762292629748583,-0.8068494666039944
1783170519165568000,4.866568115234375,-0.6382154859513044,-0.24723887694254515,-0.6808803232014179
1783170519175638000,4.876637939453125,-0.6215770703613758,-0.06305296076238155,-0.4749484391592443
1783170519185706800,4.886706787109375,-0.5188917719125747,0.25915289435908195,-0.28975729145929213
1783170519195777000,4.896777099609375,-0.3371802830219269,0.47206981498301026,-0.1637617715064436
1783170519205846000,4.906845947265625,-0.08928571864962577,0.5490897801689804,-0.14986249855682254
1783170519215916000,4.916916015625,0.18035773619413376,0.5925929679393768,-0.21034896983206272
1783170519225985000,4.926985107421875,0.3863362358570099,0.5710410613447428,-0.37370647138655183
1783170519236054800,4.9370546875,0.5396937369227409,0.5397818535976111,-0.482476569641754
1783170519246124000,4.9471240234375,0.6029261459052563,0.5986709726788103,-0.4762557223655283
1783170519256193800,4.95719384765625,0.6948585796713829,0.7968985659539699,-0.3747467742197215
1783170519266263000,4.967262939453125,0.681363138282299,1.1088482538685203,-0.17347740209586918
1783170519276331800,4.977331787109375,0.6542986057460307,1.491516030345857,0.08606756032072008
1783170519286402000,4.987402099609375,0.6958481752306223,1.8293100613519548,0.36946978366486727
1783170519296470800,4.997470703125,0.7833721449047326,1.964035927183926,0.5817786553930491
1783170519306541000,5.007541015625,0.7777998977303504,1.8842276464536785,0.6485259406287223
1783170519316609800,5.01760986328125,0.7384592364668846,1.7017630011081695,0.5153317413434386
1783170519326680000,5.02768017578125,0.858645120292902,1.4926329055465757,0.3333608708642423
1783170519336749000,5.0377490234375,1.0278934334516525,1.233213907597214,0.1406716955590993
1783170519346818800,5.04781884765625,1.1011521464079619,0.9554679564490913,-0.07098514200113713
1783170519356888000,5.05788818359375,1.0748843172073363,0.658337652003765,-0.24029212654456494
1783170519366957800,5.067957763671875,0.8428934244096279,0.44022652373760934,-0.3698283147789538
1783170519377027000,5.078027099609375,0.4316279144793749,0.44676673916131254,-0.3978158073790371
1783170519387096800,5.088096923828125,-0.10372574741244316,0.5648289088316262,-0.3535232958618551
1783170519397166000,5.098166015625,-0.5484042821228504,0.7044735263653099,-0.3144555332556367
1783170519407234800,5.10823486328125,-0.8757651819199324,0.7753979511551559,-0.24610735216196625
1783170519417305000,5.11830517578125,-1.1757342169225216,0.8784956297971308,-0.16307009944785386
1783170519427373800,5.128373779296875,-1.3349813605487346,1.017792456806451,-0.14680303792096674
1783170519437444000,5.138444091796875,-1.5409382329016923,1.0939939452163874,-0.11057144858874379
1783170519447512800,5.148512939453125,-1.7422814739793537,1.1332460514135658,-0.17173359063584356
1783170519457582800,5.158582763671875,-1.8814649037420748,1.07505952764377,-0.3016237434070557
1783170519467651800,5.16865185546875,-1.8781535872370003,1.000452468818426,-0.41421529964655635
1783170519477721900,5.178721923828125,-1.4998288084000349,0.9203563110575079,-0.49412444693539287
1783170519487791000,5.188791015625,-0.8821920000970364,0.8325582006171345,-0.45795105406381187
1783170519497860900,5.19886083984375,-0.39667175191044807,0.7525754401028156,-0.3517279003450647
1783170519507930000,5.20893017578125,-0.10201192923188208,0.7257390172339976,-0.2692646115940064
1783170519517999900,5.218999755859375,0.014747487276792525,0.7220465924568474,-0.2062639655407518
1783170519528069000,5.229069091796875,0.1879682111978531,0.722573977331817,-0.16363376121260226
1783170519538137900,5.239137939453125,0.4091951333969831,0.7211512510523199,-0.15531623391807078
1783170519548207900,5.249207763671875,0.4986906954050064,0.6828764654546976,-0.143614324882254
1783170519558276900,5.25927685546875,0.44608138724565505,0.6861996185280382,-0.20935323679298162
1783170519568347000,5.269346923828125,0.41025545610487457,0.707715723156929,-0.2309261861756444
1783170519578415900,5.279415771484375,0.3512602463006973,0.7041279277980327,-0.21250278686508536
1783170519588486000,5.28948583984375,0.2146329307615757,0.7658665910914539,-0.19994996008835733
1783170519598555000,5.299554931640625,0.10571838253438472,0.842905260977894,-0.15344137995690108
1783170519608625000,5.309625,0.2044189952611923,0.8513765905946493,-0.0719827016711235
1783170519618694100,5.319694091796875,0.4723001166075468,0.7810422406524419,0.018506839810311794
1783170519628763000,5.329762939453125,0.7157616669684648,0.6535784747779368,-0.013504063086956739
1783170519638831900,5.339831787109375,0.9013748394727706,0.5010325823560356,-0.13259594113118947
1783170519648902000,5.34990185546875,0.950903132751584,0.3821956289209425,-0.24499562806040048
1783170519658971100,5.35997119140625,0.8336088787138461,0.31696035568341613,-0.32372100892476735
1783170519669041000,5.370041015625,0.6597042641818524,0.31497736517265434,-0.4077326596289873
1783170519679110100,5.380110107421875,0.4385276108652353,0.3022515929818153,-0.398818408550322
1783170519689180000,5.390179931640625,0.2861433387458324,0.3509025189042091,-0.28389329479672015
1783170519699249200,5.400249267578125,0.2725029359281063,0.40115371963009233,-0.19028087205439806
1783170519709319000,5.41031884765625,0.4339923055231571,0.36018911042660473,-0.09769801155552267
1783170519719388000,5.420387939453125,0.6493927135258912,0.2378837502285838,-0.062184580430015915
1783170519729458000,5.4304580078125,0.7400029587775468,0.08433847150579095,-0.08946538606546818
1783170519739527000,5.44052685546875,0.7011363447666168,-0.05105769480317831,-0.15570523323565721
1783170519749596000,5.450595947265625,0.5755307739794254,-0.14413374564647674,-0.20428148648664354
1783170519759666000,5.460666015625,0.5082686710894108,-0.1381784905038774,-0.17251944378390907
1783170519769735000,5.47073486328125,0.4993874454975128,-0.11218144106864929,-0.07836319648846983
1783170519779805000,5.480804931640625,0.5001923321396112,-0.08742489321380853,0.02904394285045564
1783170519789874200,5.490874267578125,0.5265799883276224,-0.07288228085935115,0.1384236243713647
1783170519799944000,5.50094384765625,0.4447627058625221,-0.09257292362675071,0.19998861159831285
1783170519810013000,5.511012939453125,0.22685528347492218,-0.14664558233693242,0.21579671384394167
1783170519820083000,5.5210830078125,-0.022525720062851903,-0.21130583216547966,0.16773023674599824
1783170519830152000,5.53115185546875,-0.032442718443274496,-0.2957042171649635,0.15341683003753423
1783170519840222000,5.541221923828125,0.1174088203281164,-0.4145578294739127,0.12849902720637618
1783170519850291000,5.551291015625,0.2462076341986656,-0.5536887983970343,0.10615034421086311
1783170519860361000,5.56136083984375,0.2030950531810522,-0.641806203919649,0.0520230327039957
1783170519870430000,5.571429931640625,0.10467267287373543,-0.7081744267098605,0.04533076852373778
1783170519880499000,5.5814990234375,-0.059064183387160296,-0.7014585624583065,0.08494557055346667
1783170519890569000,5.59156884765625,-0.21869185076355932,-0.641255145908147,0.08414696752168238
1783170519900638000,5.601637939453125,-0.38541269127130506,-0.633558453925699,0.1053510105267167
1783170519910708000,5.6117080078125,-0.6158814890682697,-0.6497868274100125,0.06362235814817249
1783170519920777000,5.62177685546875,-0.821309369111061,-0.6611540245987475,-0.01365779234394431
1783170519930847000,5.631846923828125,-0.9713310037523507,-0.6596295915104449,-0.08833345942609011
1783170519940916000,5.641916015625,-1.0116793807536364,-0.6336639601267874,-0.1213788930028677
1783170519950986000,5.651986083984375,-0.8835077588707209,-0.5468633362911641,-0.0269542770948261
1783170519961055000,5.662054931640625,-0.6961965502768754,-0.5499339759081602,0.03283011032566428
1783170519971125000,5.672125,-0.608213730919361,-0.5787834921650589,-0.00897949833460152
1783170519981195000,5.682195068359375,-0.5811708256930113,-0.5898069904826582,-0.1411413588974625
1783170519991263700,5.692263671875,-0.522811575704813,-0.5303729508697986,-0.17441775168590246
1783170520001334000,5.702333984375,-0.275135037997365,-0.5650615485437214,-0.06789820883646606
1783170520011402800,5.71240283203125,-0.1848468643069267,-0.6321219913817941,0.02931991024762392
1783170520021473000,5.72247314453125,-0.07788578823506832,-0.6589883709974587,0.2392676058024168
1783170520031542000,5.7325419921875,-0.014456395375728607,-0.6800105546295643,0.3993455011643469
1783170520041612000,5.742612060546875,-0.06812485719919205,-0.6022108372427523,0.20643033508360384
1783170520051681000,5.752680908203125,-0.3131920891910791,-0.6487003473475575,-0.07627236168906092
1783170520061750000,5.76275,-0.7130062307804822,-0.775319332960993,-0.4693832793127745
1783170520071823600,5.77282373046875,-1.074220884862542,-0.6914762437567115,-0.7385622584499418
1783170520081892600,5.782892578125,-1.310235626348853,-0.4671021095730364,-0.918492124620825
1783170520091962600,5.792962646484375,-1.4392553894937037,-0.2822464774377644,-1.0570349183924495
1783170520102031400,5.80303125,-1.431020645111799,0.012643354604393243,-1.2035584087196738
1783170520112101600,5.8131015625,-1.2594956191927194,0.35088775972649455,-1.1395067192435264
1783170520122170600,5.823170654296875,-1.0025386274427175,0.6657555270448327,-0.9263361891847103
1783170520132240600,5.83324072265625,-0.7333651281982659,0.9401634198114276,-0.8022457722008228
1783170520142309600,5.8433095703125,-0.4911053548425436,1.072968985105306,-0.6583013385813683
1783170520152379400,5.85337939453125,-0.30944881100952626,1.1368681874334812,-0.554798732400313
1783170520162448600,5.86344873046875,-0.019544073903560638,1.173944703157246,-0.4605872477862984
1783170520172518400,5.873518310546875,0.3886778305470943,1.1535248693324625,-0.41291232728920874
1783170520182587600,5.883587646484375,0.7016998238682747,1.1250228513389826,-0.43103710897937414
1783170520192657400,5.893657470703125,0.7658668833523988,1.054034859793633,-0.539913151827082
1783170520202726700,5.9037265625,0.6918506300270557,1.0959332427158952,-0.6454262941129505
1783170520212795400,5.91379541015625,0.5381038373827934,1.11933472269997,-0.7667609095826745
1783170520222865700,5.92386572265625,0.2913578585237264,1.2036651570297776,-0.9724616882827133
1783170520232934400,5.933934326171875,0.10375321994125843,1.3081008062772452,-1.1193519660957156
1783170520243004700,5.944004638671875,-0.0288654444783926,1.357909962324053,-1.2067585199352353
1783170520253073700,5.95407373046875,-0.07142740587592125,1.373826201119274,-1.252096887243539
1783170520263143400,5.964143310546875,-0.023216624936461448,1.3159374912522732,-1.2730537505544721
1783170520273212700,5.974212646484375,0.08798223483562469,1.241488983989507,-1.2425482837840913
1783170520283282400,5.984282470703125,0.19692776272296905,1.195542348589748,-1.2057927436430007
1783170520293351700,5.9943515625,0.22333529265522956,1.111304999370873,-1.1751588281873613
1783170520303421400,6.00442138671875,0.12500059063136576,0.9961439579695462,-1.2197474000416695
1783170520313490700,6.01449072265625,0.047640287575125694,0.8512202309891581,-1.2489020367249846
1783170520323560400,6.024560546875,-0.10400865600705146,0.674837535905838,-1.310500414764881
1783170520333629700,6.034629638671875,-0.21997604535520077,0.5664620629914104,-1.4530217567786574
1783170520343698400,6.044698486328125,-0.389890713468194,0.6096482937671244,-1.6108635636515913
1783170520353768700,6.054768798828125,-0.6470528724014759,0.7648233656488359,-1.6571107894331216
1783170520363837400,6.06483740234375,-0.8004688256561756,0.9213931067593395,-1.6982564542919396
1783170520373907500,6.074907470703125,-0.8131763315379619,1.0071272704072296,-1.7581275701478123
1783170520383976700,6.084976806640625,-0.722066904592514,1.0054584604121743,-1.8217552620582282
1783170520394046500,6.09504638671875,-0.49745033995509147,0.9722736914299428,-1.8217744051501155
1783170520404115700,6.10511572265625,-0.19566344187557697,0.9860722074188292,-1.7744789854899048
1783170520414185500,6.115185546875,0.08237433182597159,0.9764778651215136,-1.6626057335875928
1783170520424254700,6.125254638671875,0.2815565954774618,0.9825034090213477,-1.524467282833159
1783170520434324500,6.135324462890625,0.39597032564282414,1.0198913287818432,-1.4166243093602358
1783170520444393700,6.145393798828125,0.4818500352412462,1.0129181287683546,-1.2881252090886235
1783170520454463500,6.15546337890625,0.506240964654088,0.947048210889101,-1.186177285003662
1783170520464532700,6.16553271484375,0.5982534779191017,0.8733233417257666,-1.1311175880175084
1783170520474602800,6.175602783203125,0.7585679585158824,0.7914094670183957,-1.1053017403680832
1783170520484671500,6.18567138671875,0.7968161483675241,0.6575687134578824,-1.1209367510691284
1783170520494740500,6.195740478515625,0.6455541582763195,0.5135330213584005,-1.1167707174308596
1783170520504810500,6.205810546875,0.49649055501222605,0.4454997879654169,-1.0980034731186925
1783170520514879700,6.215879638671875,0.434096934941411,0.4153874121658504,-1.0673723341420291
1783170520524949500,6.225949462890625,0.25923779616355896,0.37971550254300235,-1.0521084217756986
1783170520535018800,6.236018798828125,0.02700140417218208,0.3910034970156848,-1.023201037851721
1783170520545088500,6.246088623046875,-0.03295768222808838,0.3909567352645099,-0.9691188806608318
1783170520555157800,6.25615771484375,0.03969546605050563,0.33201983151882886,-0.8879029250897467
1783170520565227500,6.2662275390625,0.014292729246616363,0.2540899118810892,-0.8579274004776031
1783170520575296800,6.276296875,-0.07201017419993877,0.2509421153746545,-0.8637118290979414
1783170520585366500,6.286366455078125,-0.0920078370898962,0.2326937803700566,-0.875371360296756
1783170520595435500,6.296435546875,-0.03078033818900585,0.14803323730304838,-0.8202665089946239
1783170520605505800,6.306505859375,0.09585574468970298,0.06289689341783523,-0.7649589747272432
1783170520615574500,6.316574462890625,0.15436872393488882,0.027626111941784617,-0.7319329034380614
1783170520625643500,6.3266435546875,0.1766822625517845,-0.05695771262720227,-0.7106240848843007
1783170520635713500,6.336713623046875,0.10876724871098994,-0.15160554283186792,-0.7196379238799214
1783170520645782500,6.346782470703125,0.0941425110310316,-0.19810177493840456,-0.7206362872675061
1783170520655852500,6.3568525390625,0.0744049603819847,-0.24266353185102343,-0.6892769801467656
1783170520665921800,6.366921875,-0.016732523614168167,-0.25733152415081856,-0.661704205827415
1783170520675991600,6.376991455078125,0.007620411875844001,-0.29543329126909373,-0.6732701404586434
1783170520686060500,6.387060546875,0.08590425951778888,-0.3317867534153163,-0.5975920914009213
1783170520696130600,6.397130615234375,0.11720073053538799,-0.3963410586513579,-0.5596287098400294
1783170520706199600,6.407199462890625,0.15219371798336506,-0.4343078012131154,-0.5862230675812811
1783170520716269600,6.41726953125,0.14899989037811756,-0.5081067585259675,-0.6045123921833933
1783170520726338600,6.427338623046875,0.08263385954499244,-0.5193640655994415,-0.6407849711131304
1783170520736408600,6.43740869140625,0.004700140514969826,-0.4994941207423806,-0.5856120595434681
1783170520746477600,6.4474775390625,-0.021096564042568204,-0.49861850695163007,-0.5592580498967319
1783170520756547600,6.457547607421875,0.07165420036911964,-0.5520191116191446,-0.6562305967219173
1783170520766616600,6.467616455078125,0.15198855080008505,-0.680633947224915,-0.7842380410190671
1783170520776685600,6.477685546875,-0.011208207234740256,-0.743785838317126,-0.8038109756909311
1783170520786755600,6.487755615234375,-0.4907938046753406,-0.6902060776904225,-0.870079537498951
1783170520796824600,6.497824462890625,-0.9682155020803213,-0.5262117395371199,-0.8729262321669607
1783170520806894600,6.50789453125,-1.1569167037278414,-0.3367627882622182,-0.7499768019117414
1783170520816963600,6.517963623046875,-1.0277063864469527,-0.21082038673609493,-0.5345003329981118
1783170520827033600,6.52803369140625,-0.7069307102590799,-0.1487969151519239,-0.41711131334900853
1783170520837102600,6.5381025390625,-0.34816111124157906,-0.2353779048874974,-0.5027432587314397
1783170520847172600,6.548172607421875,-0.2467576692968607,-0.4237238633565604,-0.6240826234415173
1783170520857241600,6.55824169921875,-0.41602702524363994,-0.4539886532388627,-0.6048762570597231
1783170520867311400,6.568311279296875,-0.547511717197299,-0.3371890508502722,-0.4339483202509582
1783170520877380600,6.578380615234375,-0.6036953767120837,-0.20005816970318555,-0.21596892860569059
1783170520887450600,6.58845068359375,-0.5941857900887727,-0.0732134125098586,-0.17458233113046734
1783170520897519600,6.59851953125,-0.7346691965341567,-0.0500699989400804,-0.3199401752118021
1783170520907589600,6.608589599609375,-0.981209423688054,-0.06705474374964833,-0.46696397974397985
1783170520917658600,6.61865869140625,-1.149423717623949,-0.09576865092813969,-0.5891517779769375
1783170520927727600,6.6287275390625,-1.145121051993966,-0.052761137720197436,-0.5841315751947462
1783170520937797600,6.638797607421875,-0.9337591057270764,0.02412687164917588,-0.43315421073120086
1783170520947866600,6.64886669921875,-0.637205432125926,0.13523206178843974,-0.23803143333727492
1783170520957936600,6.6589365234375,-0.4213993659317493,0.19911708946079015,-0.06730080919889733
1783170520968005600,6.669005615234375,-0.25750878041386605,0.22750936346948145,0.015386865175853017
1783170520978075400,6.679075439453125,-0.134985393550992,0.21090528854057192,0.051137682970520106
1783170520988144600,6.68914453125,-0.012539748099446297,0.1626740493349731,0.09506474044248461
1783170520998214400,6.69921435546875,0.02098141323029995,0.1465206407830119,0.06982145025031641
1783170521008283600,6.70928369140625,-0.00892974090874195,0.13643778431639075,0.02180492237447761
1783170521018353700,6.719353759765625,-0.037056349718570705,0.17104104179441929,0.024323124873638153
1783170521028422700,6.729422607421875,-0.026127543947100637,0.19711071807444094,0.03562917559281922
1783170521038492700,6.73949267578125,-0.08544657887816429,0.2226430726073682,0.03862610151963308
1783170521048561700,6.749561767578125,-0.13207739714980124,0.29241116696894165,0.08614540219674818
1783170521058631700,6.759631591796875,0.005175941333174706,0.3863010184131562,0.20406028148401528
1783170521068700700,6.76970068359375,0.23597440947592258,0.4943593882024288,0.3546624559596181
1783170521078766000,6.77976611328125,0.4916705875098705,0.5452797203615307,0.48606367088090624
1783170521088835800,6.7898359375,0.7075988187789917,0.5848952530436218,0.6483192390754818
1783170521098905000,6.799905029296875,0.9524456860184669,0.6245489257790148,0.7991524092953651
1783170521108974800,6.809974853515625,1.219150749322772,0.6073145901225507,0.934390389367938
1783170521119044000,6.820044189453125,1.3477496567070484,0.53150809237957,1.0509965150110423
1783170521129113900,6.83011376953125,1.2983289154559372,0.46179538146704435,1.0999406517263501
1783170521139183000,6.84018310546875,1.1186106462091208,0.3785094877541065,1.0823516574133187
1783170521149252900,6.8502529296875,0.907155760961771,0.2878593488834798,1.0094663078140467
1783170521159322000,6.860322021484375,0.7205220132380723,0.2037446031309664,0.9867636968143284
1783170521169392000,6.87039208984375,0.4709890340089798,0.21681129771396515,0.9961730379335582
1783170521179461000,6.880461181640625,0.2066243963509798,0.26019232040941714,1.01729575933069
1783170521189531100,6.89053125,-0.057257426226139066,0.24860519685968754,1.0588047045439481
1783170521199599900,6.900599853515625,-0.25491642583310603,0.24754691997841,1.0644142149887978
1783170521209670100,6.910670166015625,-0.3903139073163271,0.20605477976948022,1.0299704589214176
1783170521219739000,6.92073876953125,-0.41206572039723394,0.10602218778654933,0.9870995777051895
1783170521229808000,6.93080810546875,-0.45674248199164863,-0.0030821839243173597,0.9481018115952611
1783170521239878000,6.9408779296875,-0.5413426731735468,-0.07301321376264094,0.86281232297495
1783170521249947100,6.950947021484375,-0.598045972648263,-0.10144508912935853,0.8268900918528437
1783170521260017000,6.961016845703125,-0.5955921497553587,-0.1384187290005386,0.8447922437682748
1783170521270086100,6.971086181640625,-0.5302461096197366,-0.1308639297068119,0.8435560530368238
1783170521280156000,6.981156005859375,-0.43346214416921136,-0.14664558233693242,0.8433102615822106
1783170521290225200,6.99122509765625,-0.25128245324492454,-0.1452063433140516,0.8479808837417513
1783170521300295200,7.001295166015625,-0.0035211598634719847,-0.16050883412510156,0.829963581014052
1783170521310364000,7.011364013671875,0.20146891328394412,-0.20981676265150306,0.7911826725251973
1783170521320434200,7.02143408203125,0.3710954121053219,-0.29632804815173147,0.7299352998800576
1783170521330503000,7.0315029296875,0.47153030127882956,-0.4305060708425939,0.6850760213255882
1783170521340573200,7.0415732421875,0.5132914676874876,-0.6101067050591111,0.5506131172787397
1783170521350642000,7.051641845703125,0.5490770668178796,-0.6636565089389681,0.5572154746858403
1783170521360712000,7.0617119140625,0.5032330150097608,-0.6931903541982174,0.5588564468258992
1783170521370781000,7.071781005859375,0.34594694232344625,-0.7082086212404072,0.5439635231964289
1783170521380850200,7.08185009765625,0.2003279265552759,-0.6568837999336421,0.508771286849305
1783170521390920000,7.091919921875,0.11803835040330886,-0.6127902450546622,0.5014935509312898
1783170521400989000,7.101989013671875,0.0640355420589447,-0.6236310802817344,0.42341936398465185
1783170521411059000,7.112058837890625,0.04420622147321701,-0.6634652241505682,0.3152828874578699
1783170521421128000,7.1221279296875,0.08644552678763866,-0.7229949792228638,0.2560524075930938
1783170521431198200,7.1321982421875,0.08354922082424163,-0.7153679914757609,0.26955152051029724
1783170521441267000,7.142266845703125,0.09040800067782402,-0.706229283991456,0.2559364165306091
1783170521451337200,7.152337158203125,0.19102058450579643,-0.7445144448526203,0.2430911278796382
1783170521461406000,7.162406005859375,0.33738135855197904,-0.8425364276655017,0.20125629344657062
1783170521471476000,7.17247607421875,0.328233590978384,-0.9157752668775617,0.0690655949482927
1783170521481545000,7.182544921875,0.22081775687634944,-1.0080702503457666,-0.06352303965927567
1783170521491615000,7.192614990234375,0.040274142721295356,-1.0285789314977825,-0.19381357622519135
1783170521501684000,7.20268408203125,-0.10814999359548091,-0.9903408246487378,-0.2733796091647819
1783170521511753000,7.2127529296875,-0.15163549957871436,-0.9160603674292563,-0.16534628248522057
1783170521521823000,7.222822998046875,-0.12383680754899978,-0.7468027019202709,-0.04658364552850835
1783170521531892000,7.23289208984375,-0.07756488571763039,-0.5784355555102229,0.13370063270376994
1783170521541962000,7.2429619140625,-0.014049568140506744,-0.46900940449908374,0.32636659153010694
1783170521552031000,7.253031005859375,0.03194879744648933,-0.42155572553724047,0.4748500568186864
1783170521562101000,7.26310107421875,0.08621171803176403,-0.4332990625619888,0.5496080318894236
1783170521572170000,7.273169921875,0.13952771315574644,-0.4880345690950751,0.565784711719118
1783170521582240000,7.283239990234375,0.16247954967617986,-0.5365073619715869,0.5064587355906144
1783170521592309000,7.29330908203125,0.20973814445734024,-0.642570027898997,0.39515078942086546
1783170521602379000,7.30337890625,0.24677286686599254,-0.7095135663591325,0.2424172837386839
1783170521612448000,7.313447998046875,0.23122633816599844,-0.7077540093407034,0.17618350098310037
1783170521622518000,7.32351806640625,0.055773909670114516,-0.7069627128325402,0.1275340728980489
1783170521632587000,7.3335869140625,-0.18306290349960327,-0.6026712943613529,0.15071649417080915
1783170521642657000,7.343656982421875,-0.3843634744793176,-0.4662425701342523,0.294133734711539
1783170521652726000,7.35372607421875,-0.4283271193683147,-0.38655893869698044,0.5776503234166651
1783170521662795000,7.363794921875,0.07250292615294456,-0.3751807817228138,0.9073049601741134
1783170521672865000,7.373864990234375,0.6963526176214218,-0.41151100912392136,0.9621695729795843
1783170521682934000,7.38393408203125,0.7006652201235294,-0.5951417756393551,0.878351910477504
1783170521693003800,7.394003662109375,0.17939970481693743,-0.8138080535702407,0.6055329308701679
1783170521703073000,7.404072998046875,-0.3815197754859924,-0.9312294411189853,0.3974703549422324
1783170521713143000,7.41414306640625,-0.7899982850462198,-0.9007381490044295,0.3813429210817441
1783170521723212000,7.4242119140625,-1.025499816313386,-0.7672384639665484,0.4786781272068619
1783170521733282000,7.434281982421875,-1.2378308998733758,-0.5184853830687701,0.4952564831726253
1783170521743351000,7.44435107421875,-1.4772703551113604,-0.31694501198381186,0.43520526150949296
1783170521753421000,7.454421142578125,-1.8048498660951853,-0.1663093370974064,0.35258703792504964
1783170521763490000,7.464489990234375,-2.113279270929098,-0.01827916853427887,0.2294630730868317
1783170521773560000,7.47456005859375,-2.2612416349530218,0.1462713421970606,0.15149194465586915
1783170521783629000,7.484629150390625,-2.055820184651017,0.2899061984106898,0.1947870426335372
1783170521793699000,7.494698974609375,-1.565347867015004,0.39384938796609636,0.3012895430166274
1783170521803767800,7.504767822265625,-1.0795616613686083,0.4688479303270578,0.34264483203813434
1783170521813838000,7.514838134765625,-0.6333920113176107,0.4270166212916374,0.29850564791914075
1783170521823906800,7.52490673828125,-0.25566519837379453,0.37468759137839075,0.22276271693166344
1783170521833976000,7.53497607421875,0.061111179044842714,0.395048388492316,0.18336354868030175
1783170521844046000,7.545046142578125,0.2524959206879139,0.4480044642627239,0.23150858917348086
1783170521854115000,7.555114990234375,0.3055436202645302,0.5874626193135977,0.2668457321503199
1783170521864185000,7.56518505859375,0.3587941489368677,0.6852934634685516,0.26676543345572423
1783170521874254000,7.575254150390625,0.33017771078348157,0.7802643881477415,0.2124036190732382
1783170521884324000,7.585323974609375,0.3555418691426515,0.8337728371039033,0.0035216987195890396
1783170521894393000,7.59539306640625,0.49198155315518377,0.8408065351329743,-0.2077448700145818
1783170521904463000,7.605463134765625,0.6440782405048608,0.7340950499080121,-0.46476595824304967
1783170521914531800,7.61553173828125,0.7287614337950944,0.6042101943664252,-0.7190165771111846
1783170521924602000,7.62560205078125,0.6962018109738827,0.5320937833130359,-0.9372845033742487
1783170521934670800,7.6356708984375,0.6505185026854277,0.5201847343325615,-1.007717637515813
1783170521944741000,7.6457412109375,0.541405801537633,0.555596531714499,-0.9703432348240166
1783170521954809900,7.655809814453125,0.4844020578116178,0.6098797644354402,-0.9754081169981509
1783170521964880000,7.6658798828125,0.4942816467911005,0.6705496294535697,-0.8464188220568001
1783170521974949000,7.67594921875,0.4593669852763414,0.7458908477723598,-0.804800790445879
1783170521985018000,7.68601806640625,0.49955052710473535,0.7283591366045177,-0.8766958138335496
1783170521995088100,7.696088134765625,0.48294718282818794,0.7052437800854444,-0.9346515975873917
1783170522005157000,7.7061572265625,0.4159451921790838,0.7172910684928298,-0.9953967928640544
1783170522015227100,7.71622705078125,0.3863958570897579,0.7287073655202985,-1.0790814035709946
1783170522025296000,7.7262958984375,0.4469143309384584,0.688374624479562,-1.12506705580689
1783170522035366100,7.7363662109375,0.4662678507059812,0.7083063825264573,-1.0355787272572516
1783170522045435000,7.746434814453125,0.4475041135251522,0.711898854060471,-0.9034418550051748
1783170522055505200,7.756505126953125,0.4109516216754913,0.728936644231528,-0.939299569523707
1783170522065574000,7.766573974609375,0.40695583003759384,0.7580798827379942,-0.9867325710237026
1783170522075644400,7.77664453125,0.3389636593073606,0.7785152063928544,-0.9262354322239756
1783170522085713700,7.786713623046875,0.4016629843264818,0.7618411349676549,-0.8098850349076092
1783170522095783400,7.796783447265625,0.6081488489896059,0.7166289513222873,-0.7268504856072365
1783170522105852700,7.806852783203125,0.9745376908391713,0.613893676251918,-0.7234583589509129
1783170522115922700,7.816922607421875,1.3582529305428266,0.4052895042605698,-0.7489711320005357
1783170522125991700,7.82699169921875,1.4404869771152733,0.23669717079252003,-0.7984053172551095
1783170522136060400,7.837060302734375,1.3411299463063477,0.16912746325805783,-0.8266121516942977
1783170522146130700,7.847130615234375,1.1421598641008137,0.08895414860770105,-0.8296859331164509
1783170522156199700,7.85719970703125,1.007860699248314,0.03406286699101329,-0.8199195221878588
1783170522166269400,7.86726953125,0.9913023631572723,-0.01607493648827076,-0.8484598263651132
1783170522176338700,7.877338623046875,0.9174638044863939,-0.12005407413989305,-0.866005273797363
1783170522186408400,7.887408447265625,0.8370219020277261,-0.3447264606177807,-0.9969199107781052
1783170522196477700,7.897477783203125,0.6620593028753996,-0.5066486686721444,-1.0543174761272966
1783170522206547500,7.90754736328125,0.33015257634222506,-0.5912177340634167,-1.090926666600257
1783170522216616700,7.91761669921875,-0.030943419796228406,-0.6554981907941401,-1.0655852315295486
1783170522226686500,7.9276865234375,-0.33515433015227314,-0.6418852605052292,-0.9446920762170106
1783170522236755700,7.937755615234375,-0.534600213176012,-0.5449909665480256,-0.8547210787169635
1783170522246825700,7.94782568359375,-0.6238970377415418,-0.5333898144729435,-0.761886216218397
1783170522256894500,7.95789453125,-0.6408697998523711,-0.590192336538434,-0.7171453764118254
1783170522266964700,7.96796484375,-0.6073918931424618,-0.6691914928428828,-0.7347599435575306
1783170522277033500,7.978033447265625,-0.5489373660862445,-0.7597161056376993,-0.727485568640381
1783170522287102700,7.988102783203125,-0.5840232925146818,-0.8611673322468996,-0.8014153127260506
1783170522297172500,7.99817236328125,-0.677722735953331,-1.0374689249180258,-0.9343217811111361
1783170522307241700,8.00824169921875,-0.6765870099216699,-1.1277684967853128,-0.9863998319379985
1783170522317311500,8.0183115234375,-0.5476911654174328,-1.0527779916003346,-0.8427168987989425
1783170522327380700,8.028380615234376,-0.29240824435949325,-0.8765674382135271,-0.7392194071844219
1783170522337450500,8.038450439453126,-0.11915537173449993,-0.665528294160217,-0.814776167950034
1783170522347519700,8.048519775390625,-0.22521803766191004,-0.7635669358469546,-0.49978619902413335
1783170522357589500,8.058589599609375,-0.11888766070902347,-0.6311926015771925,-0.42185364903789013
1783170522367658500,8.068658447265625,-0.017142273458838463,-0.3934314548149705,-0.49537389900721607
1783170522377728800,8.078728759765625,-0.04503565803468227,-0.32244550909623504,-0.47190008443929254
1783170522387797500,8.088797607421874,-0.13304010470211505,-0.25511560166701674,-0.47856947920061643
1783170522397867800,8.09886767578125,-0.26105565924048424,-0.2717272753804922,-0.756071465525031
1783170522407936500,8.1089365234375,-0.43442251363396645,-0.44171106320694087,-1.0850346859522164
1783170522418006800,8.1190068359375,-0.5358364769726991,-0.5959801261596381,-1.3059456740699709
1783170522428075500,8.129075439453125,-0.7119026534527539,-0.7009535355456173,-1.5099891140170394
1783170522438144800,8.139144775390625,-1.0588678329080343,-0.7255619071014225,-1.6108024811141193
1783170522448214500,8.149214599609374,-1.2463152351021767,-0.6649206836558879,-1.4610739842005074
1783170522458283800,8.15928369140625,-1.012196682626009,-0.5249808825679123,-1.0224769613608717
1783170522468353500,8.169353515625,-0.5258581037938594,-0.14758184027373789,-0.6581658756334334
1783170522478422500,8.179422607421875,-0.5415998628050088,0.05775748470276594,-0.24371136040352284
1783170522488492500,8.189492431640625,-1.0871662911534308,0.27841508258134123,-0.11611626890008338
1783170522498561500,8.1995615234375,-1.5686679513484239,0.5062511937871575,-0.2219570265719667
1783170522508631600,8.209631591796875,-1.7570961812734602,0.4473994841068983,-0.31843974405359476
1783170522518700500,8.219700439453124,-1.9643080221235751,0.45160219649374483,-0.4096743317486718
1783170522528770600,8.2297705078125,-2.1299305460005997,0.7169291033126414,-0.4534308732256293
1783170522538839600,8.239839599609375,-2.3049428295135495,1.0147150951877235,-0.21463031867938115
1783170522548909600,8.24990966796875,-2.176454981288314,1.3225643620461225,0.17812663440750912
1783170522558978600,8.259978515625,-1.788852086496353,1.5801463538266718,0.4614413803976029
1783170522569048600,8.270048583984375,-1.2404729388147593,1.698299562781304,0.6235661983519792
1783170522579117600,8.28011767578125,-0.843894710406661,1.6527771441429853,0.7259108666695654
1783170522589187600,8.2901875,-0.6058721362292766,1.6096199933312831,0.7552436363987625
1783170522599256600,8.300256591796876,-0.6510223605543375,1.6181633652709424,0.8558130386721342
1783170522609325600,8.31032568359375,-0.6677665746062994,1.669157347188145,0.8403549189079552
1783170522619395600,8.3203955078125,-0.5453647682964802,1.6590245140999555,0.9398571303412318
1783170522629464600,8.330464599609375,-0.3398229064851999,1.7130802216753362,0.9118594816733151
1783170522639534600,8.34053466796875,-0.0674076488405466,1.7478652654610574,0.9278397986806929
1783170522649603600,8.350603515625,0.12750175979733466,1.7797000811390578,0.7806429391365498
1783170522659673600,8.360673583984376,0.30766309663653374,1.7556652716875076,0.6456976584002375
1783170522669742600,8.37074267578125,0.41285950112342834,1.7398320350006222,0.5417147213563323
1783170522679812600,8.3808125,0.5605781195193529,1.7562484784029424,0.6097739294407889
1783170522689881600,8.390881591796875,0.7237462359815836,1.7238683038018643,0.731149497975409
1783170522699951600,8.40095166015625,1.114193414288759,1.6489521790273487,0.8047583395436405
1783170522710020600,8.4110205078125,1.3653572095900772,1.5243326966680586,0.8978030454006045
1783170522720090600,8.421090576171874,1.5235399388551711,1.3602838518485425,0.8607205383274704
1783170522730159600,8.43115966796875,1.5599468847543,1.1512202456519007,0.8593479348000138
1783170522740229600,8.441229736328125,1.283746847873926,1.0188060177631675,0.8602091547392309
1783170522750298600,8.451298583984375,1.034274658921361,0.9839031928166746,0.8995042963605373
1783170522760367600,8.46136767578125,0.8882704432278871,0.9284311887025832,0.9446439262263476
1783170522770437400,8.471437255859374,0.8059457957625389,0.8850796843625605,0.9495745144963263
1783170522780506600,8.481506591796874,0.869728824365139,0.7530429114840924,0.8491637368507683
1783170522790576600,8.49157666015625,0.930798502355814,0.5644920780926942,0.6855867473267019
1783170522800645600,8.501645751953125,0.8227613214850426,0.3682669106811285,0.5405696429744362
1783170522810715600,8.511715576171875,0.6361538772463798,0.2693557239435613,0.4462872850812971
1783170522820784600,8.52178466796875,0.4648047924160957,0.25623218460679054,0.44940950875505803
1783170522830854700,8.531854736328125,0.22177695729732513,0.3767658589571714,0.5470721567362546
1783170522840923600,8.541923583984374,0.07626373999118805,0.5948273028627038,0.6674387308914214
1783170522850993700,8.55199365234375,0.1337175655722618,0.7234963528737426,0.7955354609072208
1783170522861062400,8.5620625,0.22666122220754623,0.7257743808083236,0.9304257235206663
1783170522871132700,8.572132568359375,0.23781857603788376,0.6835387287557124,0.987497929373011
1783170522881201400,8.582201416015625,0.12083704121112823,0.5715807211793958,0.9049059362083673
1783170522891271700,8.592271728515625,0.08105915757417678,0.41780967087671156,0.7153046439159662
1783170522901340400,8.60234033203125,0.24873978302478789,0.3191400378100574,0.6527611670456827
1783170522911409700,8.61240966796875,0.7063228074938058,0.24748306096196174,0.7676087585836648
1783170522921479700,8.622479736328126,1.0781401041328906,0.06258738907724619,0.8103571824640036
1783170522931548700,8.632548583984375,1.1604326028943062,-0.007362637722492218,0.7741567919876426
1783170522941618700,8.64261865234375,0.9485738130211829,-0.05707315570041537,0.7032046024080365
1783170522951687700,8.652687744140625,0.5394844780862331,-0.10874313718304038,0.5367364945523441
1783170522961757700,8.6627578125,0.10946282975971698,-0.20295506018847226,0.3341499754153192
1783170522971826400,8.672826416015624,-0.3023170594334602,-0.2313023260116577,0.29168880751114334
1783170522981896700,8.682896728515624,-0.46203591222465035,-0.05480740272551775,0.4617410574639216
1783170522991965400,8.69296533203125,-0.06511398494541645,-0.3061123600631952,0.6523213143236934
1783170523002035700,8.70303564453125,0.05583528446853161,-0.3034694443389773,0.416940961750783
1783170523012104400,8.7131044921875,-0.2638543500483036,-0.1433057703897357,0.34631760226674374
1783170523022174700,8.7231748046875,-0.6617676264524459,-0.13105609127804635,0.5236977108895778
1783170523032243500,8.733243408203125,-1.0565279917836188,-0.051028030317276714,0.3621871158434078
1783170523042313500,8.7433134765625,-1.4407166942179201,0.10494710590094328,0.34637612752094865
