time,seconds_elapsed,z,y,x
1783170514372503600,0.073503662109375,0.9646110534667969,0.291965126991272,-0.05275094136595726
1783170514382572300,0.083572265625,0.9548545479774475,0.29941850900650024,-0.13299061357975006
1783170514392642600,0.093642578125,0.9407070875167847,0.2932303845882416,-0.22195804119110107
1783170514402711300,0.103711181640625,0.9238725304603577,0.28916507959365845,-0.2797580063343048
1783170514412781600,0.113781494140625,0.8994865417480469,0.28057295083999634,-0.28073352575302124
1783170514422850300,0.123850341796875,0.8884974122047424,0.25362130999565125,-0.2295953929424286
1783170514432920600,0.133920654296875,0.8918761610984802,0.22163863480091095,-0.1636243760585785
1783170514442989300,0.1439892578125,0.9060291647911072,0.2043992280960083,-0.12879694998264313
1783170514453059300,0.154059326171875,0.9114832878112793,0.2243628203868866,-0.14122246205806732
1783170514463128600,0.164128662109375,0.9165573716163635,0.2537531852722168,-0.17675739526748657
1783170514473198300,0.1741982421875,0.932814359664917,0.29018843173980713,-0.20482711493968964
1783170514483267600,0.184267578125,0.9618273377418518,0.3110213875770569,-0.22280654311180115
1783170514493337300,0.19433740234375,0.9962404370307922,0.3202122151851654,-0.23980896174907684
1783170514503406600,0.204406494140625,1.0323693752288818,0.3199591040611267,-0.2550280690193176
1783170514513476400,0.214476318359375,1.0429577827453613,0.32843542098999023,-0.28241628408432007
1783170514523545600,0.224545654296875,1.0454126596450806,0.3378330171108246,-0.29316461086273193
1783170514533615400,0.234615478515625,1.0372498035430908,0.3271276652812958,-0.2962312400341034
1783170514543684600,0.2446845703125,1.035579800605774,0.29707467555999756,-0.27968448400497437
1783170514553753300,0.25475341796875,1.045515775680542,0.2597526013851166,-0.2301691323518753
1783170514563823400,0.2648232421875,1.0794535875320435,0.2279358208179474,-0.16041457653045654
1783170514573892400,0.274892333984375,1.119455337524414,0.20261847972869873,-0.09914563596248627
1783170514583962400,0.28496240234375,1.1571029424667358,0.16867664456367493,-0.07045547664165497
1783170514594031600,0.295031494140625,1.1914117336273193,0.15110830962657928,-0.08313371986150742
1783170514604101400,0.305101318359375,1.2130786180496216,0.15285956859588623,-0.11209488660097122
1783170514614170600,0.315170654296875,1.2289584875106812,0.1440487802028656,-0.14240245521068573
1783170514624240400,0.325240478515625,1.2404321432113647,0.11795739829540253,-0.1554906666278839
1783170514634309600,0.3353095703125,1.2382582426071167,0.09393808245658875,-0.14082197844982147
1783170514644379400,0.34537939453125,1.2306143045425415,0.07262080162763596,-0.11510419845581055
1783170514654448400,0.355448486328125,1.2329943180084229,0.076755091547966,-0.0804080069065094
1783170514664518400,0.365518310546875,1.2285641431808472,0.0728510320186615,-0.053779397159814835
1783170514674587400,0.37558740234375,1.222071886062622,0.04759414494037628,-0.031576622277498245
1783170514684657700,0.38565771484375,1.220479130744934,0.009242904372513294,-0.0008275811560451984
1783170514694726400,0.395726318359375,1.2223730087280273,-0.03010210394859314,0.017913881689310074
1783170514704796700,0.405796630859375,1.213431715965271,-0.0752476304769516,0.027574874460697174
1783170514714865400,0.415865478515625,1.1826846599578857,-0.12498162686824799,0.0346924364566803
1783170514724934700,0.4259345703125,1.1458547115325928,-0.1568646878004074,0.04309077560901642
1783170514735004400,0.43600439453125,1.1054444313049316,-0.1597568839788437,0.043188512325286865
1783170514745073700,0.44607373046875,1.0809568166732788,-0.13538487255573273,0.043199699372053146
1783170514755143400,0.456143310546875,1.0171689987182617,-0.13237044215202332,0.01662641018629074
1783170514765212400,0.46621240234375,0.9517298340797424,-0.12161113321781158,-0.007555694319307804
1783170514775282400,0.476282470703125,0.9058675765991211,-0.13562734425067902,-0.02628091350197792
1783170514785351400,0.486351318359375,0.8551310300827026,-0.16049914062023163,-0.020547812804579735
1783170514795421400,0.49642138671875,0.7950674295425415,-0.17752845585346222,0.004436367191374302
1783170514805490400,0.506490478515625,0.7489760518074036,-0.19289302825927734,0.025555767118930817
1783170514815560700,0.516560791015625,0.7160865664482117,-0.19947449862957,0.021806037053465843
1783170514825629400,0.52662939453125,0.6716200709342957,-0.17768332362174988,0.017294203862547874
1783170514835699500,0.536699462890625,0.6250174045562744,-0.14991188049316406,0.010212325491011143
1783170514845768400,0.5467685546875,0.5822570323944092,-0.11775153875350952,-0.003851979738101363
1783170514855838500,0.55683837890625,0.537887692451477,-0.08103267848491669,-0.014638314954936504
1783170514865907500,0.566907470703125,0.4950167238712311,-0.05543209984898567,-0.025906357914209366
1783170514875977500,0.5769775390625,0.4558104872703552,-0.04174744710326195,-0.028027834370732307
1783170514886046500,0.58704638671875,0.42954787611961365,-0.03730572760105133,-0.018407311290502548
1783170514896115500,0.597115478515625,0.4084135890007019,-0.04499959945678711,0.006953438278287649
1783170514906185500,0.607185546875,0.37861478328704834,-0.08182109147310257,0.030745862051844597
1783170514916254500,0.61725439453125,0.33469313383102417,-0.13693948090076447,0.04462412744760513
1783170514926324500,0.627324462890625,0.2808104157447815,-0.16798901557922363,0.05703873187303543
1783170514936393500,0.6373935546875,0.2410757690668106,-0.16360332071781158,0.07270397990942001
1783170514946463200,0.647463134765625,0.21747663617134094,-0.11739585548639297,0.08570163697004318
1783170514956532500,0.657532470703125,0.2024092674255371,-0.06444955617189407,0.10477093607187271
1783170514966602500,0.6676025390625,0.1919892579317093,-0.037244975566864014,0.13065814971923828
1783170514976671500,0.67767138671875,0.18293024599552155,-0.03956511616706848,0.18119269609451294
1783170514986741500,0.687741455078125,0.17226235568523407,-0.05759698525071144,0.22507460415363312
1783170514996810500,0.697810546875,0.15772655606269836,-0.07639011740684509,0.20145583152770996
1783170515006880500,0.707880615234375,0.14310342073440552,-0.009330254048109055,0.12433061748743057
1783170515016949500,0.717949462890625,0.13252800703048706,0.09104667603969574,0.021393049508333206
1783170515027019500,0.72801953125,0.14064666628837585,0.17246204614639282,-0.06253015249967575
1783170515037088500,0.738088623046875,0.16948071122169495,0.24198094010353088,-0.10562595725059509
1783170515047157500,0.748157470703125,0.21874800324440002,0.2780351936817169,-0.10517832636833191
1783170515057227300,0.758227294921875,0.2788366377353668,0.2757613956928253,-0.06753028184175491
1783170515067296800,0.768296875,0.33028337359428406,0.2401941865682602,0.007599185220897198
1783170515077366800,0.77836669921875,0.36965101957321167,0.19210122525691986,0.085031658411026
1783170515087435800,0.788435791015625,0.3917709290981293,0.13065482676029205,0.12887953221797943
1783170515097505800,0.798505859375,0.40482762455940247,0.06097082048654556,0.1326311230659485
1783170515107574800,0.80857470703125,0.40073829889297485,0.0016996180638670921,0.11269242316484451
1783170515117644800,0.818644775390625,0.3961893618106842,-0.032065004110336304,0.0790519043803215
1783170515127713800,0.8287138671875,0.40153929591178894,-0.02193126454949379,0.04767698049545288
1783170515137783800,0.83878369140625,0.4126715660095215,0.016711736097931862,0.029101962223649025
1783170515147852500,0.8488525390625,0.4225951135158539,0.0636291578412056,0.019157882779836655
1783170515157922800,0.8589228515625,0.4336003363132477,0.10487700253725052,0.01847957633435726
1783170515167991600,0.868991455078125,0.4318579137325287,0.12817764282226562,0.023718105629086494
1783170515178061800,0.879061767578125,0.41628268361091614,0.13690561056137085,0.026979679241776466
1783170515188130800,0.889130859375,0.40348517894744873,0.13840393722057343,0.03850525990128517
1783170515198200600,0.89920068359375,0.3987271785736084,0.1487298160791397,0.04738477244973183
1783170515208269800,0.909269775390625,0.395282119512558,0.12352138012647629,0.0499102845788002
1783170515218338800,0.9193388671875,0.38456210494041443,0.07660846412181854,0.03342478722333908
1783170515228408800,0.929408935546875,0.3764539062976837,0.030425818637013435,0.006428804248571396
1783170515238477800,0.939477783203125,0.36854273080825806,-0.015207180753350258,-0.027153922244906425
1783170515248547800,0.9495478515625,0.35200369358062744,-0.05756477639079094,-0.05666503310203552
1783170515258616600,0.959616455078125,0.3331455886363983,-0.08124854415655136,-0.08246014267206192
1783170515268686800,0.969686767578125,0.2993622124195099,-0.0993199348449707,-0.10436173528432846
1783170515278755600,0.979755615234375,0.2679142653942108,-0.09493531286716461,-0.12773524224758148
1783170515288825900,0.989825927734375,0.23506316542625427,-0.09347416460514069,-0.1530892699956894
1783170515298894600,0.99989453125,0.20841585099697113,-0.09055453538894653,-0.16129474341869354
1783170515308964600,1.009964599609375,0.19712887704372406,-0.08799698948860168,-0.15280196070671082
1783170515319033900,1.020033935546875,0.2075684666633606,-0.07123345881700516,-0.12903617322444916
1783170515329103600,1.030103515625,0.22580446302890778,-0.03563471511006355,-0.09842126816511154
1783170515339172900,1.0401728515625,0.24496138095855713,-0.011423119343817234,-0.06176338717341423
1783170515349242600,1.05024267578125,0.2625311613082886,0.02030739188194275,-0.014675122685730457
1783170515359312000,1.060311767578125,0.2828742563724518,0.05218755826354027,0.039350561797618866
1783170515369380600,1.070380615234375,0.29050973057746887,0.06673389673233032,0.08919498324394226
1783170515379451000,1.080450927734375,0.2942400276660919,0.06177082657814026,0.13140422105789185
1783170515389519600,1.09051953125,0.2953110337257385,0.05036167800426483,0.14193329215049744
1783170515399590000,1.10058984375,0.2976231873035431,0.05638361722230911,0.1334601789712906
1783170515409658600,1.11065869140625,0.2933964729309082,0.0657072365283966,0.10766975581645966
1783170515419728600,1.120728759765625,0.28468233346939087,0.08202947676181793,0.07769614458084106
1783170515429797600,1.130797607421875,0.27002865076065063,0.09498351067304611,0.03601119667291641
1783170515439867600,1.14086767578125,0.2591158151626587,0.09303460270166397,-0.008718190714716911
1783170515449937000,1.15093701171875,0.2419387549161911,0.07265328615903854,-0.05919444561004639
1783170515460006700,1.161006591796875,0.2215607762336731,0.05331340432167053,-0.1155376136302948
1783170515470076000,1.171075927734375,0.19931726157665253,0.03183676302433014,-0.14340291917324066
1783170515480145700,1.181145751953125,0.1797371655702591,0.01680614985525608,-0.1385626196861267
1783170515490215000,1.19121484375,0.17786343395709991,0.008099460043013096,-0.10621515661478043
1783170515500283600,1.20128369140625,0.19494947791099548,0.01344921812415123,-0.08346563577651978
1783170515510354000,1.21135400390625,0.21957270801067352,0.014409547671675682,-0.0915275439620018
1783170515520422700,1.221422607421875,0.2301340103149414,0.029342424124479294,-0.12099116295576096
1783170515530492700,1.23149267578125,0.23543955385684967,0.04182375222444534,-0.15296758711338043
1783170515540561700,1.241561767578125,0.23497723042964935,0.03999309241771698,-0.16961607336997986
1783170515550631700,1.251631591796875,0.23975595831871033,0.04617013782262802,-0.16177627444267273
1783170515560700700,1.26170068359375,0.24328571557998657,0.05204267427325249,-0.15198330581188202
1783170515570770700,1.271770751953125,0.2558329403400421,0.08977021276950836,-0.14255471527576447
1783170515580839700,1.281839599609375,0.2759810984134674,0.1334410011768341,-0.14321784675121307
1783170515590909700,1.29190966796875,0.3063487112522125,0.1587735265493393,-0.15256062150001526
1783170515600979000,1.30197900390625,0.33781132102012634,0.14738212525844574,-0.14448325335979462
1783170515611048700,1.312048583984375,0.35942721366882324,0.11392830312252045,-0.11477704346179962
1783170515621118000,1.322117919921875,0.3853842616081238,0.08519412577152252,-0.0642547458410263
1783170515631187700,1.332187744140625,0.4130120277404785,0.062047380954027176,-0.03240005671977997
1783170515641256700,1.342256591796875,0.4486432373523712,0.05334949493408203,-0.022863544523715973
1783170515651326700,1.35232666015625,0.4931177496910095,0.0518953874707222,-0.034296855330467224
1783170515661395700,1.362395751953125,0.5338073968887329,0.04574987664818764,-0.03606972098350525
1783170515671464700,1.372464599609375,0.5609193444252014,0.006603040732443333,-0.011395326815545559
1783170515681534700,1.38253466796875,0.5778000354766846,-0.04088485240936279,0.02821892872452736
1783170515691603700,1.392603759765625,0.5811091065406799,-0.07063807547092438,0.06696878373622894
1783170515701673700,1.402673828125,0.5811761617660522,-0.07384505867958069,0.08616776764392853
1783170515711742700,1.41274267578125,0.5816407203674316,-0.06040516495704651,0.0905190035700798
1783170515721812700,1.422812744140625,0.5896773338317871,-0.03915207460522652,0.08058275282382965
1783170515731882000,1.432882080078125,0.5985477566719055,-0.02865150198340416,0.06853076070547104
1783170515741951700,1.44295166015625,0.5939269065856934,-0.0005887085571885109,0.07475429773330688
1783170515752020700,1.453020751953125,0.5981842279434204,0.030672410503029823,0.08250588923692703
1783170515762090800,1.4630908203125,0.6210554838180542,0.07553122937679291,0.0816507488489151
1783170515772159700,1.47315966796875,0.6558031439781189,0.09924839437007904,0.03959553688764572
1783170515782229800,1.483229736328125,0.6943817138671875,0.06616207957267761,-0.029176337644457817
1783170515792298800,1.493298828125,0.7200016379356384,-0.01219994481652975,-0.08993526548147202
1783170515802367700,1.50336767578125,0.7301107048988342,-0.12210513651371002,-0.10176529735326767
1783170515812437800,1.513437744140625,0.7127785682678223,-0.21820931136608124,-0.07426948845386505
1783170515822506800,1.5235068359375,0.7098661661148071,-0.29102596640586853,-0.019959114491939545
1783170515832576800,1.53357666015625,0.7210125923156738,-0.321163535118103,0.016898203641176224
1783170515842645800,1.543645751953125,0.7629054188728333,-0.31083977222442627,0.028921043500304222
1783170515852715800,1.5537158203125,0.8229981064796448,-0.23120979964733124,0.011942119337618351
1783170515862784800,1.56378466796875,0.8970773816108704,-0.07596082240343094,-0.014250336214900017
1783170515872854800,1.573854736328125,0.9651641249656677,0.15086393058300018,-0.05855888873338699
1783170515882923800,1.583923828125,1.0474518537521362,0.38925254344940186,-0.11516464501619339
1783170515892993800,1.593993896484375,1.139793872833252,0.5932219624519348,-0.1798935830593109
1783170515903062800,1.604062744140625,1.2852379083633423,0.7943018078804016,-0.2414458990097046
1783170515913132500,1.614132568359375,1.37086021900177,0.9501655101776123,-0.2428227961063385
1783170515923201800,1.624201904296875,1.3948968648910522,0.9230521321296692,-0.22377267479896545
1783170515933271600,1.634271484375,1.3730039596557617,0.8898175954818726,-0.11795295774936676
1783170515943340800,1.6443408203125,1.3296631574630737,0.743854820728302,-0.004385386593639851
1783170515953409800,1.654409912109375,1.2970043420791626,0.5695170164108276,0.10383901745080948
1783170515963479800,1.664479736328125,1.270065426826477,0.40816402435302734,0.1822238266468048
1783170515973548500,1.674548583984375,1.2331228256225586,0.27635592222213745,0.2194403111934662
1783170515983618800,1.684618896484375,1.2053598165512085,0.15888071060180664,0.2348743975162506
1783170515993687800,1.694687744140625,1.2006733417510986,0.08226074278354645,0.2272435426712036
1783170516003757800,1.7047578125,1.2064532041549683,0.03816146031022072,0.21302279829978943
1783170516013826800,1.714826904296875,1.2020028829574585,0.02557404339313507,0.20370836555957794
1783170516023896600,1.724896484375,1.1705107688903809,0.034990184009075165,0.20462529361248016
1783170516033965800,1.7349658203125,1.1282944679260254,0.04866659268736839,0.19642274081707
1783170516044035600,1.74503564453125,1.0795141458511353,0.06359121203422546,0.18596503138542175
1783170516054104800,1.755104736328125,1.0344370603561401,0.06043322756886482,0.1753562092781067
1783170516064174600,1.765174560546875,0.997145414352417,0.04604869708418846,0.16529665887355804
1783170516074243600,1.77524365234375,0.9714330434799194,0.03562469780445099,0.15227290987968445
1783170516084312600,1.7853125,0.951147198677063,0.01042933203279972,0.14631381630897522
1783170516094382600,1.795382568359375,0.9417438507080078,-0.023831171914935112,0.12896838784217834
1783170516104451600,1.80545166015625,0.9338834881782532,-0.06481508910655975,0.10671155154705048
1783170516114521600,1.815521484375,0.9298586249351501,-0.10126766562461853,0.08279720693826675
1783170516124590600,1.825590576171875,0.9136210680007935,-0.15593117475509644,0.07032881677150726
1783170516134660600,1.83566064453125,0.8896594047546387,-0.23339173197746277,0.06884761899709702
1783170516144729600,1.8457294921875,0.8479868173599243,-0.3321409523487091,0.07954766601324081
1783170516154799600,1.855799560546875,0.7935367822647095,-0.36982065439224243,0.10052736848592758
1783170516164868600,1.86586865234375,0.7472686171531677,-0.34336453676223755,0.1274316906929016
1783170516174938600,1.875938720703125,0.7298993468284607,-0.2528269290924072,0.1287418007850647
1783170516185007600,1.886007568359375,0.7283837199211121,-0.10925138741731644,0.10699629783630371
1783170516195077600,1.89607763671875,0.7388989925384521,0.05723559856414795,0.0767877846956253
1783170516205146600,1.906146728515625,0.7331969141960144,0.20515716075897217,0.0686507597565651
1783170516215216600,1.916216552734375,0.7123335599899292,0.3213402032852173,0.07107305526733398
1783170516225285600,1.92628564453125,0.692612886428833,0.4179234802722931,0.07461346685886383
1783170516235354600,1.936354736328125,0.6854338645935059,0.4778127670288086,0.06724725663661957
1783170516245424400,1.94642431640625,0.6866669058799744,0.5104880928993225,0.05613841116428375
1783170516255493600,1.95649365234375,0.692055344581604,0.519530177116394,0.03729196637868881
1783170516265563400,1.9665634765625,0.702052891254425,0.5020467638969421,0.032433561980724335
1783170516275632600,1.976632568359375,0.7074469923973083,0.45933079719543457,0.03879956528544426
1783170516285702400,1.986702392578125,0.7055002450942993,0.4053376019001007,0.05913173407316208
1783170516295771600,1.996771728515625,0.7081457376480103,0.3625694215297699,0.07993712276220322
1783170516305841700,2.006841552734375,0.7087588310241699,0.32772061228752136,0.08866243809461594
1783170516315910700,2.01691064453125,0.7089810371398926,0.3056485652923584,0.08147258311510086
1783170516325980700,2.026980712890625,0.7067506909370422,0.2944454550743103,0.06043361872434616
1783170516336049700,2.037049560546875,0.6970021724700928,0.2814384698867798,0.04319285973906517
1783170516346119700,2.04711962890625,0.6866084337234497,0.24614067375659943,0.025781378149986267
1783170516356188400,2.0571884765625,0.6709488034248352,0.20086225867271423,0.014353599399328232
1783170516366257700,2.067257568359375,0.6525764465332031,0.15526387095451355,0.015816206112504005
1783170516376327400,2.077327392578125,0.6354480981826782,0.10302744060754776,0.029787207022309303
1783170516386396700,2.087396728515625,0.6143707633018494,0.06086001545190811,0.049348391592502594
1783170516396466400,2.097466552734375,0.5974097847938538,0.028240807354450226,0.07203121483325958
1783170516406535700,2.10753564453125,0.5846005082130432,0.022396769374608994,0.08864641189575195
1783170516416605400,2.11760546875,0.5786609053611755,0.05181193724274635,0.08205624669790268
1783170516426674700,2.1276748046875,0.5738565325737,0.09319799393415451,0.05049858242273331
1783170516436744700,2.13774462890625,0.5549613237380981,0.13056984543800354,0.015113884583115578
1783170516446813700,2.147813720703125,0.5382742285728455,0.20122191309928894,0.00658511184155941
1783170516456883700,2.1578837890625,0.5245314836502075,0.25642845034599304,0.0008845787961035967
1783170516466952400,2.167952392578125,0.5022488236427307,0.3080415725708008,0.003302462864667177
1783170516477022700,2.178022705078125,0.48312392830848694,0.3312756419181824,0.004956114571541548
1783170516487091500,2.188091552734375,0.4748377799987793,0.3518677353858948,0.005990486592054367
1783170516497160700,2.19816064453125,0.47774139046669006,0.38486790657043457,-0.011209736578166485
1783170516507230500,2.20823046875,0.47617968916893005,0.40998896956443787,-0.02878020890057087
1783170516517299700,2.2182998046875,0.4721890687942505,0.4197382628917694,-0.0475030392408371
1783170516527369500,2.228369384765625,0.4537389278411865,0.40788161754608154,-0.06113123521208763
1783170516537438700,2.238438720703125,0.4292897582054138,0.368472158908844,-0.06578337401151657
1783170516547508500,2.248508544921875,0.40727847814559937,0.32808825373649597,-0.05610544607043266
1783170516557577700,2.25857763671875,0.3937331736087799,0.3080860376358032,-0.052878238260746
1783170516567647700,2.268647705078125,0.3904963433742523,0.29782649874687195,-0.0445081889629364
1783170516577716500,2.278716552734375,0.397163987159729,0.30215156078338623,-0.036581069231033325
1783170516587786800,2.288786865234375,0.4160047769546509,0.27928805351257324,-0.03867325186729431
1783170516597855500,2.29885546875,0.42943498492240906,0.181269109249115,-0.06379939615726471
1783170516607925800,2.30892578125,0.4129657447338104,0.07502096891403198,-0.08585835993289948
1783170516617994500,2.318994384765625,0.3889355957508087,-0.007943276315927505,-0.10565318912267685
1783170516628064500,2.329064453125,0.342214971780777,-0.0817144364118576,-0.13211356103420258
1783170516638133500,2.339133544921875,0.28595075011253357,-0.12737517058849335,-0.1569349467754364
1783170516648202800,2.34920263671875,0.2450624257326126,-0.1345614492893219,-0.18247707188129425
1783170516658272500,2.3592724609375,0.22506378591060638,-0.10646333545446396,-0.1930488646030426
1783170516668341800,2.369341796875,0.21784742176532745,-0.05699511244893074,-0.1657669097185135
1783170516678411500,2.37941162109375,0.23351265490055084,0.00023686140775680542,-0.10384058952331543
1783170516688480500,2.38948046875,0.26021909713745117,0.07155631482601166,-0.031177043914794922
1783170516698550800,2.39955078125,0.30148178339004517,0.1731271594762802,0.03739865869283676
1783170516708619500,2.40961962890625,0.33913570642471313,0.26319900155067444,0.05953751876950264
1783170516718689800,2.419689697265625,0.36587944626808167,0.3202926516532898,0.057660117745399475
1783170516728758500,2.429758544921875,0.3860505223274231,0.3360721468925476,0.05643666163086891
1783170516738828500,2.43982861328125,0.3885728120803833,0.3219089210033417,0.07655421644449234
1783170516748897500,2.4498974609375,0.3825213313102722,0.28239771723747253,0.12443598359823227
1783170516758967600,2.459967529296875,0.37516650557518005,0.24378415942192078,0.1919226348400116
1783170516769036500,2.47003662109375,0.369042307138443,0.23662903904914856,0.2562749981880188
1783170516779106600,2.4801064453125,0.360100656747818,0.24032524228096008,0.2867000102996826
1783170516789175600,2.490175537109375,0.35089170932769775,0.23230379819869995,0.2933776378631592
1783170516799244500,2.50024462890625,0.33412718772888184,0.20775890350341797,0.28934386372566223
1783170516809314600,2.510314453125,0.31137341260910034,0.15547998249530792,0.2789066731929779
1783170516819383600,2.520383544921875,0.2843042016029358,0.08556893467903137,0.24608725309371948
1783170516829453600,2.53045361328125,0.252046138048172,0.02243843674659729,0.1942722499370575
1783170516839522600,2.5405224609375,0.21051566302776337,-0.013568148948252201,0.1262582242488861
1783170516849592600,2.550592529296875,0.1632474958896637,-0.011115378700196743,0.04826781898736954
1783170516859661600,2.56066162109375,0.12257134914398193,0.016518639400601387,-0.025083614513278008
1783170516869731600,2.570731689453125,0.08387082815170288,0.04968884214758873,-0.07077493518590927
1783170516879800600,2.580800537109375,0.05947375297546387,0.08121852576732635,-0.09000147879123688
1783170516889870600,2.59087060546875,0.054648902267217636,0.10453850030899048,-0.090311199426651
1783170516899939600,2.600939697265625,0.06748171895742416,0.11998284608125687,-0.08391250669956207
1783170516910008600,2.611008544921875,0.08842295408248901,0.13715757429599762,-0.0671503022313118
1783170516920078600,2.62107861328125,0.11647051572799683,0.1659892201423645,-0.04673197492957115
1783170516930147600,2.631147705078125,0.1449223905801773,0.19167114794254303,-0.045068033039569855
1783170516940217600,2.641217529296875,0.16463658213615417,0.22635109722614288,-0.04692333936691284
1783170516950286600,2.65128662109375,0.19107244908809662,0.2636585235595703,-0.07655313611030579
1783170516960356400,2.6613564453125,0.21078842878341675,0.2864007353782654,-0.11179149150848389
1783170516970425600,2.671425537109375,0.22261126339435577,0.2881680130958557,-0.13860313594341278
1783170516980495600,2.68149560546875,0.22534698247909546,0.26503270864486694,-0.13405130803585052
1783170516990564600,2.691564697265625,0.23197585344314575,0.22679691016674042,-0.12055600434541702
1783170517000634600,2.701634521484375,0.24684058129787445,0.18728652596473694,-0.10459422320127487
1783170517010703600,2.71170361328125,0.2666401267051697,0.1511615365743637,-0.09775841981172562
1783170517020773600,2.721773681640625,0.29491114616394043,0.11533589661121368,-0.08859966695308685
1783170517030842600,2.731842529296875,0.31593361496925354,0.07980772852897644,-0.08350983262062073
1783170517040912600,2.74191259765625,0.325805127620697,0.04364410787820816,-0.08296292275190353
1783170517050981600,2.751981689453125,0.31659722328186035,0.011472055688500404,-0.08599892258644104
1783170517061051600,2.7620517578125,0.29886603355407715,-0.003807397559285164,-0.08452165126800537
1783170517071120600,2.77212060546875,0.27725741267204285,0.008014108054339886,-0.07740355283021927
1783170517081189600,2.782189697265625,0.2628158926963806,0.0262527447193861,-0.08471842110157013
1783170517091259600,2.792259765625,0.24883511662483215,0.04009026288986206,-0.09445280581712723
1783170517101328600,2.80232861328125,0.2410949468612671,0.0402936227619648,-0.0958876982331276
1783170517111398700,2.812398681640625,0.23891009390354156,0.02917492389678955,-0.08093245327472687
1783170517121467600,2.822467529296875,0.23697325587272644,0.01706644706428051,-0.03239890933036804
1783170517131537700,2.83253759765625,0.23086956143379211,0.000054175034165382385,0.033940963447093964
1783170517141606700,2.842606689453125,0.22043150663375854,0.002152763307094574,0.08349982649087906
1783170517151676700,2.8526767578125,0.20827390253543854,0.03135991841554642,0.0984249860048294
1783170517161745700,2.86274560546875,0.19836056232452393,0.07834777235984802,0.07772460579872131
1783170517171815700,2.872815673828125,0.18260449171066284,0.10005786269903183,0.0436052531003952
1783170517181884400,2.882884521484375,0.16145533323287964,0.09734013676643372,0.027419041842222214
1783170517191954700,2.89295458984375,0.1376405507326126,0.07684285193681717,0.038978226482868195
1783170517202023700,2.903023681640625,0.1210378035902977,0.053489986807107925,0.07401125133037567
1783170517212093700,2.91309375,0.10938967019319534,0.03349577262997627,0.1060168594121933
1783170517222162700,2.92316259765625,0.09034828841686249,0.012873691506683826,0.1220053881406784
1783170517232231700,2.933231689453125,0.06628768891096115,0.012332270853221416,0.11371656507253647
1783170517242301700,2.9433017578125,0.03591587394475937,0.028841067105531693,0.09301602095365524
1783170517252370700,2.95337060546875,-0.0050134481862187386,0.04645734652876854,0.07129953801631927
1783170517262440700,2.963440673828125,-0.04004460573196411,0.0719122439622879,0.05355229601264
1783170517272509700,2.973509765625,-0.07408326864242554,0.09727565944194794,0.04060773551464081
1783170517282579700,2.983579833984375,-0.10373543202877045,0.12092319875955582,0.0470467284321785
1783170517292648400,2.9936484375,-0.12257889658212662,0.1416681557893753,0.06656849384307861
1783170517302718700,3.00371875,-0.13100744783878326,0.15298819541931152,0.09928862005472183
1783170517312787500,3.013787353515625,-0.1258941888809204,0.14389777183532715,0.13990899920463562
1783170517322857700,3.023857666015625,-0.11341916024684906,0.12234120070934296,0.1697348803281784
1783170517332926500,3.033926513671875,-0.11299438029527664,0.09528161585330963,0.19087772071361542
1783170517342996500,3.04399658203125,-0.12083651125431061,0.07222158461809158,0.20197591185569763
1783170517353065700,3.054065673828125,-0.1367315948009491,0.03649953752756119,0.21890269219875336
1783170517363134700,3.064134765625,-0.163615420460701,0.027558639645576477,0.2116059511899948
1783170517373204700,3.074204833984375,-0.1809975951910019,0.03383943811058998,0.189697727560997
1783170517383273700,3.084273681640625,-0.19882018864154816,0.0823017880320549,0.16995199024677277
1783170517393343700,3.09434375,-0.19560016691684723,0.14047907292842865,0.15251733362674713
1783170517403412500,3.10441259765625,-0.1704704910516739,0.11674764752388,0.12896059453487396
1783170517413482800,3.114482666015625,-0.17073042690753937,0.0764353796839714,0.09432724863290787
1783170517423551500,3.124551513671875,-0.17263707518577576,-0.00015940330922603607,0.0787811279296875
1783170517433621800,3.134621826171875,-0.21000468730926514,-0.1792958676815033,0.050832848995923996
1783170517443690500,3.1446904296875,-0.32054588198661804,-0.40738096833229065,0.007428789511322975
1783170517453760500,3.154760498046875,-0.4207497239112854,-0.52597576379776,-0.028032001107931137
1783170517463829500,3.16482958984375,-0.451327919960022,-0.5150877833366394,-0.047232188284397125
1783170517473899500,3.1748994140625,-0.44326362013816833,-0.4246145486831665,-0.05262695252895355
1783170517483968800,3.18496875,-0.4333304166793823,-0.2690238952636719,-0.03778610751032829
1783170517494038500,3.19503857421875,-0.3964501619338989,-0.048354361206293106,-0.025625310838222504
1783170517504107800,3.205107666015625,-0.32923024892807007,0.14930252730846405,-0.041056353598833084
1783170517514176500,3.215176513671875,-0.29801613092422485,0.24595770239830017,-0.08357319235801697
1783170517524246800,3.225246826171875,-0.3168613314628601,0.2283192127943039,-0.13122323155403137
1783170517534315500,3.2353154296875,-0.36497268080711365,0.15201245248317719,-0.14977693557739258
1783170517544385800,3.2453857421875,-0.4095296263694763,0.049113884568214417,-0.15047764778137207
1783170517554454500,3.25545458984375,-0.42393118143081665,-0.02247108705341816,-0.11672128736972809
1783170517564524500,3.265524658203125,-0.40072429180145264,-0.027102336287498474,-0.049835171550512314
1783170517574593500,3.275593505859375,-0.34786003828048706,0.03538420796394348,0.02588941715657711
1783170517584663600,3.28566357421875,-0.2788756191730499,0.1279904544353485,0.09552115947008133
1783170517594732500,3.295732666015625,-0.20171238481998444,0.22584190964698792,0.14999079704284668
1783170517604802600,3.305802490234375,-0.14364643394947052,0.30913105607032776,0.19574423134326935
1783170517614871800,3.315871826171875,-0.10616671293973923,0.34569066762924194,0.2260294407606125
1783170517624941600,3.325941650390625,-0.08666746318340302,0.33720889687538147,0.251688688993454
1783170517635010800,3.3360107421875,-0.07120727747678757,0.296043336391449,0.2724727690219879
1783170517645080600,3.34608056640625,-0.060838665813207626,0.22927126288414001,0.27953824400901794
1783170517655149800,3.35614990234375,-0.04827946424484253,0.12903094291687012,0.2811127305030823
1783170517665218600,3.366218505859375,-0.042935460805892944,0.016603071242570877,0.28384000062942505
1783170517675288600,3.37628857421875,-0.05223868042230606,-0.10350256413221359,0.26977476477622986
1783170517685357600,3.386357666015625,-0.08125767856836319,-0.2068946361541748,0.23699016869068146
1783170517695427600,3.396427490234375,-0.13579869270324707,-0.2968471646308899,0.18677841126918793
1783170517705496600,3.40649658203125,-0.2193232774734497,-0.3674270510673523,0.1294097751379013
1783170517715566600,3.416566650390625,-0.3271019458770752,-0.4177549183368683,0.0747971311211586
1783170517725635600,3.426635498046875,-0.4312342405319214,-0.4429698586463928,0.029924001544713974
1783170517735705600,3.43670556640625,-0.5294859409332275,-0.44514593482017517,0.010261083953082561
1783170517745774800,3.44677490234375,-0.5955505967140198,-0.4272873103618622,0.0034108785912394524
1783170517755844600,3.4568447265625,-0.6427830457687378,-0.4059990644454956,-0.009994409047067165
1783170517765913600,3.46691357421875,-0.686327338218689,-0.3900917172431946,-0.02752399444580078
1783170517775983600,3.476983642578125,-0.7392558455467224,-0.35854631662368774,-0.03385912626981735
1783170517786052600,3.487052490234375,-0.7899023294448853,-0.3161417245864868,-0.022322669625282288
1783170517796121600,3.49712158203125,-0.8444675803184509,-0.26169097423553467,0.007954543456435204
1783170517806191600,3.507191650390625,-0.9055255055427551,-0.19895797967910767,0.04320915788412094
1783170517816260600,3.517260498046875,-0.961876630783081,-0.12385392189025879,0.06405159085988998
1783170517826330600,3.52733056640625,-1.0122084617614746,-0.0510508194565773,0.05557634308934212
1783170517836399600,3.537399658203125,-1.0579400062561035,-0.015601479448378086,0.02881716750562191
1783170517846469600,3.5474697265625,-1.10874605178833,-0.02156856283545494,0.000674353213980794
1783170517856538600,3.55753857421875,-1.1533817052841187,-0.05460533872246742,0.003090373007580638
1783170517866608600,3.567608642578125,-1.1944241523742676,-0.10181012749671936,0.01893003284931183
1783170517876677600,3.577677734375,-1.2326085567474365,-0.1559857428073883,0.047128647565841675
1783170517886747600,3.58774755859375,-1.2839107513427734,-0.20886310935020447,0.06609413027763367
1783170517896816600,3.597816650390625,-1.3439264297485352,-0.23176495730876923,0.08040168881416321
1783170517906886700,3.60788671875,-1.4182789325714111,-0.2364467829465866,0.07293377071619034
1783170517916955600,3.61795556640625,-1.4965434074401855,-0.23435992002487183,0.04730804264545441
1783170517927025700,3.628025634765625,-1.553074836730957,-0.22912414371967316,0.023405104875564575
1783170517937094700,3.6380947265625,-1.585647463798523,-0.24054937064647675,0.00612997729331255
1783170517947163600,3.64816357421875,-1.5957980155944824,-0.2780800759792328,0.01080185454338789
1783170517957233700,3.658233642578125,-1.6018462181091309,-0.3260774314403534,0.027785364538431168
1783170517967302700,3.668302734375,-1.606477975845337,-0.3586871922016144,0.042328450828790665
1783170517977372700,3.67837255859375,-1.619107723236084,-0.37936824560165405,0.0537952221930027
1783170517987441700,3.688441650390625,-1.640815019607544,-0.3899894654750824,0.07319353520870209
1783170517997511700,3.69851171875,-1.65404212474823,-0.3889646828174591,0.07969005405902863
1783170518007580400,3.708580322265625,-1.6672347784042358,-0.3913358449935913,0.07473532110452652
1783170518017650700,3.718650634765625,-1.6736010313034058,-0.4018731713294983,0.06088981777429581
1783170518027719700,3.7287197265625,-1.679585576057434,-0.4237460792064667,0.04238874092698097
1783170518037789700,3.738789794921875,-1.6851906776428223,-0.4495904743671417,0.03763153403997421
1783170518047858700,3.748858642578125,-1.6939876079559326,-0.47862040996551514,0.04649878665804863
1783170518057928400,3.758928466796875,-1.7064543962478638,-0.4987509548664093,0.06394781917333603
1783170518067997000,3.768996826171875,-1.7124972343444824,-0.5096928477287292,0.06990011036396027
1783170518078067000,3.77906689453125,-1.7160102128982544,-0.4982348680496216,0.06290557980537415
1783170518088136000,3.789135986328125,-1.7145932912826538,-0.5042165517807007,0.04686255380511284
1783170518098205200,3.799205078125,-1.720871090888977,-0.5364317297935486,0.0322340726852417
1783170518108275000,3.80927490234375,-1.7333017587661743,-0.5613709092140198,0.03134148567914963
1783170518118344200,3.81934423828125,-1.738460898399353,-0.5728193521499634,0.021753838285803795
1783170518128414000,3.8294140625,-1.7590614557266235,-0.5934613347053528,-0.004229996353387833
1783170518138483000,3.83948291015625,-1.7899953126907349,-0.6022282242774963,-0.02925492450594902
1783170518148553000,3.849552978515625,-1.8291208744049072,-0.5862347483634949,-0.054703593254089355
1783170518158622000,3.8596220703125,-1.8621238470077515,-0.5553413033485413,-0.07377582043409348
1783170518168692200,3.869692138671875,-1.8834751844406128,-0.5122696757316589,-0.09101781994104385
1783170518178761000,3.879760986328125,-1.895694613456726,-0.4814028739929199,-0.09191051125526428
1783170518188831000,3.8898310546875,-1.9073704481124878,-0.46064525842666626,-0.07861261814832687
1783170518198900000,3.89989990234375,-1.9254509210586548,-0.45378148555755615,-0.06515433639287949
1783170518208970000,3.909969970703125,-1.9452836513519287,-0.45157507061958313,-0.05798162892460823
1783170518219039000,3.9200390625,-1.95572030544281,-0.452785462141037,-0.07332570105791092
1783170518229109000,3.93010888671875,-1.9791854619979858,-0.4718245565891266,-0.07302723824977875
1783170518239178000,3.940177978515625,-1.9903981685638428,-0.4679693579673767,-0.054597098380327225
1783170518249247000,3.9502470703125,-1.9798457622528076,-0.4564094841480255,-0.025063639506697655
1783170518259317000,3.96031689453125,-1.954358696937561,-0.4219023883342743,0.0018047263147309422
1783170518269386000,3.970385986328125,-1.9142457246780396,-0.37302762269973755,0.0216574314981699
1783170518279456000,3.9804560546875,-1.8626453876495361,-0.3516291379928589,0.048772141337394714
1783170518289525000,3.99052490234375,-1.8013744354248047,-0.3370946943759918,0.07788719981908798
1783170518299595000,4.000594970703125,-1.7396221160888672,-0.32130616903305054,0.10368816554546356
1783170518309664000,4.0106640625,-1.6992779970169067,-0.33372312784194946,0.12551207840442657
1783170518319734000,4.020734130859375,-1.6834747791290283,-0.3732566833496094,0.12928897142410278
1783170518329803000,4.030802978515625,-1.680161476135254,-0.4131748080253601,0.11393891274929047
1783170518339873000,4.040873046875,-1.6795941591262817,-0.4349704086780548,0.0818004235625267
1783170518349942000,4.05094189453125,-1.691429615020752,-0.4522489905357361,0.06050005555152893
1783170518360011000,4.061010986328125,-1.7054927349090576,-0.4458083510398865,0.04122089967131615
1783170518370081000,4.0710810546875,-1.716289758682251,-0.40659451484680176,0.01984749175608158
1783170518380150000,4.08114990234375,-1.7238882780075073,-0.341042160987854,-0.0024631412234157324
1783170518390220000,4.091219970703125,-1.7304537296295166,-0.2816704511642456,-0.01199325080960989
1783170518400289000,4.1012890625,-1.7216806411743164,-0.24205857515335083,0.0000018933787941932678
1783170518410358800,4.11135888671875,-1.6959012746810913,-0.228257417678833,0.038517121225595474
1783170518420428000,4.121427978515625,-1.666358232498169,-0.2509334087371826,0.10755850374698639
1783170518430497800,4.131497802734375,-1.6396682262420654,-0.28450697660446167,0.18305468559265137
1783170518440567000,4.141567138671875,-1.6092042922973633,-0.28554534912109375,0.2272016406059265
1783170518450637000,4.151636962890625,-1.5718988180160522,-0.2434273213148117,0.23411794006824493
1783170518460706000,4.1617060546875,-1.5291305780410767,-0.16115827858448029,0.2070775330066681
1783170518470776000,4.171776123046875,-1.4937548637390137,-0.050579413771629333,0.1718638837337494
1783170518480845000,4.181844970703125,-1.4507200717926025,0.03230854496359825,0.12906129658222198
1783170518490915000,4.1919150390625,-1.405674934387207,0.04854034632444382,0.10011060535907745
1783170518500984000,4.201984130859375,-1.3525848388671875,0.009700538590550423,0.09448627382516861
1783170518511053000,4.212052978515625,-1.2982393503189087,-0.07794847339391708,0.10606987029314041
1783170518521122800,4.222122802734375,-1.2311934232711792,-0.17944633960723877,0.09828278422355652
1783170518531192000,4.232192138671875,-1.1889067888259888,-0.272787481546402,0.09264633804559708
1783170518541261800,4.24226171875,-1.1582362651824951,-0.34276893734931946,0.09017812460660934
1783170518551331000,4.2523310546875,-1.1463857889175415,-0.39435917139053345,0.060596540570259094
1783170518561400800,4.26240087890625,-1.1583932638168335,-0.4107053875923157,0.03649413585662842
1783170518571470000,4.272469970703125,-1.1801987886428833,-0.4201781451702118,-0.011410724371671677
1783170518581540000,4.2825400390625,-1.2160009145736694,-0.43412086367607117,-0.06147495657205582
1783170518591609000,4.292609130859375,-1.262334942817688,-0.4465554356575012,-0.1136835590004921
1783170518601679000,4.30267919921875,-1.2847579717636108,-0.42781370878219604,-0.14700528979301453
1783170518611748000,4.312748046875,-1.3134229183197021,-0.5187686085700989,-0.16208720207214355
1783170518621818000,4.322818115234375,-1.3184922933578491,-0.5785840153694153,-0.1234857514500618
1783170518631886800,4.332886962890625,-1.2835400104522705,-0.6301943063735962,-0.0739009827375412
1783170518641956000,4.3429560546875,-1.2387582063674927,-0.6555300354957581,-0.021394629031419754
1783170518652025900,4.35302587890625,-1.211499571800232,-0.6481457352638245,0.00424586096778512
1783170518662095000,4.36309521484375,-1.2111835479736328,-0.611701488494873,0.0020010825246572495
1783170518672164900,4.373164794921875,-1.2249634265899658,-0.5592744946479797,-0.004869746044278145
1783170518682234000,4.383234130859375,-1.2443307638168335,-0.5136878490447998,-0.026967590674757957
1783170518692304000,4.393303955078125,-1.2623836994171143,-0.4707619547843933,-0.051034461706876755
1783170518702373000,4.403373046875,-1.278167963027954,-0.45894283056259155,-0.05505743250250816
1783170518712443100,4.413443115234375,-1.2936441898345947,-0.48409971594810486,-0.04331348463892937
1783170518722512100,4.42351220703125,-1.3064457178115845,-0.527984082698822,-0.04025857150554657
1783170518732582100,4.43358203125,-1.3209478855133057,-0.5653985738754272,-0.06419956684112549
1783170518742651000,4.44365087890625,-1.344247817993164,-0.5813048481941223,-0.11408669501543045
1783170518752721200,4.45372119140625,-1.3819646835327148,-0.5484350323677063,-0.18727415800094604
1783170518762790000,4.463789794921875,-1.4183448553085327,-0.4852432608604431,-0.25726228952407837
1783170518772859100,4.473859130859375,-1.445951223373413,-0.383413702249527,-0.2832506597042084
1783170518782929000,4.483928955078125,-1.450486421585083,-0.25165724754333496,-0.24193784594535828
1783170518792998100,4.493998046875,-1.4278438091278076,-0.15371392667293549,-0.17863917350769043
1783170518803068000,4.50406787109375,-1.3675687313079834,-0.07832835614681244,-0.11904802173376083
1783170518813137200,4.51413720703125,-1.300370216369629,-0.03332960605621338,-0.06652067601680756
1783170518823207000,4.52420703125,-1.2392171621322632,-0.013526341877877712,-0.046412210911512375
1783170518833276200,4.534276123046875,-1.195283055305481,0.00845950935035944,-0.030610261484980583
1783170518843346200,4.54434619140625,-1.1731793880462646,0.014609813690185547,-0.022061515599489212
1783170518853415000,4.554414794921875,-1.1532598733901978,0.019420284777879715,-0.013583747670054436
1783170518863485200,4.564485107421875,-1.1313273906707764,0.034053023904561996,-0.005297854542732239
1783170518873554000,4.574553955078125,-1.094172477722168,0.045845091342926025,0.013692162930965424
1783170518883624200,4.584624267578125,-1.0467532873153687,0.03956376016139984,0.05187150463461876
1783170518893693000,4.59469287109375,-0.9973950982093811,0.032141394913196564,0.10441481322050095
1783170518903762200,4.60476220703125,-0.9476051926612854,0.03494303673505783,0.15379434823989868
1783170518913832000,4.61483203125,-0.8999226093292236,0.05064040422439575,0.18316957354545593
1783170518923901200,4.624901123046875,-0.8613877296447754,0.08597628772258759,0.19241367280483246
1783170518933971000,4.634970947265625,-0.8288454413414001,0.11764724552631378,0.17518830299377441
1783170518944040000,4.6450400390625,-0.800234854221344,0.12987089157104492,0.1428719162940979
1783170518954110000,4.65510986328125,-0.7827016115188599,0.11873701214790344,0.11239855736494064
1783170518964179000,4.665178955078125,-0.759754478931427,0.09564394503831863,0.09422861039638519
1783170518974249000,4.6752490234375,-0.7350121736526489,0.0586751326918602,0.0924728661775589
1783170518984318000,4.68531787109375,-0.693912148475647,0.01324586570262909,0.11597420275211334
1783170518994388200,4.69538818359375,-0.6527338027954102,-0.012461221776902676,0.1593014895915985
1783170519004457000,4.70545703125,-0.6172458529472351,-0.03376225009560585,0.19692769646644592
1783170519014526000,4.71552587890625,-0.575714111328125,-0.05097838491201401,0.1997188776731491
1783170519024596000,4.725595947265625,-0.5227915048599243,-0.08659177273511887,0.17586787045001984
1783170519034665200,4.735665283203125,-0.4822750389575958,-0.16892807185649872,0.12912282347679138
1783170519044735000,4.74573486328125,-0.46703776717185974,-0.27782127261161804,0.0733807310461998
1783170519054804000,4.755803955078125,-0.46090278029441833,-0.3692445158958435,0.04569908231496811
1783170519064874000,4.7658740234375,-0.456176221370697,-0.4146665930747986,0.04072323441505432
1783170519074943000,4.77594287109375,-0.4391476809978485,-0.45104390382766724,0.07302585244178772
1783170519085013000,4.786012939453125,-0.4236670136451721,-0.44410210847854614,0.10143353044986725
1783170519095082000,4.79608203125,-0.3933755159378052,-0.3170895278453827,0.13698510825634003
1783170519105152000,4.806152099609375,-0.3566973805427551,-0.16844788193702698,0.16394855082035065
1783170519115221000,4.816220947265625,-0.3453724980354309,-0.04234042018651962,0.1491880565881729
1783170519125290800,4.826290771484375,-0.34503641724586487,0.06321423500776291,0.09203848987817764
1783170519135360000,4.836360107421875,-0.342314749956131,0.1474982053041458,0.029406549409031868
1783170519145429000,4.846428955078125,-0.3500775992870331,0.19439195096492767,-0.0037189132999628782
1783170519155499000,4.8564990234375,-0.36486420035362244,0.1971849501132965,-0.0008479675743728876
1783170519165568000,4.866568115234375,-0.3521233797073364,0.16265760362148285,0.06043216958642006
1783170519175638000,4.876637939453125,-0.3110949695110321,0.11698479950428009,0.13388603925704956
1783170519185706800,4.886706787109375,-0.25985148549079895,0.07415771484375,0.2069551944732666
1783170519195777000,4.896777099609375,-0.21035581827163696,0.05221430957317352,0.25087448954582214
1783170519205846000,4.906845947265625,-0.18202272057533264,0.05652623623609543,0.2701432704925537
1783170519215916000,4.916916015625,-0.19040262699127197,0.07762379944324493,0.2614637613296509
1783170519225985000,4.926985107421875,-0.22268040478229523,0.10646902769804001,0.2365434765815735
1783170519236054800,4.9370546875,-0.26844313740730286,0.1296786367893219,0.21040192246437073
1783170519246124000,4.9471240234375,-0.30291321873664856,0.14902622997760773,0.17614221572875977
1783170519256193800,4.95719384765625,-0.3191443681716919,0.1691201627254486,0.16228149831295013
1783170519266263000,4.967262939453125,-0.29709312319755554,0.18100371956825256,0.16438113152980804
1783170519276331800,4.977331787109375,-0.23185878992080688,0.16222535073757172,0.1837443858385086
1783170519286402000,4.987402099609375,-0.15055647492408752,0.10372477024793625,0.21740248799324036
1783170519296470800,4.997470703125,-0.08153315633535385,0.02918928489089012,0.2587340772151947
1783170519306541000,5.007541015625,-0.03774092718958855,-0.05020913481712341,0.3013289272785187
1783170519316609800,5.01760986328125,-0.023252777755260468,-0.12030286341905594,0.31998512148857117
1783170519326680000,5.02768017578125,-0.04636795073747635,-0.19308358430862427,0.3134521245956421
1783170519336749000,5.0377490234375,-0.0978749617934227,-0.2765640914440155,0.2835281491279602
1783170519346818800,5.04781884765625,-0.1870833933353424,-0.36075541377067566,0.2382781207561493
1783170519356888000,5.05788818359375,-0.3026362955570221,-0.434000164270401,0.1804598718881607
1783170519366957800,5.067957763671875,-0.4111614227294922,-0.47997140884399414,0.13540904223918915
1783170519377027000,5.078027099609375,-0.4994624853134155,-0.5034121870994568,0.12306138873100281
1783170519387096800,5.088096923828125,-0.581845223903656,-0.5152754783630371,0.1155233085155487
1783170519397166000,5.098166015625,-0.6565077900886536,-0.522689938545227,0.10905805975198746
1783170519407234800,5.10823486328125,-0.7116794586181641,-0.520526647567749,0.0962384045124054
1783170519417305000,5.11830517578125,-0.7472293972969055,-0.515612006187439,0.08002784848213196
1783170519427373800,5.128373779296875,-0.7743550539016724,-0.48988986015319824,0.08436160534620285
1783170519437444000,5.138444091796875,-0.807492733001709,-0.43410512804985046,0.10555916279554367
1783170519447512800,5.148512939453125,-0.8442779183387756,-0.3288687467575073,0.14068599045276642
1783170519457582800,5.158582763671875,-0.8892190456390381,-0.17615027725696564,0.16172176599502563
1783170519467651800,5.16865185546875,-0.9270716309547424,0.0023384960368275642,0.13072949647903442
1783170519477721900,5.178721923828125,-0.958318293094635,0.15360939502716064,0.049093931913375854
1783170519487791000,5.188791015625,-0.9842721223831177,0.24483303725719452,-0.0020613970700651407
1783170519497860900,5.19886083984375,-1.0018138885498047,0.2439175695180893,-0.004157489165663719
1783170519507930000,5.20893017578125,-1.0200587511062622,0.17546768486499786,0.05077020823955536
1783170519517999900,5.218999755859375,-1.032273530960083,0.06318973749876022,0.11201778054237366
1783170519528069000,5.229069091796875,-1.045263409614563,-0.04684408754110336,0.14577388763427734
1783170519538137900,5.239137939453125,-1.0616141557693481,-0.11626271158456802,0.15058042109012604
1783170519548207900,5.249207763671875,-1.0694624185562134,-0.13178974390029907,0.13582277297973633
1783170519558276900,5.25927685546875,-1.0779253244400024,-0.11158528178930283,0.10639400780200958
1783170519568347000,5.269346923828125,-1.087454915046692,-0.07781612873077393,0.0797640010714531
1783170519578415900,5.279415771484375,-1.0817445516586304,-0.03906631842255592,0.08114028722047806
1783170519588486000,5.28948583984375,-1.0698530673980713,-0.019266247749328613,0.11285427212715149
1783170519598555000,5.299554931640625,-1.0488202571868896,-0.031095614656805992,0.13812601566314697
1783170519608625000,5.309625,-1.024675726890564,-0.06786428391933441,0.15165860950946808
1783170519618694100,5.319694091796875,-1.0090434551239014,-0.10608159005641937,0.14220565557479858
1783170519628763000,5.329762939453125,-1.0140531063079834,-0.15222777426242828,0.11925879865884781
1783170519638831900,5.339831787109375,-1.0308241844177246,-0.19028303027153015,0.08810967952013016
1783170519648902000,5.34990185546875,-1.053956151008606,-0.20852434635162354,0.06666617095470428
1783170519658971100,5.35997119140625,-1.0792902708053589,-0.20725800096988678,0.055893007665872574
1783170519669041000,5.370041015625,-1.0936174392700195,-0.19852308928966522,0.06295783817768097
1783170519679110100,5.380110107421875,-1.0924420356750488,-0.1887585073709488,0.0859370157122612
1783170519689180000,5.390179931640625,-1.0691407918930054,-0.16941650211811066,0.09738887846469879
1783170519699249200,5.400249267578125,-1.048751711845398,-0.16698341071605682,0.09065664559602737
1783170519709319000,5.41031884765625,-1.036110520362854,-0.18415787816047668,0.06302688270807266
1783170519719388000,5.420387939453125,-1.0428850650787354,-0.21100041270256042,0.03499498590826988
1783170519729458000,5.4304580078125,-1.0553195476531982,-0.23414179682731628,0.02540789172053337
1783170519739527000,5.44052685546875,-1.076035499572754,-0.24207071959972382,0.025657005608081818
1783170519749596000,5.450595947265625,-1.0902072191238403,-0.2424965351819992,0.018302418291568756
1783170519759666000,5.460666015625,-1.095883846282959,-0.23419110476970673,0.011569495312869549
1783170519769735000,5.47073486328125,-1.0850520133972168,-0.23045282065868378,0.0014239170122891665
1783170519779805000,5.480804931640625,-1.063571810722351,-0.24619463086128235,-0.02010020613670349
1783170519789874200,5.490874267578125,-1.0402952432632446,-0.28031426668167114,-0.019322030246257782
1783170519799944000,5.50094384765625,-1.0211070775985718,-0.30895811319351196,0.006808457896113396
1783170519810013000,5.511012939453125,-1.0051175355911255,-0.3254404067993164,0.050803881138563156
1783170519820083000,5.5210830078125,-0.9927160143852234,-0.33173057436943054,0.06966176629066467
1783170519830152000,5.53115185546875,-0.9876828789710999,-0.33089807629585266,0.057108957320451736
1783170519840222000,5.541221923828125,-0.9910836815834045,-0.30738043785095215,0.014843887649476528
1783170519850291000,5.551291015625,-1.0027945041656494,-0.2956063747406006,-0.0207508597522974
1783170519860361000,5.56136083984375,-1.015979290008545,-0.30797848105430603,-0.04163356125354767
1783170519870430000,5.571429931640625,-1.0311119556427002,-0.33919766545295715,-0.03990650177001953
1783170519880499000,5.5814990234375,-1.0361359119415283,-0.36845433712005615,-0.03292768821120262
1783170519890569000,5.59156884765625,-1.0414295196533203,-0.3983975946903229,-0.017620638012886047
1783170519900638000,5.601637939453125,-1.0483993291854858,-0.40513378381729126,-0.0050421105697751045
1783170519910708000,5.6117080078125,-1.0595329999923706,-0.37929126620292664,0.007034792564809322
1783170519920777000,5.62177685546875,-1.066951036453247,-0.3256577253341675,0.01908683590590954
1783170519930847000,5.631846923828125,-1.0727267265319824,-0.251417338848114,0.031213805079460144
1783170519940916000,5.641916015625,-1.0652931928634644,-0.24345915019512177,0.0605841726064682
1783170519950986000,5.651986083984375,-1.0752930641174316,-0.23432372510433197,0.08492440730333328
1783170519961055000,5.662054931640625,-1.0866024494171143,-0.197093665599823,0.11276475340127945
1783170519971125000,5.672125,-1.102363109588623,-0.07536162436008453,0.12329569458961487
1783170519981195000,5.682195068359375,-1.1076616048812866,-0.009590448811650276,0.1235448569059372
1783170519991263700,5.692263671875,-1.1246036291122437,0.025750763714313507,0.11451514065265656
1783170520001334000,5.702333984375,-1.1168124675750732,0.05710016191005707,0.10558263212442398
1783170520011402800,5.71240283203125,-1.081479549407959,0.002876873128116131,0.10067709535360336
1783170520021473000,5.72247314453125,-1.0283904075622559,-0.13054990768432617,0.10198112577199936
1783170520031542000,5.7325419921875,-0.9987643957138062,-0.31533491611480713,0.1085498109459877
1783170520041612000,5.742612060546875,-0.9931678771972656,-0.4888356029987335,0.12221554666757584
1783170520051681000,5.752680908203125,-1.0292161703109741,-0.5729054808616638,0.14768069982528687
1783170520061750000,5.76275,-1.064479947090149,-0.6025159358978271,0.17751270532608032
1783170520071823600,5.77282373046875,-1.1093299388885498,-0.5736203789710999,0.2040732055902481
1783170520081892600,5.782892578125,-1.1628997325897217,-0.4644004702568054,0.1911289393901825
1783170520091962600,5.792962646484375,-1.2051920890808105,-0.27190080285072327,0.14536944031715393
1783170520102031400,5.80303125,-1.2204896211624146,-0.09844605624675751,0.11533544957637787
1783170520112101600,5.8131015625,-1.2021204233169556,0.0444120317697525,0.09498357027769089
1783170520122170600,5.823170654296875,-1.1741102933883667,0.14390453696250916,0.10584553331136703
1783170520132240600,5.83324072265625,-1.135542869567871,0.186430424451828,0.1605767011642456
1783170520142309600,5.8433095703125,-1.0859363079071045,0.18364983797073364,0.2522815465927124
1783170520152379400,5.85337939453125,-1.0345580577850342,0.14176523685455322,0.3287110924720764
1783170520162448600,5.86344873046875,-0.989291787147522,0.04923359304666519,0.3563031852245331
1783170520172518400,5.873518310546875,-0.9687002301216125,-0.07590354979038239,0.3342181444168091
1783170520182587600,5.883587646484375,-0.9701464772224426,-0.21013766527175903,0.2935120761394501
1783170520192657400,5.893657470703125,-0.9877933859825134,-0.338091105222702,0.2515835165977478
1783170520202726700,5.9037265625,-1.0117231607437134,-0.42863351106643677,0.21543492376804352
1783170520212795400,5.91379541015625,-1.0422805547714233,-0.4636250436306,0.19083717465400696
1783170520222865700,5.92386572265625,-1.0694825649261475,-0.45490801334381104,0.1600451022386551
1783170520232934400,5.933934326171875,-1.0868420600891113,-0.406834214925766,0.13400231301784515
1783170520243004700,5.944004638671875,-1.1008319854736328,-0.3537042737007141,0.10789752751588821
1783170520253073700,5.95407373046875,-1.1116687059402466,-0.315572053194046,0.09255798161029816
1783170520263143400,5.964143310546875,-1.115342617034912,-0.3247235119342804,0.07432746887207031
1783170520273212700,5.974212646484375,-1.1095131635665894,-0.3724692165851593,0.07082407921552658
1783170520283282400,5.984282470703125,-1.1031609773635864,-0.4486357271671295,0.07682196795940399
1783170520293351700,5.9943515625,-1.0912894010543823,-0.5191152095794678,0.09677357226610184
1783170520303421400,6.00442138671875,-1.086728811264038,-0.582520067691803,0.11508587002754211
1783170520313490700,6.01449072265625,-1.0908234119415283,-0.6288465261459351,0.12435180693864822
1783170520323560400,6.024560546875,-1.1155705451965332,-0.6482672095298767,0.11337858438491821
1783170520333629700,6.034629638671875,-1.144945740699768,-0.6402966380119324,0.10395871847867966
1783170520343698400,6.044698486328125,-1.1662647724151611,-0.6096872091293335,0.1035449281334877
1783170520353768700,6.054768798828125,-1.1836872100830078,-0.5724071860313416,0.12138384580612183
1783170520363837400,6.06483740234375,-1.2132068872451782,-0.5311554670333862,0.14056450128555298
1783170520373907500,6.074907470703125,-1.2456591129302979,-0.48256024718284607,0.14499333500862122
1783170520383976700,6.084976806640625,-1.2827374935150146,-0.425059050321579,0.12335208058357239
1783170520394046500,6.09504638671875,-1.3130911588668823,-0.3690871000289917,0.07805676758289337
1783170520404115700,6.10511572265625,-1.3340256214141846,-0.3252730369567871,0.01945601962506771
1783170520414185500,6.115185546875,-1.3411338329315186,-0.3023727834224701,-0.025666983798146248
1783170520424254700,6.125254638671875,-1.3371940851211548,-0.3071730136871338,-0.04676739498972893
1783170520434324500,6.135324462890625,-1.3208755254745483,-0.3428734838962555,-0.039356350898742676
1783170520444393700,6.145393798828125,-1.3137739896774292,-0.39833807945251465,-0.022692950442433357
1783170520454463500,6.15546337890625,-1.302185297012329,-0.43613314628601074,-0.027021918445825577
1783170520464532700,6.16553271484375,-1.2941447496414185,-0.45577430725097656,-0.06104099377989769
1783170520474602800,6.175602783203125,-1.290947675704956,-0.44551315903663635,-0.09874869138002396
1783170520484671500,6.18567138671875,-1.2927762269973755,-0.43307673931121826,-0.1177910566329956
1783170520494740500,6.195740478515625,-1.2942358255386353,-0.4301067888736725,-0.11575587093830109
1783170520504810500,6.205810546875,-1.2923544645309448,-0.4366573393344879,-0.11008735746145248
1783170520514879700,6.215879638671875,-1.2814922332763672,-0.4364951550960541,-0.09016584604978561
1783170520524949500,6.225949462890625,-1.268731951713562,-0.434773713350296,-0.06275402754545212
1783170520535018800,6.236018798828125,-1.2398459911346436,-0.4299142360687256,-0.04201119765639305
1783170520545088500,6.246088623046875,-1.2081753015518188,-0.4160369038581848,-0.04600721225142479
1783170520555157800,6.25615771484375,-1.1766581535339355,-0.39386290311813354,-0.05024057254195213
1783170520565227500,6.2662275390625,-1.1430983543395996,-0.34774601459503174,-0.05829701945185661
1783170520575296800,6.276296875,-1.1068671941757202,-0.3025388717651367,-0.05803709477186203
1783170520585366500,6.286366455078125,-1.066955804824829,-0.2678813934326172,-0.07162104547023773
1783170520595435500,6.296435546875,-1.0266128778457642,-0.2503564655780792,-0.09269677102565765
1783170520605505800,6.306505859375,-0.9837711453437805,-0.24059239029884338,-0.10859600454568863
1783170520615574500,6.316574462890625,-0.9436391592025757,-0.22302883863449097,-0.12098076939582825
1783170520625643500,6.3266435546875,-0.9031892418861389,-0.21158109605312347,-0.11690675467252731
1783170520635713500,6.336713623046875,-0.8620327115058899,-0.19908954203128815,-0.11419884860515594
1783170520645782500,6.346782470703125,-0.8180000185966492,-0.18605737388134003,-0.09406812489032745
1783170520655852500,6.3568525390625,-0.770563542842865,-0.1805097460746765,-0.05769626796245575
1783170520665921800,6.366921875,-0.7272467017173767,-0.1799716353416443,-0.036240071058273315
1783170520675991600,6.376991455078125,-0.6727443337440491,-0.17712099850177765,-0.04276375100016594
1783170520686060500,6.387060546875,-0.6241793036460876,-0.16493423283100128,-0.06410877406597137
1783170520696130600,6.397130615234375,-0.5777814388275146,-0.14875686168670654,-0.10260503739118576
1783170520706199600,6.407199462890625,-0.5358057618141174,-0.1295263171195984,-0.13703031837940216
1783170520716269600,6.41726953125,-0.4907139241695404,-0.11774848401546478,-0.16670486330986023
1783170520726338600,6.427338623046875,-0.4359684884548187,-0.12132138758897781,-0.1684636026620865
1783170520736408600,6.43740869140625,-0.3797810971736908,-0.14671222865581512,-0.17885392904281616
1783170520746477600,6.4474775390625,-0.3396759629249573,-0.18262255191802979,-0.23216095566749573
1783170520756547600,6.457547607421875,-0.31715014576911926,-0.18868711590766907,-0.3032900094985962
1783170520766616600,6.467616455078125,-0.2990644574165344,-0.19471955299377441,-0.3397045433521271
1783170520776685600,6.477685546875,-0.28562960028648376,-0.1857745349407196,-0.2956652045249939
1783170520786755600,6.487755615234375,-0.26258814334869385,-0.163701593875885,-0.19375582039356232
1783170520796824600,6.497824462890625,-0.2094828486442566,-0.10229574143886566,-0.08265379816293716
1783170520806894600,6.50789453125,-0.1254904717206955,-0.021282808855175972,-0.013944930396974087
1783170520816963600,6.517963623046875,-0.04088130593299866,0.04238218814134598,-0.011327309533953667
1783170520827033600,6.52803369140625,0.011776492930948734,0.058056749403476715,-0.05213651433587074
1783170520837102600,6.5381025390625,0.03549380600452423,0.01824328675866127,-0.09490980952978134
1783170520847172600,6.548172607421875,0.03799939155578613,-0.07972507923841476,-0.08752913773059845
1783170520857241600,6.55824169921875,0.03792615607380867,-0.20710299909114838,-0.05793555825948715
1783170520867311400,6.568311279296875,0.06370680779218674,-0.2904840111732483,-0.02891252376139164
1783170520877380600,6.578380615234375,0.08895890414714813,-0.3450929522514343,-0.02144049108028412
1783170520887450600,6.58845068359375,0.10254944115877151,-0.3384415805339813,-0.0040438417345285416
1783170520897519600,6.59851953125,0.09315966814756393,-0.31056761741638184,0.02136591076850891
1783170520907589600,6.608589599609375,0.06272093951702118,-0.2616077959537506,0.05794377997517586
1783170520917658600,6.61865869140625,0.0320863351225853,-0.19200047850608826,0.08394555002450943
1783170520927727600,6.6287275390625,0.01059198658913374,-0.14835791289806366,0.09947080910205841
1783170520937797600,6.638797607421875,0.0028349971398711205,-0.12231673300266266,0.10685202479362488
1783170520947866600,6.64886669921875,0.007190122734755278,-0.10999403148889542,0.11022748053073883
1783170520957936600,6.6589365234375,0.012414179742336273,-0.1114550456404686,0.11064879596233368
1783170520968005600,6.669005615234375,0.007470311131328344,-0.10892608016729355,0.10644108057022095
1783170520978075400,6.679075439453125,-0.0007223710417747498,-0.11490035057067871,0.10069504380226135
1783170520988144600,6.68914453125,-0.014189381152391434,-0.13628485798835754,0.11083775758743286
1783170520998214400,6.69921435546875,-0.04008542746305466,-0.1503673791885376,0.1340988576412201
1783170521008283600,6.70928369140625,-0.06702403724193573,-0.1506768763065338,0.14956481754779816
1783170521018353700,6.719353759765625,-0.09579683095216751,-0.13173699378967285,0.14763136208057404
1783170521028422700,6.729422607421875,-0.12598538398742676,-0.08836915343999863,0.14879097044467926
1783170521038492700,6.73949267578125,-0.16267043352127075,-0.03436131402850151,0.15449759364128113
1783170521048561700,6.749561767578125,-0.18186253309249878,0.029094088822603226,0.14490821957588196
1783170521058631700,6.759631591796875,-0.18500027060508728,0.08343269675970078,0.13173195719718933
1783170521068700700,6.76970068359375,-0.19400620460510254,0.10609699785709381,0.12753000855445862
1783170521078766000,6.77976611328125,-0.19407464563846588,0.1012556403875351,0.1242535263299942
1783170521088835800,6.7898359375,-0.18601927161216736,0.07547266036272049,0.11822990328073502
1783170521098905000,6.799905029296875,-0.16862857341766357,0.019453061744570732,0.09776990115642548
1783170521108974800,6.809974853515625,-0.15481823682785034,-0.05506578087806702,0.0730758085846901
1783170521119044000,6.820044189453125,-0.15347068011760712,-0.14145420491695404,0.060813553631305695
1783170521129113900,6.83011376953125,-0.1604716032743454,-0.22024530172348022,0.051807645708322525
1783170521139183000,6.84018310546875,-0.18298809230327606,-0.27716293931007385,0.044589947909116745
1783170521149252900,6.8502529296875,-0.2105949968099594,-0.306564062833786,0.02489404007792473
1783170521159322000,6.860322021484375,-0.22811460494995117,-0.31017717719078064,0.008609609678387642
1783170521169392000,6.87039208984375,-0.2343921959400177,-0.3000296354293823,-0.007187089882791042
1783170521179461000,6.880461181640625,-0.23370350897312164,-0.28396570682525635,-0.011717659421265125
1783170521189531100,6.89053125,-0.23514343798160553,-0.25285103917121887,-0.013511012308299541
1783170521199599900,6.900599853515625,-0.23380732536315918,-0.21711274981498718,-0.01554726529866457
1783170521209670100,6.910670166015625,-0.23834270238876343,-0.17978176474571228,-0.02138773538172245
1783170521219739000,6.92073876953125,-0.2474650889635086,-0.1526702493429184,-0.018463583663105965
1783170521229808000,6.93080810546875,-0.26356735825538635,-0.11971817165613174,-0.008620008826255798
1783170521239878000,6.9408779296875,-0.27631697058677673,-0.08192764967679977,0.0010067857801914215
1783170521249947100,6.950947021484375,-0.28866517543792725,-0.035119522362947464,0.011340707540512085
1783170521260017000,6.961016845703125,-0.29315313696861267,0.028106585144996643,0.01877092570066452
1783170521270086100,6.971086181640625,-0.2953048348426819,0.08705233782529831,0.026777498424053192
1783170521280156000,6.981156005859375,-0.28530627489089966,0.13419987261295319,0.026805995032191277
1783170521290225200,6.99122509765625,-0.2708463966846466,0.1565852016210556,0.02502600848674774
1783170521300295200,7.001295166015625,-0.25649595260620117,0.16295495629310608,0.025418024510145187
1783170521310364000,7.011364013671875,-0.24627797305583954,0.13930395245552063,0.02928134612739086
1783170521320434200,7.02143408203125,-0.25587227940559387,0.10194087028503418,0.03365984931588173
1783170521330503000,7.0315029296875,-0.2780655324459076,0.0934351310133934,0.01919643022119999
1783170521340573200,7.0415732421875,-0.2925232946872711,0.059924304485321045,0.014124972745776176
1783170521350642000,7.051641845703125,-0.31217944622039795,0.033172592520713806,0.0023290207609534264
1783170521360712000,7.0617119140625,-0.326774924993515,0.03438832610845566,-0.010301019996404648
1783170521370781000,7.071781005859375,-0.3288728892803192,0.043580763041973114,-0.01678876020014286
1783170521380850200,7.08185009765625,-0.32216304540634155,0.0435464084148407,-0.020178431645035744
1783170521390920000,7.091919921875,-0.3148043751716614,0.05857064202427864,-0.017440449446439743
1783170521400989000,7.101989013671875,-0.30893370509147644,0.05904708057641983,0.003937543369829655
1783170521411059000,7.112058837890625,-0.3026352822780609,0.04804740846157074,0.032551512122154236
1783170521421128000,7.1221279296875,-0.2980285584926605,0.021855752915143967,0.07668089121580124
1783170521431198200,7.1321982421875,-0.29047513008117676,-0.018305236473679543,0.12259908020496368
1783170521441267000,7.142266845703125,-0.2825583517551422,-0.06688635051250458,0.13956581056118011
1783170521451337200,7.152337158203125,-0.2904708981513977,-0.1047421246767044,0.12867896258831024
1783170521461406000,7.162406005859375,-0.3095894753932953,-0.1233416423201561,0.09888510406017303
1783170521471476000,7.17247607421875,-0.3494514226913452,-0.09686823189258575,0.04654933884739876
1783170521481545000,7.182544921875,-0.3986176550388336,0.0022301264107227325,-0.010217003524303436
1783170521491615000,7.192614990234375,-0.4412539601325989,0.10119493305683136,-0.06740154325962067
1783170521501684000,7.20268408203125,-0.4716653823852539,0.16477125883102417,-0.10259336233139038
1783170521511753000,7.2127529296875,-0.4750487804412842,0.20793960988521576,-0.11217772215604782
1783170521521823000,7.222822998046875,-0.45974013209342957,0.19021467864513397,-0.10312484204769135
1783170521531892000,7.23289208984375,-0.42105913162231445,0.1451067179441452,-0.06475073844194412
1783170521541962000,7.2429619140625,-0.3772730529308319,0.030001960694789886,0.004958036355674267
1783170521552031000,7.253031005859375,-0.34429940581321716,-0.11122719943523407,0.09139446169137955
1783170521562101000,7.26310107421875,-0.31831708550453186,-0.2113972157239914,0.15085113048553467
1783170521572170000,7.273169921875,-0.3005894124507904,-0.24977745115756989,0.15023648738861084
1783170521582240000,7.283239990234375,-0.3066811263561249,-0.2268870621919632,0.10389109700918198
1783170521592309000,7.29330908203125,-0.3171456456184387,-0.16747036576271057,0.0305921770632267
1783170521602379000,7.30337890625,-0.3346801698207855,-0.1095476895570755,-0.03206108137965202
1783170521612448000,7.313447998046875,-0.357155978679657,-0.07477158308029175,-0.04182545840740204
1783170521622518000,7.32351806640625,-0.36741048097610474,-0.07969017326831818,-0.002260474720969796
1783170521632587000,7.3335869140625,-0.363456130027771,-0.0886065885424614,0.08007870614528656
1783170521642657000,7.343656982421875,-0.32565629482269287,-0.05784175172448158,0.1421082466840744
1783170521652726000,7.35372607421875,-0.26112669706344604,-0.07862453162670135,0.13374954462051392
1783170521662795000,7.363794921875,-0.20860089361667633,-0.20074859261512756,0.055559124797582626
1783170521672865000,7.373864990234375,-0.20265290141105652,-0.32810863852500916,-0.006390714086592197
1783170521682934000,7.38393408203125,-0.23329602181911469,-0.44095394015312195,-0.03532515838742256
1783170521693003800,7.394003662109375,-0.30421555042266846,-0.5155744552612305,-0.04935597628355026
1783170521703073000,7.404072998046875,-0.37619972229003906,-0.559102475643158,-0.09136760979890823
1783170521713143000,7.41414306640625,-0.410799115896225,-0.5352662205696106,-0.14996832609176636
1783170521723212000,7.4242119140625,-0.4337550401687622,-0.509310245513916,-0.21571113169193268
1783170521733282000,7.434281982421875,-0.44474390149116516,-0.4663854241371155,-0.2592187523841858
1783170521743351000,7.44435107421875,-0.4507690370082855,-0.3903804123401642,-0.2661097049713135
1783170521753421000,7.454421142578125,-0.45567989349365234,-0.25653618574142456,-0.22139647603034973
1783170521763490000,7.464489990234375,-0.4488116204738617,-0.08631864935159683,-0.14597336947917938
1783170521773560000,7.47456005859375,-0.4228833019733429,0.07031090557575226,-0.08150423318147659
1783170521783629000,7.484629150390625,-0.3921368420124054,0.164437398314476,-0.030961163341999054
1783170521793699000,7.494698974609375,-0.3600902259349823,0.22665710747241974,0.005794186610728502
1783170521803767800,7.504767822265625,-0.32997599244117737,0.2958601713180542,0.015603940933942795
1783170521813838000,7.514838134765625,-0.30497950315475464,0.34923508763313293,0.018759576603770256
1783170521823906800,7.52490673828125,-0.29619425535202026,0.35293662548065186,0.026706447824835777
1783170521833976000,7.53497607421875,-0.27395206689834595,0.3197050094604492,0.05808231979608536
1783170521844046000,7.545046142578125,-0.24015764892101288,0.2609785795211792,0.10976522415876389
1783170521854115000,7.555114990234375,-0.20513053238391876,0.2043236941099167,0.16592654585838318
1783170521864185000,7.56518505859375,-0.17044445872306824,0.16808047890663147,0.2286335974931717
1783170521874254000,7.575254150390625,-0.13650766015052795,0.13397283852100372,0.2801147997379303
1783170521884324000,7.585323974609375,-0.11457492411136627,0.09558814764022827,0.2923443019390106
1783170521894393000,7.59539306640625,-0.1188691109418869,0.08764049410820007,0.2538573145866394
1783170521904463000,7.605463134765625,-0.13449573516845703,0.1043345183134079,0.18606576323509216
1783170521914531800,7.61553173828125,-0.1688869148492813,0.11816032975912094,0.10760502517223358
1783170521924602000,7.62560205078125,-0.19863362610340118,0.1248997300863266,0.04549079015851021
1783170521934670800,7.6356708984375,-0.21848900616168976,0.13674627244472504,0.016065241768956184
1783170521944741000,7.6457412109375,-0.22837306559085846,0.14009040594100952,-0.002785677323117852
1783170521954809900,7.655809814453125,-0.22908714413642883,0.10793911665678024,0.0046919602900743484
1783170521964880000,7.6658798828125,-0.23765239119529724,0.07332335412502289,0.03796789422631264
1783170521974949000,7.67594921875,-0.24990776181221008,0.040105074644088745,0.03525526821613312
1783170521985018000,7.68601806640625,-0.26541775465011597,0.03345329686999321,0.021261153742671013
1783170521995088100,7.696088134765625,-0.27343297004699707,0.059193022549152374,0.008566116914153099
1783170522005157000,7.7061572265625,-0.27779123187065125,0.11191189289093018,-0.016182638704776764
1783170522015227100,7.71622705078125,-0.27779731154441833,0.15539982914924622,-0.05690932646393776
1783170522025296000,7.7262958984375,-0.27537012100219727,0.16594435274600983,-0.07126723229885101
1783170522035366100,7.7363662109375,-0.26778993010520935,0.16070964932441711,-0.06140727922320366
1783170522045435000,7.746434814453125,-0.2489488422870636,0.18286260962486267,-0.059708449989557266
1783170522055505200,7.756505126953125,-0.21919123828411102,0.2220676690340042,-0.051527947187423706
1783170522065574000,7.766573974609375,-0.18551024794578552,0.2247457504272461,-0.014164327643811703
1783170522075644400,7.77664453125,-0.15164948999881744,0.19295746088027954,0.049549400806427
1783170522085713700,7.786713623046875,-0.12169451266527176,0.15366491675376892,0.10545314848423004
1783170522095783400,7.796783447265625,-0.09197237342596054,0.12225199490785599,0.1089056134223938
1783170522105852700,7.806852783203125,-0.07170464843511581,0.10218614339828491,0.05408923700451851
1783170522115922700,7.816922607421875,-0.05750901997089386,0.10432811081409454,-0.014117770828306675
1783170522125991700,7.82699169921875,-0.05009451135993004,0.08503004908561707,-0.04149985685944557
1783170522136060400,7.837060302734375,-0.050541575998067856,0.03007838875055313,-0.02027767337858677
1783170522146130700,7.847130615234375,-0.059445854276418686,-0.03884049132466316,0.04024026542901993
1783170522156199700,7.85719970703125,-0.04006385803222656,-0.09159983694553375,0.08137397468090057
1783170522166269400,7.86726953125,-0.03367280587553978,-0.13726265728473663,0.08946412801742554
1783170522176338700,7.877338623046875,-0.06529058516025543,-0.1622174084186554,0.0456077866256237
1783170522186408400,7.887408447265625,-0.09292354434728622,-0.17126843333244324,-0.022120662033557892
1783170522196477700,7.897477783203125,-0.1195608600974083,-0.1589874029159546,-0.07841421663761139
1783170522206547500,7.90754736328125,-0.15179602801799774,-0.15691626071929932,-0.12259126454591751
1783170522216616700,7.91761669921875,-0.17095023393630981,-0.1255096048116684,-0.13934826850891113
1783170522226686500,7.9276865234375,-0.16391149163246155,-0.08206119388341904,-0.13928303122520447
1783170522236755700,7.937755615234375,-0.14385348558425903,-0.03478489816188812,-0.13259361684322357
1783170522246825700,7.94782568359375,-0.13109374046325684,0.006594497710466385,-0.11670625954866409
1783170522256894500,7.95789453125,-0.10742859542369843,0.04654566943645477,-0.10718697309494019
1783170522266964700,7.96796484375,-0.08453047275543213,0.06376247107982635,-0.09392789751291275
1783170522277033500,7.978033447265625,-0.07599897682666779,0.0675760954618454,-0.06465985625982285
1783170522287102700,7.988102783203125,-0.09168446063995361,0.09151658415794373,-0.02798466570675373
1783170522297172500,7.99817236328125,-0.1125485897064209,0.12678177654743195,-0.0029008383862674236
1783170522307241700,8.00824169921875,-0.10129433870315552,0.17600443959236145,-0.001198013313114643
1783170522317311500,8.0183115234375,-0.05351540073752403,0.20321263372898102,-0.016052186489105225
1783170522327380700,8.028380615234376,0.005147378426045179,0.24369481205940247,-0.030205555260181427
1783170522337450500,8.038450439453126,0.07248146831989288,0.2550843358039856,-0.022339746356010437
1783170522347519700,8.048519775390625,0.15426261723041534,0.17402037978172302,0.000580748775973916
1783170522357589500,8.058589599609375,0.2447950839996338,0.05898381397128105,0.03273812681436539
1783170522367658500,8.068658447265625,0.37058335542678833,-0.06530538201332092,0.07810907810926437
1783170522377728800,8.078728759765625,0.4933810234069824,-0.17901475727558136,0.13079670071601868
1783170522387797500,8.088797607421874,0.5867035388946533,-0.24485395848751068,0.17653995752334595
1783170522397867800,8.09886767578125,0.6322712898254395,-0.2722048759460449,0.2125309705734253
1783170522407936500,8.1089365234375,0.6382495760917664,-0.33166635036468506,0.24797764420509338
1783170522418006800,8.1190068359375,0.5921780467033386,-0.3890758752822876,0.2824034094810486
1783170522428075500,8.129075439453125,0.5187382102012634,-0.35166484117507935,0.3033110797405243
1783170522438144800,8.139144775390625,0.48042574524879456,-0.16357146203517914,0.28821712732315063
1783170522448214500,8.149214599609374,0.5035725831985474,-0.018379658460617065,0.23116235435009003
1783170522458283800,8.15928369140625,0.5332062840461731,-0.08893441408872604,0.15403974056243896
1783170522468353500,8.169353515625,0.5488731265068054,-0.25060349702835083,0.12736071646213531
1783170522478422500,8.179422607421875,0.5663037300109863,-0.4063403606414795,0.15231679379940033
1783170522488492500,8.189492431640625,0.559972882270813,-0.512786865234375,0.1810147613286972
1783170522498561500,8.1995615234375,0.5139555931091309,-0.5498172044754028,0.1516442447900772
1783170522508631600,8.209631591796875,0.44557201862335205,-0.5114532709121704,0.08073411881923676
1783170522518700500,8.219700439453124,0.3787257969379425,-0.3784431517124176,-0.0006809413898736238
1783170522528770600,8.2297705078125,0.34947603940963745,-0.17427191138267517,-0.04642552509903908
1783170522538839600,8.239839599609375,0.37094151973724365,0.07638663798570633,-0.0652695894241333
1783170522548909600,8.24990966796875,0.41690608859062195,0.20827649533748627,-0.08093030750751495
1783170522558978600,8.259978515625,0.44898077845573425,0.22224369645118713,-0.09972447901964188
1783170522569048600,8.270048583984375,0.4287615120410919,0.13450825214385986,-0.11976929754018784
1783170522579117600,8.28011767578125,0.4378596246242523,0.010755033232271671,-0.1306244283914566
1783170522589187600,8.2901875,0.44004660844802856,-0.08490624278783798,-0.11214848607778549
1783170522599256600,8.300256591796876,0.42662060260772705,-0.1857304573059082,-0.08023470640182495
1783170522609325600,8.31032568359375,0.42338618636131287,-0.23784372210502625,-0.05327153205871582
1783170522619395600,8.3203955078125,0.4403379261493683,-0.24307191371917725,-0.05592768266797066
1783170522629464600,8.330464599609375,0.4695482552051544,-0.18242241442203522,-0.08286449313163757
1783170522639534600,8.34053466796875,0.48057520389556885,-0.0898171067237854,-0.12676845490932465
1783170522649603600,8.350603515625,0.48529139161109924,0.0220407173037529,-0.16249369084835052
1783170522659673600,8.360673583984376,0.4775412678718567,0.13177424669265747,-0.189067542552948
1783170522669742600,8.37074267578125,0.4935804307460785,0.20344336330890656,-0.18751464784145355
1783170522679812600,8.3808125,0.5081347227096558,0.22089055180549622,-0.16174697875976562
1783170522689881600,8.390881591796875,0.512971818447113,0.21175910532474518,-0.13933967053890228
1783170522699951600,8.40095166015625,0.5090815424919128,0.17056530714035034,-0.11881745606660843
1783170522710020600,8.4110205078125,0.4974046051502228,0.11091875284910202,-0.12241139262914658
1783170522720090600,8.421090576171874,0.48739808797836304,0.07236593216657639,-0.12033730000257492
1783170522730159600,8.43115966796875,0.4651836156845093,0.030535656958818436,-0.08653007447719574
1783170522740229600,8.441229736328125,0.4402511417865753,-0.02172594517469406,-0.037488099187612534
1783170522750298600,8.451298583984375,0.4200928509235382,-0.06286192685365677,0.001520821126177907
1783170522760367600,8.46136767578125,0.40718328952789307,-0.05722414329648018,0.025116344913840294
1783170522770437400,8.471437255859374,0.3852335214614868,-0.0315810963511467,-0.004798943176865578
1783170522780506600,8.481506591796874,0.32728829979896545,0.015206634998321533,-0.07056621462106705
1783170522790576600,8.49157666015625,0.24931253492832184,0.06442984193563461,-0.1234600618481636
1783170522800645600,8.501645751953125,0.16158445179462433,0.10419857501983643,-0.15182514488697052
1783170522810715600,8.511715576171875,0.0762687548995018,0.1170581802725792,-0.17208167910575867
1783170522820784600,8.52178466796875,0.013382570818066597,0.16702242195606232,-0.18817764520645142
1783170522830854700,8.531854736328125,0.0049211750738322735,0.23759406805038452,-0.19993843138217926
1783170522840923600,8.541923583984374,0.01713428646326065,0.2869742512702942,-0.19816213846206665
1783170522850993700,8.55199365234375,0.04642000421881676,0.31581228971481323,-0.17585523426532745
1783170522861062400,8.5620625,0.08888056129217148,0.31481438875198364,-0.15163563191890717
1783170522871132700,8.572132568359375,0.11924246698617935,0.3373902440071106,-0.1366521567106247
1783170522881201400,8.582201416015625,0.14629559218883514,0.4230692386627197,-0.140333354473114
1783170522891271700,8.592271728515625,0.17030638456344604,0.47979509830474854,-0.1466170847415924
1783170522901340400,8.60234033203125,0.17142818868160248,0.4665558338165283,-0.17760366201400757
1783170522911409700,8.61240966796875,0.13674478232860565,0.4107820689678192,-0.2234979122877121
1783170522921479700,8.622479736328126,0.10952766239643097,0.3434818685054779,-0.2902962863445282
1783170522931548700,8.632548583984375,0.1105191558599472,0.31427764892578125,-0.3325939178466797
1783170522941618700,8.64261865234375,0.11289455741643906,0.2917433977127075,-0.31973570585250854
1783170522951687700,8.652687744140625,0.08264317363500595,0.2538277506828308,-0.24517516791820526
1783170522961757700,8.6627578125,0.03725788742303848,0.19485363364219666,-0.054623477160930634
1783170522971826400,8.672826416015624,-0.013019129633903503,-0.038333550095558167,0.22133859992027283
1783170522981896700,8.682896728515624,-0.043829917907714844,-0.4042786657810211,0.27442389726638794
1783170522991965400,8.69296533203125,-0.1189049631357193,-0.5074687004089355,0.23294539749622345
1783170523002035700,8.70303564453125,-0.14543871581554413,-0.5239825248718262,0.1356436163187027
1783170523012104400,8.7131044921875,-0.1456855833530426,-0.4354076385498047,0.0465097576379776
1783170523022174700,8.7231748046875,-0.13577282428741455,-0.3109401762485504,-0.014191464520990849
1783170523032243500,8.733243408203125,-0.12850531935691833,-0.15693727135658264,0.015401049517095089
1783170523042313500,8.7433134765625,-0.08292727172374725,-0.06331519037485123,0.1369842141866684
