time,seconds_elapsed,z,y,x
1783174397303954200,0.0869541015625,0.07270400168299675,-0.3788672151505947,-0.27331425231099127
1783174397314022000,0.09702197265625,-0.14671674787700176,-0.234161989759095,-0.09876973244026303
1783174397324091000,0.1070908203125,-0.4414385298758745,-0.08971614595614373,0.06566124356463551
1783174397334160000,0.117159912109375,-0.7045335859894752,-0.01058525303080678,0.027258301542699336
1783174397344228000,0.12722802734375,-0.7781874357432127,-0.0018822335500270127,-0.057858387793973086
1783174397354296800,0.137296875,-0.6976683763951063,0.04927797177955508,-0.16521562357656658
1783174397364364800,0.14736474609375,-0.46418403016924853,0.10138028026483953,-0.2826022320728749
1783174397374434000,0.15743408203125,-0.14690321035981177,0.1934737498115748,-0.362082522957772
1783174397384502800,0.167502685546875,0.13020634258091449,0.3553416703954339,-0.35599925752133127
1783174397394570800,0.17757080078125,0.1897667850524187,0.6367606840331107,-0.385898209765926
1783174397404640000,0.187639892578125,0.261449626994133,0.9366942093309014,-0.46971704131178554
1783174397414708000,0.1977080078125,0.38098669152259823,1.2293284444659947,-0.513464559232071
1783174397424777000,0.20777685546875,0.7393769358336925,1.5763336636707186,-0.6545647093363106
1783174397434845000,0.217844970703125,1.1796972753345967,1.5689496908992528,-0.7920862703014164
1783174397444914000,0.227913818359375,1.515123408165574,1.2619108636409044,-0.8737382061369716
1783174397454983000,0.23798291015625,1.6740654313653707,0.8805007590744643,-0.8693816183626651
1783174397465051000,0.24805078125,1.421106569340825,0.545391071781516,-0.8532429689884186
1783174397475119900,0.258119873046875,0.8854758440732955,0.33794520297981795,-0.6629395928412676
1783174397485188000,0.26818798828125,0.4691536352753639,0.37015769286379213,-0.3000804960204288
1783174397495256800,0.2782568359375,0.3620002515017986,0.6001577771704644,0.0561984552251175
1783174397505326000,0.288326171875,0.37136604574024673,0.8796312827635556,0.41957459819000215
1783174397515394000,0.29839404296875,0.4242705374538898,1.1655096869628876,0.7478001885250211
1783174397525462800,0.308462890625,0.011081950506567954,1.0415705880831927,0.7057691191338002
1783174397535530800,0.31853076171875,-0.5277192214906216,0.6295031871855259,0.6188228032171725
1783174397545600000,0.32860009765625,-0.6049018298923969,-0.1786777472179383,1.7028759307861328
1783174397555668000,0.33866796875,-0.28406068725287914,-1.8830439896270632,1.6046156091727315
1783174397565737000,0.348737060546875,0.11715572234988211,-2.7214383490517733,-1.1617121213108301
1783174397575806000,0.358805908203125,0.7399041745781898,-3.254430250248313,-1.6475276991821826
1783174397585874000,0.3688740234375,1.3947154060214757,-3.9536473173901436,-0.8254564788531511
1783174397595943000,0.37894287109375,1.8315075713962314,-3.76056074026525,-0.539692385215871
1783174397606011000,0.389010986328125,1.7833119880259036,-2.7900165029764175,-0.04523829533415846
1783174397616080000,0.399079833984375,1.1505495067834854,-1.9634309470281004,0.6871321501377969
1783174397626148900,0.40914892578125,0.3430950600236654,-1.0291971364613621,1.0571177743703126
1783174397636216800,0.419216796875,-0.25044307981133457,-0.24640578711926936,1.410561794450879
1783174397646286000,0.4292861328125,-0.685029844096303,0.043777474667131895,1.8337880835488438
1783174397656354000,0.43935400390625,-0.986823171916604,0.21522892389334736,2.040040285586566
1783174397666422800,0.4494228515625,-1.02226565669775,0.158180025851354,2.040195914539695
1783174397676491000,0.459490966796875,-0.7915355776160955,-0.02546710727699101,1.8374236635722219
1783174397686560000,0.46956005859375,-0.15520517475903034,-0.31246070617660876,1.513929522205889
1783174397696628700,0.479628662109375,0.4946142397463321,-0.8663510184951126,1.08557105785124
1783174397706697000,0.489697021484375,0.8727946416765451,-1.4619219793319702,0.6199772339493036
1783174397716766000,0.499765869140625,0.9457774603009224,-2.0100050666764377,0.29867592645213004
1783174397726834000,0.509833984375,0.8232815459668635,-2.544041508489847,0.08934621666520834
1783174397736903000,0.51990283203125,0.4759674069434404,-3.004918606068194,-0.07173059007357806
1783174397746972000,0.529971923828125,-0.06028291152715683,-3.275239814043045,-0.15558540624827147
1783174397757040000,0.5400400390625,-0.6125771868258715,-3.463099888691306,-0.28000761246979233
1783174397767108900,0.55010888671875,-0.9870540580630301,-3.5470126821309327,-0.43202776398453857
1783174397777176800,0.5601767578125,-1.1978870120197533,-3.5085251305654643,-0.4170280189797282
1783174397787246000,0.57024609375,-1.3228724050819873,-3.319100875340402,-0.23466135411597788
1783174397797314000,0.58031396484375,-1.3931430421382187,-3.0307381069794297,0.0031989787044003604
1783174397807382800,0.5903828125,-1.5306266822457313,-2.886466121906042,0.16423369986712932
1783174397817452000,0.6004521484375,-1.729118041023612,-2.8744729017734527,0.040617019608523694
1783174397827520000,0.61052001953125,-1.7113737100183963,-2.852475004976988,0.03022864085668698
1783174397837589000,0.620589111328125,-1.3610223952561615,-2.7771698808848857,0.32565420547705143
1783174397847657000,0.630656982421875,-0.7589584191381931,-2.6309333177402614,0.6083842651806771
1783174397857726000,0.640725830078125,-0.3393307390540838,-2.450952013643086,0.7710635021474211
1783174397867795000,0.650794921875,-0.15957564492821694,-2.2837433896183965,0.7933522716492414
1783174397877863000,0.66086279296875,-0.1071703349083662,-2.1876865693986414,0.7018478540368378
1783174397887932000,0.670931884765625,-0.014617723417282104,-2.142365956942737,0.6185035081349313
1783174397898000100,0.681000244140625,-0.08183481812179089,-2.170637965572625,0.494781595669873
1783174397908068900,0.69106884765625,-0.26234862166047096,-2.082098535245657,0.44965614045988767
1783174397918136800,0.70113671875,-0.39927988858222957,-1.9272024264357983,0.5061236584173515
1783174397928206000,0.7112060546875,-0.5033440741688012,-1.6755056933015584,0.602846723993495
1783174397938274800,0.72127490234375,-0.47402737879157064,-1.452883371221274,0.6231184545844793
1783174397948342800,0.7313427734375,-0.3554173659801483,-1.3064824112951754,0.5243881043065339
1783174397958412000,0.741412109375,-0.23002456116080283,-1.1814267294757068,0.30939357369095083
1783174397968479700,0.751479736328125,-0.2635673498004675,-1.064571597507596,0.16707193723404778
1783174397978549000,0.761549072265625,-0.40559097142517564,-0.9462744500376283,-0.004820186698064208
1783174397988618000,0.771617919921875,-0.4281260438382625,-0.7647077764451503,-0.13827559420280158
1783174397998686000,0.78168603515625,-0.42511867871582504,-0.5572482809768989,-0.19717706130892038
1783174398008755000,0.7917548828125,-0.463297310462594,-0.3013435747588053,-0.17168017994817344
1783174398018823000,0.801822998046875,-0.4076104945540428,-0.03711564215775579,-0.19658296787329016
1783174398028892000,0.811891845703125,-0.2105623203217983,0.13053319991510362,-0.188800643434003
1783174398038961000,0.8219609375,0.014863807132840155,0.15543876431919634,-0.0367039195517078
1783174398049028900,0.83202880859375,0.03139116356372833,0.16994769359976053,-0.05400189502891153
1783174398059098000,0.84209814453125,-0.08503507546782493,0.22181148062143474,-0.057399245849624275
1783174398069165800,0.852165771484375,-0.4589040439397096,0.26773521006964146,-0.07975311647690832
1783174398079234800,0.86223486328125,-0.6416846233665943,0.370742653144896,-0.1262625003259629
1783174398089303000,0.872302978515625,-0.5265905097216368,0.4046702763836831,-0.2161621496228501
1783174398099372000,0.8823720703125,-0.24707331111729144,0.40256987003833056,-0.30299287633579225
1783174398109440800,0.892440673828125,0.07972410957813263,0.4045224654108286,-0.4317105877941474
1783174398119509000,0.902509033203125,0.3009843495249748,0.32067287340052425,-0.5798338780008256
1783174398129578000,0.912577880859375,0.33792145677804947,0.23151056193485856,-0.7070778636448085
1783174398139645700,0.922645751953125,0.175209851911664,0.18892273544371127,-0.7915124159362167
1783174398149715000,0.93271484375,-0.27757190975546836,0.25688385344855486,-0.6824165197927504
1783174398159784000,0.942783935546875,-0.876597541090846,0.455428403718397,-0.5448500967726111
1783174398169852000,0.952851806640625,-1.3498603652507066,0.7618509987745433,-0.46613289921469986
1783174398179921000,0.9629208984375,-1.6808604983329771,1.0679682542085647,-0.42259241164121775
1783174398189988900,0.97298876953125,-1.8271283333986996,1.247843759843707,-0.5376153232134878
1783174398200057900,0.983057861328125,-1.688914040929079,1.318281277899444,-0.7445809342175722
1783174398210125800,0.993125732421875,-1.23873690880239,1.162480475334823,-0.9494945811279117
1783174398220194800,1.00319482421875,-0.5796861400932073,0.886601340971887,-1.0748166587986052
1783174398230264000,1.01326416015625,0.1492372062653303,0.6440296521227806,-1.1335824437610804
1783174398240331800,1.023331787109375,0.5974176116168499,0.5142876391179859,-1.1039442613445223
1783174398250401000,1.033401123046875,0.7779244008928536,0.57426111936979,-1.0572999990694225
1783174398260469000,1.043468994140625,0.7128168456882238,0.6360214830383658,-1.0310996821470557
1783174398270537700,1.053537841796875,0.44698271999955175,0.6525196133747696,-1.0421043296337127
1783174398280607000,1.06360693359375,0.1790747106462717,0.6411436483576893,-1.0198616642959415
1783174398290675000,1.073675048828125,-0.12366086646020412,0.6219442962385714,-0.930472046880424
1783174398300744000,1.083743896484375,-0.24082769472599028,0.6865227130025625,-0.8361858895950018
1783174398310812000,1.09381201171875,-0.04019698583185673,0.7249740972761064,-0.7656891156326979
1783174398320881000,1.103880859375,0.3285246828794479,0.5834000460498034,-0.7654120522569865
1783174398330949000,1.11394921875,0.7617553563803434,0.4222368396691978,-0.795943822512403
1783174398341017900,1.124017822265625,1.244279929882288,0.26553689630776645,-0.8404524609982967
1783174398351086800,1.1340869140625,1.5965917310625313,0.1061840272847563,-0.7885587537623941
1783174398361155000,1.144155029296875,1.5873726518183946,-0.00801883660890162,-0.7008981520965695
1783174398371223800,1.154223876953125,1.3681085541248321,-0.07840425915122032,-0.6529422957662493
1783174398381291800,1.164291748046875,1.2156991475641727,-0.06185059923529625,-0.8010658417012542
1783174398391361000,1.174361083984375,1.7966022622317075,-0.11446472970023751,-0.8378689473111182
1783174398401430000,1.184429931640625,1.913997638556361,-0.28315146345347164,-0.7049635018393396
1783174398411498000,1.194498046875,1.2877099062860011,-0.29544439718499776,-0.6237639128811657
1783174398421567000,1.20456689453125,1.0774889467477797,-0.27837854996323586,-0.8409521541487425
1783174398431635000,1.214635009765625,0.9636609075158834,-0.34265564569309354,-0.8078426423598081
1783174398441704000,1.224703857421875,0.7932301065742969,-0.5293677193500101,-0.9170714441679417
1783174398451772000,1.23477197265625,0.694627109003067,-0.6215918295390903,-1.0865879798088223
1783174398461841000,1.2448408203125,0.7814122430086136,-0.8995648674413561,-1.0998007317990064
1783174398471910000,1.254909912109375,0.8849988742113113,-1.0862024145573377,-1.1313774810627102
1783174398481977900,1.264977783203125,0.8043506355255842,-1.0382529149025679,-1.005570250223577
1783174398492047000,1.275047119140625,0.6649433338791132,-0.9362821944639086,-0.7609347607124597
1783174398502115000,1.285114990234375,0.5179851784616708,-0.7963105369329452,-0.4760370015809312
1783174398512183800,1.295183837890625,0.33512744214534756,-0.697017072879523,-0.29803019416080784
1783174398522253000,1.305253173828125,0.10416881500482558,-0.6881564516842364,-0.3426150579543784
1783174398532321000,1.315321044921875,-0.16061667841374874,-0.8257838841766119,-0.5242601670779288
1783174398542389800,1.3253896484375,-0.19783435617387293,-0.9798340436816215,-0.6897256006971001
1783174398552458000,1.3354580078125,-0.022424597775936125,-1.0769697451792657,-0.7514807036686688
1783174398562527000,1.34552685546875,0.19527941099405288,-1.104616899909079,-0.7483375102721155
1783174398572595000,1.355594970703125,0.24515491027534006,-1.071639636197686,-0.7464306537374854
1783174398582664000,1.365663818359375,0.17761106783449648,-1.0060241314709186,-0.7654338987626135
1783174398592733000,1.37573291015625,0.11166297015249728,-1.0299993196897208,-0.782494412222132
1783174398602801000,1.38580078125,0.10508183819651604,-1.0655234914049505,-0.8131484936829656
1783174398612870000,1.395869873046875,0.06153145028352737,-1.0900646429434417,-0.8022071206908673
1783174398622937900,1.405937744140625,-0.070706105864048,-1.0652635252945124,-0.7963062260840088
1783174398633007000,1.416007080078125,-0.19474808059632778,-1.0612820544429122,-0.8294599423408507
1783174398643075000,1.426074951171875,-0.23220190519988534,-1.0754698620103298,-0.8719639630060643
1783174398653143800,1.436143798828125,-0.21928806309103965,-1.065199227886647,-0.9129706577856093
1783174398663213000,1.446213134765625,-0.10730594398677348,-1.052150507351756,-0.9767284788817167
1783174398673281000,1.456281005859375,0.05092822320461273,-1.054453815858066,-0.9283174991950393
1783174398683349800,1.466349853515625,0.06928630219399928,-1.0655948030754923,-0.8315965159781277
1783174398693418000,1.47641796875,-0.017331658551096914,-1.0614555113136768,-0.731460025229305
1783174398703487000,1.486487060546875,-0.23270167141556738,-1.024848658928275,-0.6604685265526176
1783174398713556000,1.496555908203125,-0.5313046787619591,-0.9966076299585401,-0.6959080156590789
1783174398723624000,1.5066240234375,-0.7070148814111947,-1.0072336533911526,-0.8160637235425412
1783174398733693000,1.51669287109375,-0.6953390566647052,-0.9947053034685551,-0.8239994849778711
1783174398743761200,1.52676123046875,-0.5765373206734657,-0.9257495484031736,-0.7207848288927227
1783174398753830000,1.536829833984375,-0.3918289880543947,-0.8416383097819984,-0.5995254706162959
1783174398763897900,1.54689794921875,-0.21856500951349733,-0.7458798879869282,-0.4733500640518963
1783174398773967000,1.556967041015625,-0.12793021434247492,-0.6891605141602456,-0.4330011755939573
1783174398784035800,1.567035888671875,-0.20155776061117647,-0.6398796197712421,-0.4249441258665174
1783174398794103800,1.577103759765625,-0.3644476446539163,-0.6077949209854007,-0.422620578289777
1783174398804173000,1.587173095703125,-0.6005448037266731,-0.49664706074818965,-0.3789569392606616
1783174398814241000,1.597240966796875,-0.9118874656587839,-0.27899828929677606,-0.34149409110043194
1783174398824310000,1.60731005859375,-1.1987643793761729,-0.029735066919773814,-0.3422975895030424
1783174398834379000,1.61737890625,-1.559758668705821,0.22714242985323072,-0.3505709488622844
1783174398844447000,1.627447021484375,-1.7154986809939146,0.41021600087732074,-0.2974996126817539
1783174398854516000,1.637515869140625,-1.744163049942255,0.4906330611556768,-0.22134600026784462
1783174398864584000,1.647583984375,-1.4917723431944847,0.5969245674028992,-0.07259399283672682
1783174398874653000,1.65765283203125,-0.897207782921195,0.7315877432622016,0.23944303543455897
1783174398884721200,1.66772119140625,-0.2021849525988102,0.8330671730525792,0.5885227228257804
1783174398894790000,1.677789794921875,0.26214345447719095,0.8543113288722932,0.7592018725052475
1783174398904859100,1.687859130859375,0.4344458945095539,0.7601233712643385,0.7210908991672098
1783174398914927000,1.697927001953125,0.46967795141041274,0.6611817893885076,0.5448292366476729
1783174398924995800,1.707995849609375,0.4155436256408691,0.5188521705545485,0.2916861771626398
1783174398935064000,1.71806396484375,0.3150473616689443,0.371300287027657,0.07521158232344315
1783174398945133000,1.728133056640625,0.3382213165074587,0.2999940233133733,0.011945618131197988
1783174398955201800,1.738201904296875,0.4347434161514044,0.22918737968429923,0.06948400759003125
1783174398965270000,1.74827001953125,0.56936757517457,0.18451149487271903,0.23224364371607079
1783174398975339000,1.758339111328125,0.8026695505708455,0.13266484164893627,0.3602111030627042
1783174398985407000,1.768406982421875,0.9093214145630597,0.02835939465239644,0.44263676321711387
1783174398995476000,1.77847607421875,0.8868459633827209,-0.057525137251615524,0.5154807213600725
1783174399005544000,1.7885439453125,0.9153034115821123,-0.15047200875729322,0.6308357509635388
1783174399015613200,1.79861328125,0.9495417812705039,-0.20748057478889823,0.7020943030785769
1783174399025682000,1.808681884765625,0.7921487410783767,-0.2765266384862363,0.7776833586785942
1783174399035750000,1.81875,0.5095072729736566,-0.3741982004262507,0.8771903193522245
1783174399045819100,1.828819091796875,0.16816753218472003,-0.39212914004474875,1.0131105095352977
1783174399055887000,1.83888720703125,-0.1612462084889412,-0.27739494575336576,1.1846413806732743
1783174399065955800,1.848955810546875,-0.4354126937150955,-0.036906273723393675,1.4074980229660867
1783174399076024000,1.859024169921875,-0.565111671295762,0.20221929325982926,1.6140915857873857
1783174399086093000,1.869093017578125,-0.5667097541421652,0.37929011673778296,1.8010319152422247
1783174399096161800,1.879161865234375,-0.4567869056552648,0.4571116075649857,1.8887489232704042
1783174399106230000,1.88922998046875,-0.21698446232378482,0.48858898810744283,1.8270932620853184
1783174399116299000,1.899299072265625,0.14646891059577463,0.38302550387382506,1.8100424663022159
1783174399126367000,1.909366943359375,0.4404354903131723,0.21572160278111696,1.6472285701051352
1783174399136436000,1.91943603515625,0.6448211678266524,0.14847615876495837,1.4217911906041205
1783174399146505000,1.9295048828125,0.8346154254078865,0.16844035777673125,1.3113570315942167
1783174399156573200,1.9395732421875,0.9654080434441565,0.1927304571636021,1.269569269439578
1783174399166642000,1.949641845703125,1.1108622240394352,0.14694836467579006,1.2734637926600874
1783174399176710000,1.9597099609375,1.234451194307208,0.1049547046855092,1.2924139923237263
1783174399186779100,1.969779052734375,1.1775135015547276,0.07022124495655298,1.214084917300567
1783174399196846800,1.979846923828125,1.117590070989728,0.05614844207093119,1.1699720001339913
1783174399206915800,1.989915771484375,1.0545043770015239,0.08510024965852499,1.1435515376549212
1783174399216985000,1.999985107421875,0.9403758935183286,0.10537556044608354,1.1036828339293598
1783174399227052800,2.010052734375,0.8518950615108013,0.08226619527637959,1.0580530093938112
1783174399237122000,2.0201220703125,0.780516170951724,0.052731327103823424,0.9861187499742955
1783174399247190000,2.03018994140625,0.7110889989823103,-0.032319238194078205,0.932104762648791
1783174399257259000,2.040259033203125,0.5685492445290088,-0.11283128327950835,0.876707723467052
1783174399267327000,2.050326904296875,0.34113574264943597,-0.15358195747137068,0.8019795955453067
1783174399277396000,2.06039599609375,0.07031915237307548,-0.1270835343852639,0.7537624579302966
1783174399287465000,2.07046484375,-0.1377080965131521,-0.045252661786228415,0.715263362057507
1783174399297533000,2.080532958984375,-0.09859481426477432,-0.02271788163408637,0.7183334902178495
1783174399307602000,2.090601806640625,0.023381460109353065,-0.14166194870546459,0.63894869559668
1783174399317670100,2.100670166015625,0.015563479834794997,-0.2308183418869972,0.5232656761478632
1783174399327739000,2.11073876953125,-0.009269348126649856,-0.2835596058629453,0.45806171136405316
1783174399337808100,2.12080810546875,-0.13174188158512115,-0.3308770912244916,0.4683908342093229
1783174399347876000,2.1308759765625,-0.32691958577036856,-0.3630703649513423,0.40969866247233
1783174399357945000,2.140945068359375,-0.35225042638182635,-0.4195360562779009,0.37713472880218174
1783174399368013000,2.151012939453125,-0.27421558506488797,-0.5328602376408874,0.3345046340718865
1783174399378082000,2.16108203125,-0.09570143091082572,-0.7519469329409301,0.2511161019683815
1783174399388150000,2.17114990234375,0.001404021579027176,-0.9672356972627342,0.145379763652198
1783174399398219000,2.181218994140625,-0.010360065972805022,-1.1336502483002842,0.06626952992239966
1783174399408288000,2.1912880859375,-0.12003858430981636,-1.2035514675222336,0.015029153762385249
1783174399418356200,2.201356201171875,-0.3500046932816505,-1.2454387445285915,0.026558373112417755
1783174399428425000,2.211425048828125,-0.5701970117360353,-1.2465604420349001,0.03759893216267228
1783174399438493000,2.221492919921875,-0.6911930429011582,-1.3021204166933893,-0.0012213950211182236
1783174399448562200,2.231562255859375,-0.7939695267647504,-1.3503740138612688,-0.05386886150008067
1783174399458630100,2.241630126953125,-0.9902209976613521,-1.3936648740552364,-0.08618523188363761
1783174399468699000,2.251698974609375,-1.0844348203629255,-1.3037610235072672,-0.0591890518758446
1783174399478768000,2.26176806640625,-1.0156272415965795,-1.204367021688819,0.003912095409817994
1783174399488836000,2.271836181640625,-1.0189560937583446,-1.0702154486134647,0.06346890288582072
1783174399498905000,2.281905029296875,-1.10628424859941,-0.8871399778932333,0.043581751165632156
1783174399508973000,2.29197314453125,-1.1524012721300125,-0.7125415358781814,0.0527224131450057
1783174399519042000,2.3020419921875,-1.3499597339719533,-0.5092506678640842,0.08667573708062991
1783174399529111000,2.312111083984375,-1.6187006870180367,-0.265084476365149,0.18722418789751827
1783174399539179000,2.322178955078125,-1.9306348851025104,0.04388312699869275,0.2843291289307177
1783174399549248000,2.332248046875,-2.504904260843992,0.26355916649401184,0.10802067726054228
1783174399559316200,2.342316162109375,-2.9572265883058306,0.4682109475977719,-0.16561267833644525
1783174399569385000,2.352385009765625,-3.132511259019375,0.6605524054437876,-0.3887126095995307
1783174399579453000,2.362452880859375,-2.954611437371373,0.9932846230156719,-0.49091980567518617
1783174399589522200,2.372522216796875,-2.4936194812417027,1.4291329316690564,-0.49419641619306054
1783174399599591000,2.3825908203125,-1.8910913947433232,1.8474251253657041,-0.4485817161614075
1783174399609659100,2.3926591796875,-1.2543079874217509,2.17293674403429,-0.388569255606085
1783174399619728100,2.40272802734375,-0.6692448304653167,2.3270921174794434,-0.41156558885537087
1783174399629796000,2.412796142578125,-0.23303952506780623,2.3613494841292497,-0.5675079918477683
1783174399639865000,2.422864990234375,0.1173000992566347,2.3305983720347285,-0.8626796365059912
1783174399649934000,2.43293408203125,0.4267945029735565,2.270578349227458,-1.1999180794559419
1783174399660002000,2.443001953125,0.8094137641340494,2.199984179305285,-1.4720758552081883
1783174399670071000,2.453071044921875,1.2107149294108153,2.055247645460069,-1.7084972777992486
1783174399680139000,2.463138916015625,1.5441478425979613,1.9125139758698642,-1.94728060721606
1783174399690208300,2.473208251953125,1.8964286641180514,1.7646955503612756,-2.065795927481353
1783174399700276200,2.483276123046875,2.1835709507733583,1.6461026348151266,-2.0443081721641123
1783174399710345000,2.493344970703125,2.266144604563713,1.4725833663389085,-1.9333929516389965
1783174399720414200,2.503414306640625,2.091723857203126,1.2690361854761838,-1.7714482394918798
1783174399730482200,2.513482177734375,1.6840923198610542,1.1579659205198287,-1.6232970748975872
1783174399740551000,2.523551025390625,1.1868079841226338,1.099670967939496,-1.4387263971835373
1783174399750619100,2.533619140625,0.5053595056444407,1.1252573907472192,-1.2811539087712764
1783174399760688000,2.543688232421875,-0.21004911010265348,1.2111511288709937,-1.1785822998300195
1783174399770756000,2.553756103515625,-0.7260714640587568,1.2962260979577898,-1.0406704974383114
1783174399780825000,2.5638251953125,-1.0418915636658668,1.3510682797357438,-0.79873542599231
1783174399790894000,2.57389404296875,-1.086228133520484,1.4142333225704729,-0.5538948058305307
1783174399800962000,2.583962158203125,-0.9429501279205084,1.4459370592147112,-0.2952128899840638
1783174399811031000,2.594031005859375,-0.7554255688369274,1.4331428979627787,-0.14109068815615028
1783174399821099000,2.60409912109375,-0.5724632031023502,1.2916036988541484,-0.22457517318110912
1783174399831168300,2.614168212890625,-0.32432840023338794,1.046116049493104,-0.38359453593343495
1783174399841236200,2.624236328125,0.11368658493459224,0.7527731546320021,-0.4819869594939053
1783174399851305000,2.634304931640625,0.6207219148367643,0.4234427083276212,-0.5505147714708
1783174399861374200,2.644374267578125,0.9076175332546234,0.22017872832044957,-0.5468492712331935
1783174399871442200,2.654442138671875,1.0134019667625427,0.10552563644126058,-0.5287616432156413
1783174399881511000,2.664510986328125,1.065494557571411,0.01345350194349885,-0.5441211249109358
1783174399891579100,2.6745791015625,1.2123738025337456,-0.13928002200499176,-0.5191820966286584
1783174399901648100,2.684648193359375,1.3239321432679891,-0.3301072758957743,-0.5064350259214639
1783174399911717000,2.694717041015625,1.4117922130286693,-0.47322906802073117,-0.5022461228642613
1783174399921785000,2.70478515625,1.4285878650069237,-0.6376800639003515,-0.5513468383807688
1783174399931854000,2.71485400390625,1.365505093628168,-0.8006504658333957,-0.5713637904930859
1783174399941922300,2.72492236328125,1.2341951737195254,-0.9460562772423028,-0.6277696413911878
1783174399951991000,2.734990966796875,1.2281003639757633,-1.0359012372098864,-0.6257702842675149
1783174399962059000,2.74505908203125,1.1536895583748816,-1.1185412342347203,-0.6135401866391301
1783174399972128300,2.755128173828125,0.9039625178784132,-1.2213109960965811,-0.551558289174363
1783174399982197000,2.765197021484375,0.7291746907711029,-1.2520650308005512,-0.45787039004303515
1783174399992265000,2.775264892578125,0.7580635161250829,-1.301374128370732,-0.35734698233585804
1783174400002334200,2.785334228515625,0.8043313463032246,-1.3658338871911166,-0.3022391718916595
1783174400012402200,2.795402099609375,0.6298240897029638,-1.395398273719102,-0.2220859867138788
1783174400022471200,2.80547119140625,0.4718740001499653,-1.3024307978168128,-0.1812383549535647
1783174400032540200,2.8155400390625,0.29105682975053787,-1.2294305896662174,-0.10428012989219278
1783174400042608000,2.825608154296875,-0.0279459915459156,-1.1520346307747065,0.005418919776193797
1783174400052677000,2.835677001953125,-0.36804596140682694,-1.100083055871725,0.04688607167433947
1783174400062745000,2.8457451171875,-0.6499556081056594,-1.0833854574404655,0.0006380421752110124
1783174400072814000,2.85581396484375,-0.7592319753825664,-1.0580344508238135,-0.005254376864247024
1783174400082882000,2.865882080078125,-0.6587000555753707,-1.1478037152066827,-0.02395776215996593
1783174400092951000,2.875950927734375,-0.5625725082069635,-1.3323894443593918,-0.11064559153718873
1783174400103020300,2.886020263671875,-0.5720218890756368,-1.488654357304424,-0.21734175132885575
1783174400113088300,2.896088134765625,-0.5902694934278726,-1.5010944444216787,-0.2813957788925618
1783174400123157000,2.906156982421875,-0.6053536653131246,-1.463002175784111,-0.4408749046437442
1783174400133225200,2.91622509765625,-0.3632943829655647,-1.4609230314224957,-0.6174967422451824
1783174400143294200,2.926294189453125,-0.02659282337129116,-1.5542529108963905,-0.8044204858914017
1783174400153362000,2.93636181640625,0.29194471850097176,-1.7062815014459192,-1.0357513073451816
1783174400163431200,2.94643115234375,0.30182372295856474,-1.8255032164148985,-1.2227633868619798
1783174400173500200,2.956500244140625,0.04334112907648086,-1.8347320864006875,-1.395588535594195
1783174400183568100,2.966568115234375,-0.203617615750432,-1.7646071414254605,-1.4225140980511903
1783174400193637000,2.97663720703125,-0.33684067580401894,-1.6120394755631684,-1.3164119768962264
1783174400203705000,2.986705078125,-0.3912392054677009,-1.561222311517596,-1.2471487633168696
1783174400213774000,2.996774169921875,-0.48880584572851654,-1.4951631546765565,-0.9725944478169083
1783174400223842000,3.006842041015625,-0.6401952615916728,-1.2016386196382343,-0.7007459572095424
1783174400233911000,3.0169111328125,-0.6944733797460794,-0.8410238311454653,-0.33365283954814073
1783174400243980300,3.026980224609375,-0.5490870036900043,-0.5879210306055843,0.47473574625663456
1783174400254048000,3.037048095703125,-0.264776725590229,-0.32010712927654383,1.1657577434398234
1783174400264117000,3.047116943359375,-0.3038461686968803,-0.10185980741009115,1.542307767689228
1783174400274185200,3.057185302734375,-0.892278509825468,-0.0056293841890990735,1.7643424991399048
1783174400284254000,3.06725390625,-1.7321797666817902,0.21502499881908296,1.7499670600458979
1783174400294323000,3.077322998046875,-2.2293308314293623,0.563683099797368,1.6091650891706346
1783174400304391200,3.08739111328125,-2.13347333317399,0.742614748711139,1.5079481097087264
1783174400314460200,3.097460205078125,-1.724431344512105,0.7502132410161196,1.3785950229562818
1783174400324527600,3.107527587890625,-1.3889514356672763,0.7968459589838981,1.157557778110355
1783174400334596600,3.1175966796875,-1.2674760965526104,0.8735448755219578,1.0357494807142764
1783174400344664600,3.12766455078125,-1.3113608309864997,1.1113903395667672,1.1726600701741874
1783174400354733600,3.137733642578125,-1.422954827556014,1.4864131542488932,1.5606214230149984
1783174400364802600,3.147802490234375,-1.6710364389330148,1.8455835891522465,2.009767750789225
1783174400374870500,3.15787060546875,-1.9298259068071841,2.173094418814033,2.3830013439670203
1783174400384939500,3.167939453125,-2.085331525817513,2.537638947971165,2.5643247103229165
1783174400395007500,3.178007568359375,-2.1921026322752235,2.859233539326489,2.4545766338810324
1783174400405076500,3.188076416015625,-2.1638585345655676,3.1058143907517195,2.213064756283164
1783174400415144400,3.19814453125,-1.786888677468896,3.2221286938413978,1.8429207996837793
1783174400425213700,3.208213623046875,-0.9924667307615279,3.1599148142516613,1.5621313891865312
1783174400435282400,3.218282470703125,0.02705634922981262,2.828321099190414,1.4208105090036987
1783174400445350700,3.2283505859375,0.8431091129869223,2.483971655191481,1.262197717758268
1783174400455419600,3.238419677734375,1.4331255084365606,2.3462331635400653,1.1579361099034546
1783174400465487400,3.2484873046875,1.8450655566275118,2.243211034352332,1.2229562790855764
1783174400475556600,3.258556640625,2.139402723222971,2.1567419805586336,1.2609478638276457
1783174400485625600,3.26862548828125,2.294613158679008,2.1155653360396625,1.3196541736878453
1783174400495693600,3.278693603515625,2.175479414254427,2.005191236653924,1.3982846428103743
1783174400505762600,3.288762451171875,1.8912030384242533,1.8896618003316223,1.4791776500374079
1783174400515830500,3.29883056640625,1.533810572978854,1.7876712061487137,1.4971458529263735
1783174400525899800,3.308899658203125,1.3463222542524338,1.6113029779821633,1.4736054028630257
1783174400535967500,3.318967529296875,1.2424568061083554,1.364064393300563,1.3741387741997837
1783174400546036500,3.329036376953125,1.2497370262444019,1.1429257339067755,1.200948445416987
1783174400556105700,3.339105712890625,1.303428284421563,0.8939503885604441,1.2059195118278265
1783174400566173400,3.34917333984375,1.2895260157972575,0.7286131113655865,1.3380290576815603
1783174400576242400,3.359242431640625,1.01861005679965,0.6850975025050342,1.4863792519792913
1783174400586310700,3.369310546875,0.6274363177835941,0.6845815158069133,1.56959398015216
1783174400596379400,3.37937939453125,0.27434768701195716,0.6096525315508247,1.5523635900184511
1783174400606447400,3.389447265625,-0.015706103175878523,0.4491884133502841,1.3940307847581803
1783174400616516600,3.3995166015625,-0.1685959867298603,0.27474793837592004,1.2682343675740062
1783174400626585600,3.409585693359375,-0.15852993526756762,0.11360986643657088,1.2894606954760848
1783174400636653600,3.419653564453125,-0.14075579364597796,0.016701397823542356,1.2834488878406582
1783174400646722600,3.42972265625,-0.19979951876699922,0.015394406878203152,1.3619484240598976
1783174400656790500,3.43979052734375,-0.231311093840003,0.08416706046164035,1.482779327791184
1783174400666859500,3.449859619140625,-0.25028408985733985,0.021504852582514285,1.5122687493868172
1783174400676927500,3.459927490234375,-0.1798152998805046,-0.11388254589810967,1.4623967572368681
1783174400686996500,3.46999658203125,-0.11159984178841113,-0.22278379625231026,1.43192343917042
1783174400697065500,3.4800654296875,-0.20169570777714252,-0.33577333883345123,1.4594392226055264
1783174400707133400,3.490133544921875,-0.2434060207813978,-0.33635464585274455,1.5781500654429197
1783174400717202700,3.50020263671875,-0.1612193204820156,-0.306089417579025,1.6972534147292375
1783174400727270700,3.510270751953125,0.012234627673029899,-0.24820626066997645,1.7840448323450981
1783174400737339400,3.52033935546875,0.19024609300196169,-0.23551322170495986,1.7226793862782417
1783174400747408600,3.53040869140625,0.29773265425264833,-0.31056743977591394,1.6315996238186954
1783174400757476600,3.5404765625,0.38277357493937014,-0.46587169099524617,1.5017507163733244
1783174400767545300,3.55054541015625,0.42142040871977804,-0.6209640530295669,1.3727568183220922
1783174400777613600,3.560613525390625,0.3770288938075304,-0.8117096199862659,1.3560558588899672
1783174400787682600,3.5706826171875,0.3494751164495945,-0.8489378191404044,1.3822422934174536
1783174400797750500,3.58075048828125,0.309891294080019,-0.8472986736312508,1.549615606484562
1783174400807819500,3.590819580078125,0.20417115797996518,-0.8137213982000947,1.6644233044035732
1783174400817888500,3.600888427734375,-0.07925181589126587,-0.7409549988053739,1.7358341975361107
1783174400827956500,3.61095654296875,-0.3592874854117632,-0.6063662033565342,1.7924746609076856
1783174400838025500,3.621025390625,-0.3172352271020412,-0.5095030351899564,1.842380701457709
1783174400848093400,3.631093505859375,-0.11711831294894218,-0.48892874145582316,1.7987822366192936
1783174400858162700,3.64116259765625,0.07546879022121429,-0.5256828933574259,1.6737825227707623
1783174400868230700,3.651230712890625,0.24589199237823484,-0.6162674196459352,1.543819925817847
1783174400878299400,3.66129931640625,0.44259763678312297,-0.6882964446768164,1.4495051269598305
1783174400888368600,3.67136865234375,0.5283838228791952,-0.7408179284222424,1.480650645199418
1783174400898436600,3.6814365234375,0.4608271209567785,-0.7944991035968065,1.5932228391513228
1783174400908505300,3.69150537109375,0.3117331225544214,-0.7920977415435015,1.7873853749446569
1783174400918573600,3.701573486328125,0.06679740798771382,-0.7487194953270256,1.998643860837072
1783174400928642600,3.711642578125,-0.19377368260622024,-0.6406383291840553,2.187668449220061
1783174400938710500,3.72171044921875,-0.5467430709123611,-0.5234001892477274,2.385166997568309
1783174400948779500,3.731779541015625,-0.775368871191144,-0.38122619936689733,2.51539905911237
1783174400958848500,3.7418486328125,-0.8919207824289799,-0.29172669183611866,2.5552023694515227
1783174400968916700,3.751916748046875,-0.9096171826392412,-0.208347274620831,2.464237903934717
1783174400978985500,3.7619853515625,-0.8518249188840389,-0.09170724670812487,2.3328822451882063
1783174400989053400,3.772053466796875,-0.789018626359105,-0.012935469418764113,2.1901504752941428
1783174400999122700,3.782122802734375,-0.7078969249427318,0.05611278623566031,2.071324043253064
1783174401009191400,3.79219140625,-0.5153548299580812,0.11710852220728993,1.9289697283692657
1783174401019259400,3.80225927734375,-0.2446919689387083,0.21688699329867958,1.8484005462691186
1783174401029328600,3.81232861328125,-0.07212590953409671,0.30167598505094645,1.7447668610543012
1783174401039396600,3.822396728515625,-0.08512742992639541,0.26069749345257875,1.58339454196766
1783174401049465600,3.832465576171875,-0.11283318297564983,0.21172493436038492,1.3710010606959462
1783174401059533600,3.842533447265625,-0.12442132943868636,0.1458352888673544,1.1137280617993324
1783174401069602600,3.8526025390625,-0.3031500031262636,-0.015940496453642844,0.8593656896524131
1783174401079671600,3.862671630859375,-0.5336363365799188,-0.07598433852791786,0.7234146659396589
1783174401089739500,3.872739501953125,-0.6881359934180975,-0.052012803570926185,0.7273107965953648
1783174401099808500,3.88280859375,-0.8597679868429898,0.052473991341888904,0.8233473046794533
1783174401109876700,3.892876708984375,-0.9959925668001174,0.22344664407521486,1.0224367754809558
1783174401119945500,3.902945556640625,-1.150268351754546,0.43571474540159105,1.2685232675179838
1783174401130013400,3.913013427734375,-1.331992700126767,0.7574751948431134,1.4488535311833024
1783174401140082700,3.923082763671875,-1.5486317100137472,0.9616637423492967,1.5166101395919918
1783174401150151400,3.9331513671875,-1.734254234868288,1.1311194146484136,1.45010309285298
1783174401160219400,3.943219482421875,-1.9391122060686348,1.262934215339273,1.253646016381681
1783174401170288600,3.95328857421875,-2.022820416846871,1.3670904631234704,1.0591548331558704
1783174401180356600,3.963356689453125,-1.8116870186388492,1.3900265175528823,0.7501341844305396
1783174401190425600,3.973425537109375,-1.323244161003828,1.350225106909871,0.3896361907178536
1783174401200494600,3.98349462890625,-0.8864385516256094,1.2580531652994453,0.10700889726895839
1783174401210562600,3.9935625,-0.5113713132798672,1.135312336293608,-0.15375705830994993
1783174401220631600,4.003631591796875,-0.14203823467195034,1.0264568247772752,-0.324445231546089
1783174401230699500,4.013699462890625,0.2326923190653324,1.0098306841470301,-0.44285595892574636
1783174401240768500,4.0237685546875,0.5960825636208057,1.086464134233445,-0.5156369713677094
1783174401250836700,4.033836669921875,0.8998159195929765,1.1247202151305973,-0.5550268420677632
1783174401260905500,4.043905517578125,0.9006167145818471,1.0709624675884841,-0.6260727012801915
1783174401270974700,4.053974609375,0.6061369246453047,0.985574487029761,-0.7403796100702136
1783174401281042700,4.064042724609375,0.20104513491392134,0.9006628918111323,-0.8259123328618705
1783174401291111400,4.074111328125,-0.21850012758374213,0.811542300595343,-0.8814639780834317
1783174401301179600,4.0841796875,-0.5189145682662725,0.7950137751206755,-0.9367929204650223
1783174401311248600,4.09424853515625,-0.5941951424390077,0.8608404383800923,-0.950511503085494
1783174401321316600,4.104316650390625,-0.5010100782632827,0.8824721322126686,-0.8914163400381803
1783174401331385600,4.114385498046875,-0.33400048394203186,0.9335539385437965,-0.8055063083667308
1783174401341454600,4.12445458984375,-0.01538169352710247,1.0022318995811044,-0.6617663112781942
1783174401351522600,4.1345224609375,0.26932430589199063,1.0015914097204803,-0.44736072299908847
1783174401361591600,4.144591552734375,0.2116647286057472,0.9577958148747682,-0.25807313629835843
1783174401371659500,4.154659423828125,0.02344926464855671,0.98561847230196,-0.08588274180572479
1783174401381728800,4.164728759765625,-0.056419221836328505,1.0149331218525768,0.058239386468194425
1783174401391797500,4.174797607421875,-0.08827157317101955,1.0094378854371606,0.13566935722716153
1783174401401865500,4.184865478515625,0.03671791154444218,1.0092805029183625,0.10643135310932993
1783174401411934700,4.194934814453125,0.3370224621117115,0.9428295702807604,0.07447824481390417
1783174401422002400,4.20500244140625,0.5943406883895397,0.8618306184612214,0.054372883765771984
1783174401432071700,4.21507177734375,0.797470812883973,0.8144283774256705,0.06970467373654246
1783174401442139600,4.2251396484375,0.8804542165189981,0.7617115172386169,0.1279083313042298
1783174401452208600,4.235208740234375,0.7939841398119926,0.7042395714789629,0.1935811922414228
1783174401462277600,4.245277587890625,0.7228536710560322,0.6636036097079515,0.25794286098219454
1783174401472345600,4.255345703125,0.68451312674582,0.584165477464348,0.2547388773091137
1783174401482414600,4.26541455078125,0.7298480599880218,0.45876346642524,0.22304204532969743
1783174401492482600,4.275482666015625,0.702607586362958,0.37354543560594317,0.18137984578348695
1783174401502551600,4.285551513671875,0.5190887557893992,0.29752967902645466,0.14940741173308342
1783174401512619500,4.29561962890625,0.2309802544504404,0.2921725359074771,0.19474307562764734
1783174401522688500,4.3056884765625,0.07645487864911556,0.4176489273570478,0.3080713121112436
1783174401532757500,4.315757568359375,0.014710077875852583,0.4583361809238791,0.35180001573320474
1783174401542825700,4.32582568359375,0.09182721982598305,0.4000394747778773,0.33285847430005666
1783174401552894700,4.335894775390625,0.22971768716871738,0.26444720137491823,0.2755739043386653
1783174401562962400,4.34596240234375,0.24299159476161003,0.06262421395629644,0.24256832784824073
1783174401573031700,4.35603173828125,0.12925532546639443,-0.07172755786627531,0.2858830073092133
1783174401583099600,4.366099609375,-0.034568040034174914,-0.04306874187588691,0.4589261096410453
1783174401593168400,4.37616845703125,-0.11486615010797976,0.1264839610569179,0.6337615752823651
1783174401603237600,4.386237548828125,-0.1705266625314951,0.26452231243774293,0.8163979969982057
1783174401613305600,4.3963056640625,-0.34053836127817627,0.38878582096621395,0.9582053455237298
1783174401623374600,4.40637451171875,-0.3673696695804596,0.5352350039482117,1.0021820690900087
1783174401633442600,4.416442626953125,-0.3102501905202865,0.5260131482250988,0.992503482575342
1783174401643511600,4.426511474609375,-0.25456629722118373,0.5466092153996229,0.9859779532641172
1783174401653579500,4.43657958984375,-0.09575286883711814,0.5978305763319134,0.8905915065865964
1783174401663648500,4.4466484375,0.2161257996678352,0.5995026011973619,0.8137171604163944
1783174401673717500,4.456717529296875,0.48283729271292686,0.5234755925714969,0.7298641343399882
1783174401683785700,4.46678564453125,0.558183333337307,0.38913638796955347,0.622073767837137
1783174401693854500,4.4768544921875,0.5026081611096859,0.2592920105688274,0.48460159897170957
1783174401703922400,4.48692236328125,0.4218734131842851,0.1362938458010554,0.4109929035339504
1783174401713991700,4.49699169921875,0.35342239277064796,0.13550021120533345,0.4478747004032135
1783174401724060400,4.507060302734375,0.23710838194191455,0.2694106690011918,0.5039283768627792
1783174401734128400,4.51712841796875,0.06715279729664325,0.46475963810011744,0.5749035089265555
1783174401744197600,4.52719775390625,-0.23322131137549876,0.7142604686252773,0.7187457973457873
1783174401754265600,4.537265625,-0.43259529820680614,0.9915845410995184,0.857610954939574
1783174401764334600,4.54733447265625,-0.4334995535701513,1.1449367814682423,0.8922669655181467
1783174401774402600,4.557402587890625,-0.3943096989542246,1.2547967938520013,0.8788933238778263
1783174401784471600,4.567471435546875,-0.4609259051561355,1.4241929910488427,0.8932819877795874
1783174401794540500,4.57754052734375,-0.45307694522142405,1.6376237064138053,0.9300555750340223
1783174401804608500,4.5876083984375,-0.3040700405806303,1.7718778630807994,0.973696125448495
1783174401814677500,4.597677490234375,-0.30293489907085897,1.9178049218848348,1.1226426782041787
1783174401824745700,4.607745849609375,-0.3061965312153101,2.129209976641089,1.3318806180544196
1783174401834814500,4.617814453125,0.09109598294198512,2.304250901726633,1.4405546355240046
1783174401844882400,4.62788232421875,0.5345201336771249,2.3754412839762864,1.518619287457317
1783174401854951700,4.63795166015625,0.8846458229899405,2.2572212933957574,1.6936001529186964
1783174401865020400,4.6480205078125,0.9328624491482973,2.0295117311790585,2.010249396826327
1783174401875088600,4.658088623046875,0.4862415481984615,1.9631207120351493,2.181528631290793
1783174401885157600,4.66815771484375,-0.25325989079773426,1.9728407265387475,2.120823110437393
1783174401895225600,4.6782255859375,-0.9750912330687046,1.9890591631509362,2.0535775202907622
1783174401905294600,4.688294677734375,-1.2508680761009454,2.1190803584232927,1.855675213447213
1783174401915362600,4.698362548828125,-0.9748357970029116,2.105634601394832,1.733871665291488
1783174401925431600,4.708431640625,-0.5951631106883287,1.9291196582339702,1.7230848983392117
1783174401935500500,4.71850048828125,-0.20793898608088493,1.6830949793867767,1.627766767657548
1783174401945568500,4.728568603515625,0.31116847440898415,1.2463855238594115,1.5552110884040593
1783174401955637800,4.7386376953125,0.49501580628454683,0.8608562204711139,1.560404711524397
1783174401965705700,4.748705810546875,0.45853170349597927,0.6825432879775762,1.4690790114797652
1783174401975774500,4.7587744140625,0.3182587249308824,0.4815836393900215,1.4741998616248368
1783174401985843700,4.76884375,0.04297872550487518,0.43096316696032877,1.5999847345016895
1783174401995911700,4.77891162109375,-0.1347071611315012,0.46069326544404027,1.65733758392632
1783174402005980400,4.78898046875,-0.20334581307172775,0.3797704476006329,1.6208255702175198
1783174402016048600,4.799048583984375,-0.38843642300665376,0.1675057803403586,1.548844768242538
1783174402026117600,4.80911767578125,-0.6176484987407922,0.022239012075960636,1.446489432400465
1783174402036185600,4.819185546875,-0.9024152884364127,-0.07893252080902456,1.4659756386369467
1783174402046254600,4.829254638671875,-1.308299689850211,-0.0712144207123667,1.5493644082024693
1783174402056323600,4.839323486328125,-1.511855930802226,0.03266140269525349,1.6312646927759051
1783174402066391600,4.8493916015625,-1.5011241089075802,0.09637246204018592,1.7066355755805969
1783174402076460500,4.85946044921875,-1.3520932388693094,0.10843509414717555,1.6578677452802657
1783174402086528500,4.869528564453125,-1.1735597954928874,0.047117067418619984,1.6485431598350404
1783174402096597800,4.87959765625,-1.0131336712151766,-0.06532923513129353,1.6946791803270578
1783174402106665700,4.889665771484375,-0.8143506360143422,-0.1312209995161742,1.6503955097034573
1783174402116734500,4.899734375,-0.6754875242471694,-0.18629669778905808,1.6287411656476556
1783174402126803700,4.9098037109375,-0.6220943722337484,-0.19946882550790904,1.7428893767446278
1783174402136871700,4.91987158203125,-0.6386036084860562,-0.2682159062586725,1.7378296091370284
1783174402146940400,4.9299404296875,-0.4531581937640905,-0.34388197261765596,1.728116170504689
1783174402157008600,4.940008544921875,-0.2582330030351877,-0.39576033615395423,1.7818268640346824
1783174402167077600,4.95007763671875,-0.06564063916802405,-0.33672442901320754,1.762710221762955
1783174402177146600,4.960146728515625,0.13003858479857444,-0.3253611773472279,1.7971596038535236
1783174402187214600,4.970214599609375,0.32025720527172086,-0.376699515722692,1.8430355121046305
1783174402197283600,4.98028369140625,0.41391456313431263,-0.4972562056224793,1.7873187394492327
1783174402207351800,4.990351806640625,0.41007366979718207,-0.556413401055336,1.709437335128337
1783174402217420500,5.000420654296875,0.5223270070582628,-0.5709785175025462,1.7687179377451538
1783174402227488500,5.010488525390625,0.7282002927809953,-0.5532026223152876,1.863302201194316
1783174402237557800,5.020557861328125,0.8149252210319041,-0.5002605020049959,1.8870646234452724
1783174402247626500,5.03062646484375,0.8597089501321316,-0.5052024153865874,1.8814437148235736
1783174402257694500,5.040694580078125,0.8701531872570514,-0.6138175422757863,1.8734410256318748
1783174402267763700,5.050763671875,0.712130032467842,-0.7585759226266294,1.8836374254755675
1783174402277831700,5.060831787109375,0.46418987538814543,-0.8359265810716897,1.8697928783878683
1783174402287900700,5.070900634765625,0.3061877633869648,-0.8568047531232237,1.8600895227581262
1783174402297968600,5.08096875,0.3133241911381483,-0.8828681457929313,1.817403642719984
1783174402308037600,5.09103759765625,0.3108738753765821,-0.8845472579862922,1.8078616151317952
1783174402318106600,5.101106689453125,0.23973639235794542,-0.8417529491376131,1.8088598323889076
1783174402328174300,5.11117431640625,0.2212380281150341,-0.7995364401768893,1.851584583132714
1783174402338243600,5.12124365234375,0.3965349737882614,-0.804663500867039,1.922310416610539
1783174402348311600,5.1313115234375,0.5935188506126403,-0.8420423605382442,2.0513430392369627
1783174402358380300,5.14138037109375,0.6579121200680732,-0.8057675896514207,2.1328534477099774
1783174402368448500,5.151448486328125,0.5280366168767213,-0.7511663039572537,2.1047877753071487
1783174402378517500,5.161517578125,0.36627310651540756,-0.7278902039185166,2.1271656113319097
1783174402388586500,5.17158642578125,0.20134499464333055,-0.6762866387356072,2.1833346577994526
1783174402398654500,5.181654541015625,-0.08455109134316444,-0.5338770865332335,2.2197049249500034
1783174402408723500,5.191723388671875,-0.4394651839762926,-0.37006131981723006,2.2140075900912284
1783174402418791400,5.20179150390625,-0.5884943004488945,-0.19624708698242901,2.2299682525500653
1783174402428860400,5.2118603515625,-0.5650345144063234,-0.024963468603789805,2.226331503482908
1783174402438929400,5.221929443359375,-0.5041565595954657,0.015360285412892699,2.0581424901187417
1783174402448997400,5.231997314453125,-0.376304086664319,-0.049503158837556835,1.7488748808950185
1783174402459066400,5.24206640625,-0.2648310861259699,-0.11932605212628841,1.490374751356244
1783174402469134300,5.25213427734375,-0.2172030735105276,-0.25712584551088513,1.2427438063561915
1783174402479202600,5.26220263671875,-0.2990273702383041,-0.3208891464997083,1.0419835527982562
1783174402489270500,5.2722705078125,-0.5133382294386625,-0.2742657078169286,0.9135862324006855
1783174402499339300,5.28233935546875,-0.6730185037851333,-0.15045703038386998,0.8982768734574318
1783174402509407500,5.292407470703125,-0.7996405581384897,0.056406873811408874,0.9807204711273312
1783174402519476500,5.3024765625,-0.9246768046051264,0.2728891587667167,1.0557764427639544
1783174402529545200,5.312545166015625,-1.1238473778188227,0.4547119260121137,0.9881988441839814
1783174402539613400,5.322613525390625,-1.322371469822526,0.5476640582147986,0.7262625296514481
1783174402549682400,5.332682373046875,-1.4197107310682535,0.5050858032695948,0.35489326904080803
1783174402559750400,5.34275048828125,-1.4024644127130508,0.4084886656280607,0.055310201148502526
1783174402569819400,5.3528193359375,-1.221246844819188,0.49666729981862007,-0.30350093545578416
1783174402579887400,5.362887451171875,-0.7772416793256998,0.4920265613406896,-0.32390516985263673
1783174402589956600,5.37295654296875,-0.3999059115260839,0.7257048957686871,-0.2813790104208514
1783174402600025300,5.383025390625,-0.3654822483986616,0.896211757621169,-0.2597704052029177
1783174402610093300,5.39309326171875,-0.494159481716156,0.9580387567851691,-0.28622699844129385
1783174402620162600,5.40316259765625,-0.6310188524454832,1.0717782409507781,-0.3620009090889245
1783174402630230500,5.41323046875,-0.5781967783182859,1.1501350076984613,-0.4320794941717759
1783174402640299300,5.42329931640625,-0.3154138568937778,1.2784675922967492,-0.4096360090322792
1783174402650367500,5.433367431640625,-0.213351074257493,1.423643832733482,-0.39711240835003553
1783174402660436500,5.4434365234375,-0.30393267793655393,1.4722669938661157,-0.5041751912306994
1783174402670505500,5.45350537109375,-0.3818038531243801,1.4613566005341707,-0.7380902570240199
1783174402680573400,5.463573486328125,-0.2857218984633684,1.4101301250353455,-1.022633028705418
1783174402690642400,5.473642333984375,0.07572948698401451,1.3071215859815477,-1.2734322284780442
1783174402700710700,5.483710693359375,0.4275310005545616,1.114450165528804,-1.332569330970943
1783174402710779400,5.493779296875,0.46008945433199405,0.976289502942562,-1.3434236102014778
1783174402720848400,5.503848388671875,0.0767494776815176,0.93832882479541,-1.3749962678119538
1783174402730916600,5.51391650390625,-0.384668594905734,1.0130930469438433,-1.3182614041551948
1783174402740985300,5.5239853515625,-0.6545382597208023,1.206023629789427,-1.148904516055435
1783174402751053300,5.53405322265625,-0.863324218019843,1.4113558674380182,-0.9468505694251507
1783174402761122600,5.54412255859375,-1.010237949773669,1.6530679437831044,-0.816773771508038
1783174402771190500,5.5541904296875,-1.2258493701785802,1.8919614555761217,-0.7663300438847392
1783174402781259500,5.564259521484375,-1.2385960390269755,2.0818492366597057,-0.6961649860948323
1783174402791328500,5.57432861328125,-0.9979097985982894,2.064556448814273,-0.5794393987905234
1783174402801396500,5.584396484375,-0.6586936258345842,1.8965465914092956,-0.5031644067529588
1783174402811465500,5.594465576171875,-0.30125381411612034,1.6461153481662272,-0.4451276301847771
1783174402821533400,5.604533447265625,0.11350772123634814,1.4016367297172545,-0.5258533910861238
1783174402831603500,5.614603515625,0.410640656030178,1.1460760876964777,-0.6958211410932242
1783174402841672400,5.62467236328125,0.5588759917765855,0.9373631946336477,-0.8782374172523617
1783174402851740400,5.634740478515625,0.6562491552919149,0.7318945441890508,-1.0158551320683211
1783174402861809400,5.644809326171875,0.8125199134558438,0.487045777253434,-1.0898581605859101
1783174402871877400,5.65487744140625,0.9236153128534554,0.2634189543057233,-1.106463112297654
1783174402881946400,5.6649462890625,0.9316822994530201,0.14335231294520198,-1.0512840997807682
1783174402892015400,5.675015380859375,0.9394652084141969,0.09818250713683664,-0.972542717629671
1783174402902083300,5.685083251953125,0.9341261854737997,0.06751688136868178,-0.8397330606825649
1783174402912152600,5.695152587890625,0.9747340901941061,0.01899118926115334,-0.8276498972442
1783174402922220500,5.705220458984375,0.9387918391972779,-0.13649024515599012,-0.8907470624744892
1783174402932289300,5.715289306640625,0.9740227270543574,-0.3366299556627869,-0.9353731898602098
1783174402942357200,5.725357177734375,1.093869003662467,-0.4997775407936424,-0.9530696631357073
1783174402952426500,5.735426513671875,1.011215854895115,-0.6403907110985368,-0.9322023778043687
1783174402962495200,5.7454951171875,0.8651789059758186,-0.7183144932564347,-0.9755880036097019
1783174402972563500,5.7555634765625,0.7061673246711492,-0.7189226882826536,-0.9237085440948605
1783174402982632400,5.765632568359375,0.49864334913194175,-0.641115445176512,-0.8431053866598754
1783174402992700400,5.775700439453125,0.30493454845547674,-0.5349508532445878,-0.8402641718845814
1783174403002769400,5.785769287109375,0.23123159886300562,-0.5279486463323235,-0.8274408576034009
1783174403012837400,5.79583740234375,0.28505788159668444,-0.6344600058753043,-0.9199251530986279
1783174403022906400,5.80590625,0.37620062628984446,-0.8160883465271442,-0.992172862381488
1783174403032975400,5.815975341796875,0.5067968449711799,-0.9630758011043071,-1.0551042425908148
1783174403043043300,5.826043212890625,0.492242249917984,-0.9998705042120068,-0.9959093454960734
1783174403053112600,5.836112548828125,0.32757892646193504,-0.955590486850217,-0.8218732866041362
1783174403063180500,5.8461806640625,0.19202888476550578,-0.8295822535462677,-0.6782879686206579
1783174403073249300,5.856249267578125,0.24268588981330394,-0.7370286191418767,-0.5556000753784552
1783174403083318500,5.866318603515625,0.32949089756309985,-0.802055218064785,-0.5335089473405853
1783174403093386500,5.876386474609375,0.47416240334808823,-0.8937501898132264,-0.6282021875895559
1783174403103455200,5.886455322265625,0.614433628347516,-0.9845609260730445,-0.6917902781419456
1783174403113523500,5.8965234375,0.5637392138987779,-1.022780620482564,-0.6404570543330163
1783174403123592400,5.906592529296875,0.3907879545688629,-1.0050855354465544,-0.5628393424496054
1783174403133660400,5.916660400390625,0.19136428337693212,-0.9552515372194349,-0.4928485087154433
1783174403143729400,5.9267294921875,0.09201777396202086,-0.9792018832579255,-0.5306794595357031
1783174403153798400,5.93679833984375,0.10141805499196052,-1.0194413930572568,-0.614639818444103
1783174403163866600,5.94686669921875,0.048422962385416025,-1.0718129469379782,-0.748125621087104
1783174403173935400,5.956935302734375,-0.021627309918403625,-1.1166882998444139,-0.8685887144193053
1783174403184003300,5.96700341796875,-0.20196283428072928,-1.1927334286488591,-0.9687202367320656
1783174403194072600,5.977072509765625,-0.4517401436597109,-1.2195875333048403,-0.9049489716324954
1783174403204140500,5.987140625,-0.6700479635417461,-1.0605174998112021,-0.739050991814956
1783174403214209300,5.997209228515625,-0.5864701011449098,-0.8158056571282446,-0.4977374498007819
1783174403224278500,6.007278564453125,-0.3772054194182157,-0.7205893793858588,-0.34270112880263476
1783174403234346500,6.017346435546875,-0.3101993371158838,-0.8294161031991243,-0.4736083131292835
1783174403244415500,6.02741552734375,-0.43825931531786916,-1.0396293178223073,-0.8028818781472742
1783174403254483500,6.0374833984375,-0.6103314537256955,-1.2832691473595796,-1.1779314347058534
1783174403264552400,6.047552490234375,-0.8295330075770616,-1.422862619227916,-1.4593413151890038
1783174403274621400,6.057621337890625,-1.1070844590663909,-1.3978431826531885,-1.6558819782905279
1783174403284689400,6.067689453125,-1.1905296349942684,-1.1738000339895487,-1.6629767588570712
1783174403294758400,6.07775830078125,-0.958778980693221,-0.9790136672094464,-1.5492286529935895
1783174403304826600,6.08782666015625,-0.5770633903741836,-0.8023137228704988,-1.3244067750424147
1783174403314895400,6.097895263671875,-0.40886546305119986,-0.5875009054973721,-1.2214791922703385
1783174403324962800,6.107962890625,-0.5139321036785841,-0.348227308345586,-1.1795375547282396
1783174403335032000,6.118031982421875,-0.7181681435883045,-0.1505219853788614,-0.9087234486699104
1783174403345100800,6.128100830078125,-1.0149486116826534,0.06499664217606187,-0.6230846984453499
1783174403355169000,6.1381689453125,-1.2931985668301582,0.357310924641788,-0.4488477832190692
1783174403365238000,6.148238037109375,-1.4971762480646371,0.6345341670900583,-0.4575151833971962
1783174403375306000,6.158305908203125,-1.477356864351034,0.8139369406469166,-0.5868121925808489
1783174403385375000,6.168375,-1.2809037334024906,0.8139777110487222,-0.7893295189391821
1783174403395443000,6.17844287109375,-0.8809171578556299,0.837037099596858,-0.9361332144472747
1783174403405512000,6.188511962890625,-0.3554091826736927,0.9602528526380658,-0.9157560507204383
1783174403415581000,6.198580810546875,0.07826923459470271,0.9989745052203536,-0.7370709239136427
1783174403425649000,6.20864892578125,0.3287684285074472,1.1053373231381178,-0.4464198254197836
1783174403435718100,6.21871826171875,0.49946635595262046,1.2902435164168475,-0.1938743847680278
1783174403445786000,6.2287861328125,0.687321754425764,1.5041406802497803,0.16687944686925038
1783174403455854800,6.238854736328125,0.6908955212593079,1.7723973569102585,0.6074495781464502
1783174403465924000,6.248924072265625,0.45961365351378913,2.062702053119242,0.937039223376289
1783174403475992000,6.258991943359375,0.11523264533281326,2.3036828925803303,1.0444017929211258
1783174403486060800,6.269060791015625,0.006835983499884605,2.348774226325005,0.9772118054192512
1783174403496129000,6.27912890625,0.14600947639048098,2.1452073178485036,0.7387855458118021
1783174403506198000,6.289197998046875,0.43148821374773977,1.8766078190997242,0.4669561982963234
1783174403516266000,6.299265869140625,0.7634843721300363,1.6311660547070204,0.2698071027065627
1783174403526335000,6.3093349609375,1.0172212327897547,1.4407105567380785,0.17741549046346916
1783174403536404000,6.319404052734375,1.067572532889247,1.4064929375767707,0.18887239349596202
1783174403546472200,6.32947216796875,1.0242039312839508,1.487516877707094,0.2898311969457194
1783174403556541000,6.339541015625,0.8232873911857604,1.5548578910522162,0.4071273872122168
1783174403566609000,6.34960888671875,0.4484539615958929,1.54995945148617,0.45831049849335104
1783174403576678100,6.35967822265625,0.00917465558052063,1.4584445124797523,0.4699859944462776
1783174403586745900,6.369745849609375,-0.36906419853866096,1.367592129035294,0.47077239558361467
1783174403596814800,6.37981494140625,-0.6289940686196088,1.2893741862364112,0.4233299321355298
1783174403606884000,6.389884033203125,-0.7136421905964613,1.1787975500158965,0.3370172379473224
1783174403616952000,6.3999521484375,-0.6353747095674276,1.0608769807733596,0.2650579171517864
1783174403627021000,6.41002099609375,-0.3807610660731792,0.9274012611329555,0.1352965418593958
1783174403637089000,6.420089111328125,-0.023966566520929336,0.7488270473547279,0.025955466182669622
1783174403647158000,6.430157958984375,0.2929220391005277,0.5640022487491368,0.031225963064655658
1783174403657227000,6.44022705078125,0.42138592192828656,0.45802463075667615,0.038145332265365865
1783174403667295000,6.450294921875,0.6309896263509989,0.5613453044995665,0.087981650313735
1783174403677364000,6.460364013671875,0.7513111192554235,0.5591980633378029,0.14872733878074212
1783174403687432000,6.470431884765625,0.7428846516937017,0.5299160008825361,0.0951663193871267
1783174403697501000,6.4805009765625,0.6864502322882413,0.46163054629415273,0.03330691579086706
1783174403707569000,6.49056884765625,0.6777104609936475,0.43406683206409213,-0.004598744233418256
1783174403717638000,6.500637939453125,0.7428694541245698,0.3624957799337804,-0.07139889216748997
1783174403727707000,6.510706787109375,0.903656812930107,0.17146496629491448,-0.22333335642646998
1783174403737774800,6.52077490234375,0.9935305606007575,-0.07727554738223552,-0.42040728615447875
1783174403747844000,6.530843994140625,1.0244108520328998,-0.2734979383148253,-0.6278266322754323
1783174403757911800,6.540911865234375,0.9941039765745401,-0.439899922131747,-0.7868759883072227
1783174403767981000,6.55098095703125,0.8607371241360903,-0.5422351650338619,-0.7719689996197819
1783174403778049000,6.561049072265625,0.7248539049625397,-0.5389814970001578,-0.5826691014267504
1783174403788117800,6.57111767578125,0.6026993514120579,-0.4344946290221065,-0.3361990534322336
1783174403798187000,6.58118701171875,0.4605816217631101,-0.3693815939247608,-0.11231188078159465
1783174403808255000,6.5912548828125,0.24848493148088455,-0.27735994750522075,0.07956362178679555
1783174403818324000,6.601323974609375,-0.04944119951725006,-0.2370364857494831,0.16986850915001706
1783174403828392000,6.611391845703125,-0.37531449110507964,-0.24362697005569933,0.16644980501402168
1783174403838461000,6.6214609375,-0.6023030455708503,-0.3010336685594171,0.10970688591497019
1783174403848530200,6.6315302734375,-0.6579799246072768,-0.3495563649922609,-0.04232550402684137
1783174403858598000,6.641597900390625,-0.6978589305311441,-0.4125874061837792,-0.2512551999118179
1783174403868667000,6.6516669921875,-0.8595704184442758,-0.485753399355337,-0.529346165105328
1783174403878735000,6.661735107421875,-1.0621551840156316,-0.5407216917309909,-0.8183213662762194
1783174403888803800,6.671803955078125,-1.107487194648385,-0.5178576796244829,-0.9137118315417319
1783174403898871800,6.681871826171875,-1.036632035702467,-0.39163193111233413,-0.8035525439504534
1783174403908941000,6.691941162109375,-0.906070303812623,-0.28900647309198974,-0.7524857159927487
1783174403919010000,6.702010009765625,-0.7964215960919857,-0.3496820371985435,-0.9182272631395607
1783174403929077800,6.712077880859375,-0.628762597951293,-0.41484293002560735,-1.2474173511251807
1783174403939147000,6.72214697265625,-0.5324491726219653,-0.2882588695950806,-1.3434230256795883
1783174403949215000,6.732215087890625,-0.4439356073886156,-0.0015318126771599054,-1.0987539992250501
1783174403959284000,6.742283935546875,-0.6690326490193605,0.08397928280457853,-0.7602518199495971
1783174403969352000,6.75235205078125,-1.4068196853131054,0.2505227939840406,-0.28260606799777593
1783174403979421000,6.7624208984375,-2.514519645929336,0.5333948559742421,-0.03562311117821373
1783174403989490000,6.772489990234375,-3.1963392958074808,1.0150653699301182,0.13244902520747853
1783174403999558000,6.782557861328125,-3.33647666529417,1.4073469240576029,0.27961733451057225
1783174404009627000,6.792626953125,-3.070184274443984,1.7166583724230526,0.08955026960363612
1783174404019695000,6.802695068359375,-2.3993442837417125,1.8596639908224344,-0.3357763345081359
1783174404029763800,6.812763916015625,-1.5327204396545886,1.8052938104704022,-0.6802692055657505
1783174404039833000,6.8228330078125,-0.8110311362028122,1.7399997927829622,-0.8181506128191948
1783174404049901000,6.832901123046875,-0.3713987789660692,1.8134829621449111,-0.7999549578499049
1783174404059969800,6.8429697265625,-0.07709726820588111,1.9575041873276233,-0.8151990695372223
1783174404070037800,6.853037841796875,0.08898352083265781,2.1277207609966395,-0.8073787511751055
1783174404080107000,6.86310693359375,0.23528993434309958,2.2179722559385002,-0.9133419022507965
1783174404090175000,6.873175048828125,0.423541054135561,2.1254523776732386,-1.1446486121766268
1783174404100244000,6.883243896484375,0.5642512550741434,1.854360331456363,-1.495928878352046
1783174404110313000,6.89331298828125,0.7152344282239675,1.5476133267514407,-1.9213953475922345
1783174404120381000,6.903380859375,0.8764730379283427,1.2587833792701364,-2.2417421308435497
1783174404130450000,6.913449951171875,1.099777350923419,1.03809494786188,-2.3213233248196543
1783174404140518000,6.923517822265625,1.2399205656290053,0.8903564557217061,-2.2757452304713426
1783174404150587000,6.9335869140625,1.2373989381968975,0.8265013847962022,-2.2081350447960197
1783174404160655000,6.943655029296875,1.0370990686923265,0.8218405533783137,-1.9909752259053288
1783174404170723800,6.953723876953125,0.7131944468289614,0.8399518179997801,-1.7261862253554163
1783174404180793000,6.96379296875,0.4438701409369707,0.9446402729645371,-1.496459478097409
1783174404190861000,6.973861083984375,0.3959720792084932,0.9764439628519117,-1.2453538427241146
1783174404200929800,6.9839296875,0.48140346051752564,0.949578898410499,-1.048075512997806
1783174404210998000,6.993998046875,0.5546265176385641,0.8683696648411452,-0.9259220554258674
1783174404221067000,7.00406689453125,0.5513543641000985,0.8002123666770756,-0.823974496667087
1783174404231135700,7.0141357421875,0.5903752918899059,0.7228424190096556,-0.7613401997081934
1783174404241204000,7.024203857421875,0.699547029748559,0.6275292567640542,-0.7112094104915857
1783174404251273000,7.03427294921875,0.8616285200178623,0.5847760105781257,-0.7142138530045747
1783174404261341000,7.0443408203125,1.0203326428085564,0.4932220547355711,-0.7962733467277139
1783174404271410000,7.054409912109375,1.0406757581353188,0.3346772141598165,-0.7401446322705596
1783174404281478000,7.064477783203125,0.8102414471298456,0.31643954667970536,-0.5617483688751236
1783174404291547100,7.074547119140625,0.5563000038087368,0.38704569930061694,-0.4498002616383135
1783174404301615900,7.084615966796875,0.5124591085165738,0.41755043541863557,-0.34746637044306844
1783174404311683800,7.094683837890625,0.5056365690201521,0.334235169480741,-0.448168093859218
1783174404321753000,7.104753173828125,0.5959668282866477,0.24876842459738252,-0.6393366720009594
1783174404331821000,7.114821044921875,0.8989724545061588,-0.048104690216481685,-1.026843559072539
1783174404341890000,7.12489013671875,1.2466513351887465,-0.4872217914074659,-1.401599466446787
1783174404351959000,7.134958984375,1.1696452523976564,-0.7752659953385591,-1.5563225567772982
1783174404362027000,7.145027099609375,0.814246591117978,-0.8073213218994438,-1.4895619736686347
1783174404372096000,7.155095947265625,0.3738426649868488,-0.7843027037531137,-1.262793491694331
1783174404382164000,7.1651640625,-0.039947394984960555,-0.6791893013745546,-1.064930640078336
1783174404392233200,7.175233154296875,-0.2798445308625698,-0.5360077418863773,-0.9936774947907775
1783174404402301200,7.18530126953125,-0.34655835222005843,-0.4671474100194871,-0.9572213759876788
1783174404412370000,7.195369873046875,-0.3587017944782972,-0.38427243519499893,-0.9932048357777297
1783174404422439200,7.205439208984375,-0.44155309616625305,-0.3820725139979273,-1.0411765472643078
1783174404432507100,7.215507080078125,-0.2913689644396305,-0.4569263141259551,-0.9410488974090665
1783174404442576000,7.225575927734375,-0.15295885713696478,-0.45027240919470785,-0.6645715048920363
1783174404452644000,7.23564404296875,-0.13032616956830023,-0.2961042493332177,-0.47344830026198176
1783174404462713000,7.245713134765625,-0.022458500045537948,-0.2755775210678577,-0.47036860055569557
1783174404472781000,7.255781005859375,0.2079530146062374,-0.39258755133673545,-0.6752719818003475
1783174404482850000,7.26585009765625,0.5653267753511667,-0.4450556243944913,-0.9290436215125024
1783174404492919000,7.2759189453125,0.9704875386655331,-0.5781070542082191,-1.0793811902351678
1783174404502987300,7.2859873046875,1.1422796910881996,-0.6640653820008039,-1.1798669328130782
1783174404513056000,7.296055908203125,0.817163355347514,-0.7543716758698225,-1.3356855632953344
1783174404523124000,7.3061240234375,0.38085926575064655,-0.7945794753566384,-1.459089093993604
1783174404533193200,7.316193115234375,0.11955869183838366,-0.7712010839872062,-1.6415695214301347
1783174404543261000,7.326260986328125,0.05982756897509098,-0.8143816156744956,-1.769144638724625
1783174404553330000,7.336329833984375,0.19268471832573414,-0.9930145739026367,-1.9022035942576825
1783174404563399200,7.346399169921875,0.34725802492201324,-1.274588997297734,-2.022596106571704
1783174404573467100,7.356467041015625,0.31850656221210955,-1.5053751904807984,-2.1001474021553994
1783174404583536000,7.3665361328125,-0.09594108488559722,-1.6788590953826903,-2.209334337583184
1783174404593604000,7.37660400390625,-0.7631295673429965,-1.6397890677541493,-2.2764790977038443
1783174404603673000,7.386673095703125,-1.3630834194391965,-1.4460190384097396,-1.7517232560634612
1783174404613742000,7.3967421875,-1.8699375475555657,-0.9410409332983195,-1.431375449898839
1783174404623810000,7.40681005859375,-2.176765362411737,-0.5726881709646433,-1.0056536907233298
1783174404633879000,7.416879150390625,-2.2953812204420565,-0.31207221831567583,-0.48902186309937384
1783174404643947000,7.426947021484375,-2.1195921073377133,-0.0948567237149924,-0.1491191693762317
1783174404654016000,7.43701611328125,-1.8901766179859638,-0.31809951578117907,0.20749168070480226
1783174404664084000,7.447083984375,-1.578100965604186,-0.6792361361909657,0.4149350652884692
1783174404674153200,7.4571533203125,-1.5218717133820057,-1.0195066403131932,0.35180388819072395
1783174404684222000,7.467221923828125,-1.6081775394380091,-1.2284455241516232,0.07755144171416758
1783174404694290200,7.477290283203125,-1.787749678212404,-1.3860035456471145,-0.1305979357143864
1783174404704359200,7.487359130859375,-2.2918805188447235,-1.4900668544508515,-0.17130747417826203
1783174404714427000,7.497427001953125,-2.5081524489849802,-1.1367932225011288,-0.042332098164409394
1783174404724496100,7.50749609375,-2.1822984466195106,-0.5677114054653793,0.4632396619912237
1783174404734564000,7.517564208984375,-1.2794430132001637,0.010176379968971014,1.2051745386794208
1783174404744632800,7.5276328125,-0.04860416417121887,0.5161836089324205,1.9196958501979708
1783174404754702000,7.5377021484375,1.151085513356328,0.8699437822900712,2.5518121424913405
1783174404764770000,7.54777001953125,1.9057623096525669,0.9951580887373537,2.9246792404443025
1783174404774839000,7.557839111328125,2.2589468020141124,0.7237979661688209,2.8216239396393297
1783174404784907000,7.567906982421875,2.298696628600359,0.7705237692475319,2.6999773356109857
1783174404794976000,7.57797607421875,2.1033698713332414,0.6522273524299264,2.8468931131914257
1783174404805045200,7.588045166015625,1.744106935840845,0.5992386895641684,2.7594878014609217
1783174404815113000,7.598113037109375,1.3743290360748768,0.7392633924566209,2.718067119053006
1783174404825182000,7.608181884765625,1.0791817221403122,0.8888800995588302,3.0158181857451796
1783174404835250200,7.618250244140625,0.5345622192531824,1.2732704620450734,3.2139456796467303
1783174404845319000,7.62831884765625,-0.07540332376956939,1.7210257738523185,3.420248004436493
1783174404855387000,7.638386962890625,-0.25922026050686836,1.9368316939160226,3.5719998238712547
1783174404865456000,7.6484560546875,-0.28144553631842134,1.916337333550304,3.5193431694388386
1783174404875525000,7.658525146484375,-0.10150222614407539,1.8531509556666015,3.3290082291096446
1783174404885592800,7.6685927734375,0.2687941445380449,1.79831798010841,3.1731703094050285
1783174404895662000,7.678662109375,0.49877019038200376,1.7061575828053057,2.9760476086318493
1783174404905730000,7.68872998046875,0.5727443581312894,1.5636754037581384,2.742082785412669
1783174404915799000,7.698799072265625,0.3908282865792513,1.4671271467596292,2.609688285137713
1783174404925867000,7.708866943359375,0.09687339729964732,1.7058542159445582,2.607574946245551
1783174404935936000,7.71893603515625,-0.0200075997620821,2.0677463308967647,2.706429580490291
1783174404946005000,7.7290048828125,-0.003939677536487579,2.2364657978758213,2.8349241507172582
1783174404956073000,7.739072998046875,0.012713351100683211,2.331291030474007,2.916466415633261
1783174404966142000,7.749141845703125,-0.027218261793255805,2.218241866660118,2.6835668835580346
1783174404976210200,7.759210205078125,-0.06018120471835136,1.8682199299827218,2.2381593039207157
1783174404986279000,7.76927880859375,-0.1722901650726795,1.4539134449213742,1.7122241893678902
1783174404996348200,7.77934814453125,-0.19233809684515,1.1070344824448228,1.2015601475745439
1783174405006416100,7.789416015625,-0.13774492139220237,0.8058946500971913,0.8608872001312673
1783174405016484900,7.79948486328125,-0.13443886558413504,0.5819840417720377,0.6939134077757596
1783174405026553000,7.809552978515625,-0.07671732897758483,0.6661442341014743,0.8714226226709783
1783174405036622000,7.8196220703125,-0.09541209257543086,0.8704195100430399,1.07603407176435
1783174405046690000,7.82968994140625,-0.178399003341794,1.0124735268060117,1.126231131150201
1783174405056759000,7.839759033203125,-0.22629472698271275,0.9118168846406042,1.0519744201324879
1783174405066828000,7.849828125,-0.1989209823668003,0.6406406672716141,0.9102398445822298
1783174405076896000,7.85989599609375,-0.14304244327843188,0.3337356955260038,0.6560020486630499
1783174405086965000,7.869965087890625,0.031952889099717136,0.02079619285650551,0.4341280607320368
1783174405097033000,7.880032958984375,0.14215923070311545,-0.35209983892999586,0.34587676316406574
1783174405107102200,7.890102294921875,0.13315584003627298,-0.6076060473497956,0.3129597417399287
1783174405117170200,7.900170166015625,-0.051368368187546726,-0.697004944050312,0.2972012142570689
1783174405127239000,7.910239013671875,-0.2756757207453251,-0.7762009381011128,0.34661581802833824
1783174405137308200,7.92030810546875,-0.34212416916489596,-0.7428959037400782,0.5387018763411789
1783174405147376000,7.930376220703125,-0.43908758283555505,-0.6097738198429346,0.8138876946777105
1783174405157444900,7.94044482421875,-0.45797348509132857,-0.24151560392491517,1.1646535815902053
1783174405167513000,7.95051318359375,-0.6485971792340278,0.03489844103232026,1.4776184378966688
1783174405177582000,7.96058203125,-0.9829314251750707,0.18069347095452248,1.5053858580052852
1783174405187651000,7.970651123046875,-1.1497732617139815,0.22295330760031937,1.419236099293828
1783174405197719000,7.980718994140625,-0.9558148701906204,0.05248027495220303,1.1937123566836119
1783174405207788000,7.9907880859375,-0.5645984610766172,-0.2776972166355699,0.8879152731146663
1783174405217856000,8.00085595703125,-0.2858434790164232,-0.6022105449818075,0.5935604247320443
1783174405227925000,8.010925048828126,-0.1803507219314575,-0.7634433094672858,0.42416020894721146
1783174405237993000,8.020992919921875,-0.06539338640868664,-0.6950917308401316,0.485991153633967
1783174405248062200,8.031062255859375,0.07602934671342372,-0.5285941776942461,0.6423568966049701
1783174405258131000,8.041130859375,0.0463110847979784,-0.31802944621965284,0.8150299965806305
1783174405268199000,8.051198974609376,-0.15120821407735346,-0.11802760981358587,1.0259306820113212
1783174405278268200,8.06126806640625,-0.36131402280330654,-0.05520626584999263,1.0365258719142525
1783174405288336100,8.071336181640625,-0.36299627680182456,0.034288200179487464,1.0039439641959964
1783174405298404900,8.08140478515625,-0.18145137664973734,0.07793547259569168,1.015472562491521
1783174405308473000,8.09147314453125,0.06035597676336765,0.17379450522102416,1.0458100522838532
1783174405318542000,8.1015419921875,0.29445991619229317,0.2514859399277717,1.169217455439642
1783174405328611800,8.11161181640625,0.2688864989966154,0.2890865525908768,1.2563476765558124
1783174405338679800,8.1216796875,0.056123453760147095,0.3366054788086563,1.2394701915130018
1783174405348748800,8.131748779296874,-0.049908817028999325,0.3153670951426029,1.295983229112625
1783174405358816800,8.141816650390625,-0.04169219282567501,0.23630466434359548,1.2006201633106917
1783174405368885800,8.1518857421875,-0.10467851809263229,0.15193988935276864,1.042717493095994
1783174405378953700,8.16195361328125,-0.25313246502578257,0.2561632840890437,1.0493011823352425
1783174405389022700,8.172022705078126,-0.3670733169823885,0.6763249979846179,1.3271677641883493
1783174405399091700,8.182091796875,-0.8196914125204086,1.0285213560916482,1.6274560942731797
1783174405409160000,8.192159912109375,-1.3940607415050268,1.307810006637126,1.5503592644587159
1783174405419228700,8.202228759765624,-1.7470044108480214,1.450399883842468,1.4282839136242866
1783174405429296600,8.212296630859376,-1.8644740214526652,1.4467501291632652,1.3744167143583297
1783174405439366000,8.222365966796875,-1.8858447262614964,1.4876266216918825,1.2134300335884094
1783174405449433900,8.232433837890625,-1.7662363500624894,1.5407961940824983,1.1986223405569791
1783174405459502600,8.242502685546874,-1.5605080257683992,1.5985643463097512,1.2753075208306313
1783174405469571800,8.25257177734375,-1.2715145582884548,1.7520013423524796,1.231634675581753
1783174405479639800,8.262639892578125,-0.8417401627212763,1.8084619191125033,1.1379330401860177
1783174405489708800,8.272708740234375,-0.3766927937209606,1.7964324586227536,0.9845089766900986
1783174405499776800,8.28277685546875,0.14863456419706345,1.6909741883292793,0.8598793382629751
1783174405509845800,8.292845703125,0.601503419625759,1.5492410740837455,0.8339870643764734
1783174405519914800,8.302914794921875,0.9174351629137992,1.3698422460496424,0.7223090427853167
1783174405529982700,8.312982666015625,1.2808908739209175,1.164645836675167,0.6151837160624564
1783174405540051700,8.3230517578125,1.5845792217075825,0.9588859481990337,0.45295119994990524
1783174405550120000,8.333119873046876,1.7365391309350728,0.7724846209917217,0.321395050195232
1783174405560188700,8.343188720703125,1.6949650115311146,0.5313212645705789,0.28761794134303925
1783174405570256600,8.353256591796875,1.3982143540531395,0.34503085039183495,0.23991890931800006
1783174405580326000,8.363325927734374,0.87043551132977,0.3954379723317921,0.35403263362348075
1783174405590394600,8.37339453125,0.35825580427646636,0.6549387302804738,0.5950854423422366
1783174405600462600,8.383462646484375,0.052764790982007974,0.824933477892354,0.8057518806256353
1783174405610531800,8.39353173828125,-0.060036243289709086,0.9437981230519712,0.9116274264831096
1783174405620599800,8.403599853515624,-0.23894904137253759,1.0546815601993351,1.0213407238725571
1783174405630668800,8.413668701171876,-0.353599502903223,1.152456582513824,1.1446065266005694
1783174405640736800,8.42373681640625,-0.48118134219944475,1.2822563170552252,1.3697200809746979
1783174405650805800,8.4338056640625,-0.6727396868437528,1.3911626819759606,1.558576180922985
1783174405660874800,8.443874755859374,-0.8892354888677596,1.331479051516205,1.51084120080173
1783174405670942700,8.453942626953125,-1.0196896687299013,1.139585556633398,1.4269991345107556
1783174405681011700,8.46401171875,-0.8792448407292366,0.9761114429619163,1.342415456072241
1783174405691080000,8.474079833984375,-0.6249795722812413,0.8878747219085693,1.3328785430505872
1783174405701148700,8.484148681640624,-0.45435997076928614,0.9680273590970784,1.3251092242233455
1783174405711218000,8.494218017578126,-0.45399289102256296,1.109246386340633,1.2798378577366472
1783174405721286000,8.504285888671875,-0.46684302024543284,1.2391264926418661,1.243712943649292
1783174405731354600,8.514354736328125,-0.4219955782592296,1.3005541902899742,1.1720116892680525
1783174405741422800,8.5244228515625,-0.3656856620162725,1.2447063386008144,0.9515431111555546
1783174405751491800,8.534491943359376,-0.250886147403717,1.111039553367719,0.6260470553822816
1783174405761559800,8.544559814453125,0.0028220716834068296,0.9367982542272657,0.3625052053492516
1783174405771628800,8.55462890625,0.06655950757861137,0.9226102274641395,0.2910791146475822
1783174405781697800,8.56469775390625,0.1012619876474142,1.130403156137839,0.2846403868369758
1783174405791765800,8.574765869140625,0.13077975855469703,1.3620935316190124,0.28236674281656743
1783174405801834800,8.584834716796875,-0.011934183421730995,1.7715039152018726,0.342056583821401
1783174405811902700,8.59490283203125,-0.30974399456381796,2.1323381916642186,0.3602691899254918
1783174405821972000,8.604971923828124,-0.4513461759060621,2.373604716198891,0.3689765933204442
1783174405832040000,8.6150400390625,-0.4828495676726103,2.4952894602805373,0.38838812688551844
1783174405842108700,8.625108642578125,-0.22576222754120825,2.4956162080168722,0.328979075583443
1783174405852178000,8.635177978515625,0.2245668802767992,2.2657282788477837,0.04324680185653269
1783174405862246000,8.645245849609376,0.5876227783113718,1.9577257211238144,-0.2329374529328197
1783174405872314600,8.655314697265625,0.7075655010312796,1.8632310356542467,-0.3595962956326082
1783174405882382800,8.6653828125,0.8450105626940727,2.090311213926226,-0.13602584251463412
1783174405892451800,8.675451904296875,1.0197112960398196,2.458598729003966,0.3927747079392895
1783174405902520800,8.685520751953124,1.2168278593331574,2.911882302713394,0.8551156309925019
1783174405912588800,8.6955888671875,1.3729191692769527,3.160578831118345,1.0710706041380762
1783174405922657800,8.70565771484375,1.551888081461191,2.9285765401437875,1.1124401408806444
1783174405932726000,8.71572607421875,1.5828928760558365,2.3518955732159315,0.95624449377954
1783174405942794800,8.725794677734376,1.1851952882289887,1.998718679638952,0.6303956059806048
1783174405952862700,8.73586279296875,0.5603203453660011,1.7720732395224272,0.40211226246394216
1783174405962932000,8.745931884765625,-0.15770809749066828,1.690138175896555,0.3738608216980472
1783174405973000700,8.756000732421874,-0.7853320468008518,1.839749914562702,0.607295629693754
1783174405983068700,8.766068603515626,-1.1623527573019266,2.0897728692658246,0.9434363040022552
1783174405993138000,8.776137939453125,-1.169502044534683,2.32183901925683,1.105582383940369
1783174406003206000,8.786205810546875,-0.9004407734930515,2.3865838786289095,1.2382041170999407
1783174406013275000,8.79627490234375,-0.7523264337778091,2.243392966790497,1.2920631330594419
1783174406023342800,8.8063427734375,-0.6300479615867137,2.1542856734476983,1.289902301763743
1783174406033411800,8.816411865234375,-0.6954477777361869,2.065794027785212,1.2681409902021288
1783174406043480800,8.826480712890625,-0.8015501911520957,1.9757523762017488,1.2209031459480524
1783174406053548800,8.836548828125,-0.7704968812406062,1.8292583311647175,1.024980614744872
1783174406063617800,8.84661767578125,-0.5423164866417646,1.6056491900041698,0.8728354120783507
1783174406073685800,8.856685791015625,-0.3312725202828645,1.4214932305708528,0.7885516664344817
1783174406083754800,8.866754638671875,-0.0665671063631773,1.2342704309128225,0.6610672961633652
1783174406093822700,8.87682275390625,0.029766777232289314,1.0635974187131971,0.6360489555671811
1783174406103892000,8.88689208984375,-0.15795067407488822,0.9902193902261555,0.6219837514661252
1783174406113960700,8.896960693359375,-0.45463235796988005,0.9286437354747206,0.5371518704202026
1783174406124028700,8.907028564453125,-0.6331394978612661,0.7803190409444272,0.43669352730587124
1783174406134098000,8.917097900390624,-0.5670154590904712,0.5481326255746185,0.39505416064597665
1783174406144165600,8.92716552734375,-0.5026064075440168,0.3512690871942788,0.3714757897250354
1783174406154235000,8.93723486328125,-0.423923331451416,0.2897397558026016,0.4334196932669729
1783174406164304000,8.947303955078125,-0.407498266351223,0.23140542105995118,0.5038204595088959
1783174406174371800,8.957371826171874,-0.4224012364506721,0.11094422742389141,0.5247185783699154
1783174406184440800,8.96744091796875,-0.3126186732172966,-0.04422492617368698,0.5889690418211743
1783174406194508800,8.9775087890625,-0.032358547291159626,-0.13543759429790078,0.7333947196189313
1783174406204577800,8.987577880859375,0.2086024184256792,-0.10325411131270229,0.9764110104303807
1783174406214645800,8.997645751953126,0.16761457447707653,-0.0005971256429329515,1.2524151594124733
1783174406224714800,9.00771484375,0.032526889595389366,0.003754018771275878,1.2220827111214398
1783174406234784000,9.017783935546875,0.044456981363892555,-0.2589902146106586,1.1797335156917572
1783174406244851700,9.027851806640625,0.08085223682522773,-0.5391228051669895,1.0913134739607573
1783174406254920700,9.037920654296874,0.08015139507949352,-0.8149193758130073,0.9446827969320117
1783174406264989000,9.047989013671875,0.26172259871661663,-0.9791361245453357,0.9354095763478427
1783174406275058000,9.058057861328125,0.488280945071578,-1.016497667755559,1.0071330425608902
1783174406285125600,9.068125732421874,0.45310441775023935,-1.004922161578387,1.1035485400252043
1783174406295195000,9.07819482421875,0.17000117735266684,-0.8335879089910536,1.2453050351463257
1783174406305263900,9.088263916015626,-0.2521113052845001,-0.7754283462934195,1.2575206658579408
1783174406315331600,9.09833154296875,-0.5138046779066324,-0.8516302730947732,1.2017465369921176
1783174406325400600,9.108400634765625,-0.528908139014244,-0.9253610605422407,1.2016514791198074
1783174406335468500,9.118468505859376,-0.44582712022364135,-0.9583199848793447,1.0887038029190153
1783174406345537500,9.12853759765625,-0.3111059305667877,-0.8522134067449718,1.1394142917197196
1783174406355605500,9.13860546875,-0.19380992296338082,-0.6693366004019975,1.313462187179923
1783174406365674500,9.148674560546874,0.0662707537651062,-0.6408288833200931,1.2312160117782651
1783174406375743700,9.15874365234375,0.25316344468593593,-0.8479691202387213,0.9420216148987411
1783174406385811500,9.1688115234375,0.3806804020524025,-0.9554897298894822,0.7107512183953076
1783174406395880400,9.17888037109375,0.5437380438774824,-0.8333210016831755,0.8067932063721119
1783174406405948700,9.18894873046875,0.38305472996830936,-0.6639786535654216,0.9970808004282414
1783174406416017400,9.199017333984376,0.0743967770755291,-0.44601592079401015,1.1415640901647508
1783174406426086400,9.20908642578125,-0.2680617386102676,-0.3086507559670135,1.2354220851659774
1783174406436154600,9.219154541015625,-0.3970008377343416,-0.3068663202356547,1.1745604239027947
1783174406446223600,9.2292236328125,-0.07693886277377605,-0.4233250002320856,1.093824653064087
1783174406456291300,9.239291259765626,0.4240151013880968,-0.563348278352432,0.981477646170184
1783174406466360600,9.249360595703125,0.9146031543582678,-0.6582181903425603,0.8603547006897628
1783174406476428500,9.259428466796875,1.3107529282212256,-0.7909316203735768,0.7358435740757733
1783174406486496500,9.26949658203125,1.3138234217077494,-1.0807066666852683,0.860538825085014
1783174406496564700,9.279564697265625,1.0694681373775006,-1.0686759640865027,0.9871414440855383
1783174406506633500,9.289633544921875,0.5128162513911724,-0.8126947585660964,0.9902253815755248
1783174406516702700,9.29970263671875,0.21249065803587436,-0.6267198400773107,1.1723953548233956
1783174406526770700,9.309770751953126,-0.28121815730333327,-0.6421251336757093,1.1376457476772368
1783174406536839400,9.31983935546875,-1.0523398924440144,-0.5285366022881121,1.091386539196968
1783174406546907600,9.32990771484375,-1.6934370713114737,-0.4232471126902848,1.0272384766742586
