time,seconds_elapsed,z,y,x
1783174397303954200,0.0869541015625,0.13245010375976562,-0.07036668807268143,-0.12903079390525818
1783174397314022000,0.09702197265625,0.14241911470890045,-0.07003645598888397,-0.09948007762432098
1783174397324091000,0.1070908203125,0.17408351600170135,-0.05345567315816879,-0.012310219928622246
1783174397334160000,0.117159912109375,0.2009952962398529,-0.0194508358836174,0.09598643332719803
1783174397344228000,0.12722802734375,0.21825559437274933,0.05526674911379814,0.203035369515419
1783174397354296800,0.137296875,0.24134626984596252,0.16234472393989563,0.2919071912765503
1783174397364364800,0.14736474609375,0.26241207122802734,0.28152844309806824,0.34825727343559265
1783174397374434000,0.15743408203125,0.2905898988246918,0.39594927430152893,0.385547399520874
1783174397384502800,0.167502685546875,0.3329928517341614,0.4979380965232849,0.4302223026752472
1783174397394570800,0.17757080078125,0.39205804467201233,0.6027801036834717,0.4990634322166443
1783174397404640000,0.187639892578125,0.4652387201786041,0.7357836365699768,0.5924968123435974
1783174397414708000,0.1977080078125,0.5468782186508179,0.8373643159866333,0.6665236353874207
1783174397424777000,0.20777685546875,0.6219218373298645,0.8552442789077759,0.694896399974823
1783174397434845000,0.217844970703125,0.6551415920257568,0.8119180798530579,0.6554637551307678
1783174397444914000,0.227913818359375,0.633759617805481,0.6808010935783386,0.5404237508773804
1783174397454983000,0.23798291015625,0.5599240064620972,0.5202654600143433,0.37884286046028137
1783174397465051000,0.24805078125,0.4522676169872284,0.3443560302257538,0.2237919420003891
1783174397475119900,0.258119873046875,0.36976078152656555,0.17250438034534454,0.11817469447851181
1783174397485188000,0.26818798828125,0.32480448484420776,0.050282858312129974,0.022777874022722244
1783174397495256800,0.2782568359375,0.34883683919906616,-0.00758283631876111,-0.05891326069831848
1783174397505326000,0.288326171875,0.44432690739631653,-0.020636942237615585,-0.11258407682180405
1783174397515394000,0.29839404296875,0.5730856657028198,-0.03988067805767059,-0.1208590567111969
1783174397525462800,0.308462890625,0.6533504128456116,0.036325499415397644,-0.05690044164657593
1783174397535530800,0.31853076171875,0.7838908433914185,0.20951193571090698,0.040053799748420715
1783174397545600000,0.32860009765625,1.23206627368927,0.5267332792282104,0.18291695415973663
1783174397555668000,0.33866796875,1.476034164428711,0.8266536593437195,0.3006907105445862
1783174397565737000,0.348737060546875,1.2167503833770752,0.8988727331161499,0.3393859267234802
1783174397575806000,0.358805908203125,0.8195553421974182,0.7437209486961365,0.2692904472351074
1783174397585874000,0.3688740234375,0.37690603733062744,0.6401189565658569,0.0029679497238248587
1783174397595943000,0.37894287109375,-0.053610995411872864,0.5545837879180908,-0.32056936621665955
1783174397606011000,0.389010986328125,-0.29065895080566406,0.45412689447402954,-0.5971078276634216
1783174397616080000,0.399079833984375,-0.3384823799133301,0.3991251587867737,-0.7464248538017273
1783174397626148900,0.40914892578125,-0.2793053686618805,0.4498648941516876,-0.7729096412658691
1783174397636216800,0.419216796875,-0.12087658792734146,0.5397564172744751,-0.7065204977989197
1783174397646286000,0.4292861328125,0.11109276115894318,0.590010941028595,-0.5646206736564636
1783174397656354000,0.43935400390625,0.3499077260494232,0.6125543713569641,-0.3810971975326538
1783174397666422800,0.4494228515625,0.5667555332183838,0.6612262725830078,-0.18367736041545868
1783174397676491000,0.459490966796875,0.7677054405212402,0.5939119458198547,-0.07997547090053558
1783174397686560000,0.46956005859375,0.9142846465110779,0.5610954165458679,-0.07293747365474701
1783174397696628700,0.479628662109375,0.98891282081604,0.5014113783836365,-0.14149042963981628
1783174397706697000,0.489697021484375,0.9972488284111023,0.35751044750213623,-0.23836389183998108
1783174397716766000,0.499765869140625,0.9387290477752686,0.1458972841501236,-0.324067085981369
1783174397726834000,0.509833984375,0.8215406537055969,-0.10745514929294586,-0.3992927074432373
1783174397736903000,0.51990283203125,0.6662232279777527,-0.3629891872406006,-0.4447363615036011
1783174397746972000,0.529971923828125,0.4958975613117218,-0.5588836073875427,-0.45534124970436096
1783174397757040000,0.5400400390625,0.31999844312667847,-0.665774405002594,-0.4587293267250061
1783174397767108900,0.55010888671875,0.12975388765335083,-0.7012832164764404,-0.48274606466293335
1783174397777176800,0.5601767578125,-0.05744583532214165,-0.6742004752159119,-0.5204087495803833
1783174397787246000,0.57024609375,-0.19369515776634216,-0.6035528779029846,-0.569444477558136
1783174397797314000,0.58031396484375,-0.27790164947509766,-0.5111398696899414,-0.6049257516860962
1783174397807382800,0.5903828125,-0.33546289801597595,-0.37720757722854614,-0.5791733860969543
1783174397817452000,0.6004521484375,-0.3759765028953552,-0.20885159075260162,-0.48970553278923035
1783174397827520000,0.61052001953125,-0.3999525010585785,-0.1324051469564438,-0.3608064353466034
1783174397837589000,0.620589111328125,-0.41297295689582825,-0.12896114587783813,-0.2502037584781647
1783174397847657000,0.630656982421875,-0.3995067775249481,-0.1578522026538849,-0.16765600442886353
1783174397857726000,0.640725830078125,-0.366827130317688,-0.195087730884552,-0.10199204087257385
1783174397867795000,0.650794921875,-0.3151133954524994,-0.22244980931282043,-0.029820697382092476
1783174397877863000,0.66086279296875,-0.26352182030677795,-0.22891835868358612,0.020652329549193382
1783174397887932000,0.670931884765625,-0.23038315773010254,-0.22944045066833496,0.03869965299963951
1783174397898000100,0.681000244140625,-0.2112150639295578,-0.25471118092536926,0.0770007073879242
1783174397908068900,0.69106884765625,-0.18771274387836456,-0.3051684498786926,0.1261882334947586
1783174397918136800,0.70113671875,-0.15105804800987244,-0.35458365082740784,0.19407114386558533
1783174397928206000,0.7112060546875,-0.11601591855287552,-0.3972168564796448,0.26066190004348755
1783174397938274800,0.72127490234375,-0.08325850963592529,-0.40912970900535583,0.30783072113990784
1783174397948342800,0.7313427734375,-0.06560083478689194,-0.40132418274879456,0.3279034495353699
1783174397958412000,0.741412109375,-0.07304064184427261,-0.3747556805610657,0.326693594455719
1783174397968479700,0.751479736328125,-0.09978890419006348,-0.33747488260269165,0.33703625202178955
1783174397978549000,0.761549072265625,-0.14625796675682068,-0.2964836061000824,0.3450489342212677
1783174397988618000,0.771617919921875,-0.20917482674121857,-0.2469908446073532,0.3414928615093231
1783174397998686000,0.78168603515625,-0.25668269395828247,-0.16671624779701233,0.32428884506225586
1783174398008755000,0.7917548828125,-0.2820754945278168,-0.06588214635848999,0.3150849938392639
1783174398018823000,0.801822998046875,-0.30029526352882385,0.024418724700808525,0.2916470468044281
1783174398028892000,0.811891845703125,-0.3198951184749603,0.08327346295118332,0.23726829886436462
1783174398038961000,0.8219609375,-0.3453139364719391,0.09838344156742096,0.17861616611480713
1783174398049028900,0.83202880859375,-0.36382877826690674,0.09033963829278946,0.12435523420572281
1783174398059098000,0.84209814453125,-0.36291584372520447,0.06955819576978683,0.13136813044548035
1783174398069165800,0.852165771484375,-0.34973257780075073,0.03245639428496361,0.19900377094745636
1783174398079234800,0.86223486328125,-0.3171807527542114,0.005644489079713821,0.2671748101711273
1783174398089303000,0.872302978515625,-0.28953200578689575,-0.00951915793120861,0.30178767442703247
1783174398099372000,0.8823720703125,-0.26588526368141174,-0.019158469513058662,0.2810259461402893
1783174398109440800,0.892440673828125,-0.2484867125749588,-0.061640068888664246,0.22060765326023102
1783174398119509000,0.902509033203125,-0.24704833328723907,-0.13295046985149384,0.14913082122802734
1783174398129578000,0.912577880859375,-0.2688921093940735,-0.22363720834255219,0.09180803596973419
1783174398139645700,0.922645751953125,-0.30235233902931213,-0.3258490562438965,0.054949887096881866
1783174398149715000,0.93271484375,-0.3119615614414215,-0.41948261857032776,0.06001042574644089
1783174398159784000,0.942783935546875,-0.2855645716190338,-0.4288705289363861,0.0850800946354866
1783174398169852000,0.952851806640625,-0.24135516583919525,-0.35651591420173645,0.11398276686668396
1783174398179921000,0.9629208984375,-0.18505354225635529,-0.22811666131019592,0.1510438472032547
1783174398189988900,0.97298876953125,-0.1149940937757492,-0.0017040623351931572,0.18621991574764252
1783174398200057900,0.983057861328125,-0.0488227941095829,0.23285038769245148,0.2202894687652588
1783174398210125800,0.993125732421875,-0.027706211432814598,0.36542025208473206,0.25788554549217224
1783174398220194800,1.00319482421875,-0.042138949036598206,0.386305034160614,0.2662239074707031
1783174398230264000,1.01326416015625,-0.07285428047180176,0.3080825209617615,0.24924202263355255
1783174398240331800,1.023331787109375,-0.10727723687887192,0.18508918583393097,0.20974627137184143
1783174398250401000,1.033401123046875,-0.12754695117473602,0.07039111107587814,0.1617697775363922
1783174398260469000,1.043468994140625,-0.13667839765548706,0.013571773655712605,0.11928063631057739
1783174398270537700,1.053537841796875,-0.14874105155467987,-0.0007547079585492611,0.11349350959062576
1783174398280607000,1.06360693359375,-0.16142195463180542,0.014726247638463974,0.14872366189956665
1783174398290675000,1.073675048828125,-0.16740481555461884,0.08059956878423691,0.21272709965705872
1783174398300744000,1.083743896484375,-0.15623418986797333,0.17832238972187042,0.27288979291915894
1783174398310812000,1.09381201171875,-0.13359349966049194,0.29207172989845276,0.2955820560455322
1783174398320881000,1.103880859375,-0.10846470296382904,0.40454500913619995,0.27252522110939026
1783174398330949000,1.11394921875,-0.08732303977012634,0.4829701781272888,0.22022725641727448
1783174398341017900,1.124017822265625,-0.06599617749452591,0.5224323868751526,0.15999481081962585
1783174398351086800,1.1340869140625,-0.05071435123682022,0.48812445998191833,0.13294602930545807
1783174398361155000,1.144155029296875,-0.0507764033973217,0.3884146213531494,0.14996656775474548
1783174398371223800,1.154223876953125,-0.05427585542201996,0.3070177137851715,0.20302042365074158
1783174398381291800,1.164291748046875,-0.04240907356142998,0.26066434383392334,0.2515006363391876
1783174398391361000,1.174361083984375,-0.06180660426616669,0.10910382866859436,0.21904273331165314
1783174398401430000,1.184429931640625,-0.07654240727424622,-0.04281512647867203,0.17985005676746368
1783174398411498000,1.194498046875,-0.08974463492631912,-0.010778889060020447,0.12661327421665192
1783174398421567000,1.20456689453125,-0.07472946494817734,0.04351923614740372,0.05480140075087547
1783174398431635000,1.214635009765625,-0.07081092894077301,0.0817674919962883,0.011170212179422379
1783174398441704000,1.224703857421875,-0.07489808648824692,0.10879191756248474,-0.010535350069403648
1783174398451772000,1.23477197265625,-0.08217385411262512,0.128700390458107,-0.015350181609392166
1783174398461841000,1.2448408203125,-0.12092231214046478,0.11444927752017975,-0.01820295862853527
1783174398471910000,1.254909912109375,-0.17017576098442078,0.0886089950799942,-0.025084080174565315
1783174398481977900,1.264977783203125,-0.18304894864559174,0.07421061396598816,-0.03580809757113457
1783174398492047000,1.275047119140625,-0.15649016201496124,0.04789048060774803,-0.049627624452114105
1783174398502115000,1.285114990234375,-0.09832405298948288,0.009175840765237808,-0.04912561923265457
1783174398512183800,1.295183837890625,-0.020088961347937584,-0.0006619179621338844,-0.0244570542126894
1783174398522253000,1.305253173828125,0.052831053733825684,0.01937464065849781,0.03211940824985504
1783174398532321000,1.315321044921875,0.09207038581371307,0.03580187261104584,0.10954301804304123
1783174398542389800,1.3253896484375,0.10653108358383179,0.052636511623859406,0.16906864941120148
1783174398552458000,1.3354580078125,0.11347751319408417,0.057752277702093124,0.17670363187789917
1783174398562527000,1.34552685546875,0.12627027928829193,0.0650906190276146,0.15154927968978882
1783174398572595000,1.355594970703125,0.13698524236679077,0.0897054374217987,0.1171235591173172
1783174398582664000,1.365663818359375,0.1590987890958786,0.11284750699996948,0.0906650498509407
1783174398592733000,1.37573291015625,0.1837361752986908,0.13022670149803162,0.07507018744945526
1783174398602801000,1.38580078125,0.20048213005065918,0.12257490307092667,0.07307974249124527
1783174398612870000,1.395869873046875,0.22344478964805603,0.10908327996730804,0.07929971069097519
1783174398622937900,1.405937744140625,0.26054370403289795,0.08805922418832779,0.10731696337461472
1783174398633007000,1.416007080078125,0.28983157873153687,0.05795155465602875,0.1512729376554489
1783174398643075000,1.426074951171875,0.3085072636604309,0.029149731621146202,0.18050990998744965
1783174398653143800,1.436143798828125,0.3227418065071106,0.02535785362124443,0.17744292318820953
1783174398663213000,1.446213134765625,0.34166622161865234,0.03276490047574043,0.1352992057800293
1783174398673281000,1.456281005859375,0.36196115612983704,0.04431072250008583,0.06960343569517136
1783174398683349800,1.466349853515625,0.38714802265167236,0.04239750653505325,0.010687388479709625
1783174398693418000,1.47641796875,0.41859179735183716,0.021958760917186737,-0.013704879209399223
1783174398703487000,1.486487060546875,0.45069193840026855,-0.00547659071162343,0.002419761149212718
1783174398713556000,1.496555908203125,0.4694571793079376,-0.0007500755600631237,0.046487875282764435
1783174398723624000,1.5066240234375,0.4733373820781708,0.025955837219953537,0.09359067678451538
1783174398733693000,1.51669287109375,0.47609809041023254,0.05872012674808502,0.11279914528131485
1783174398743761200,1.52676123046875,0.49416685104370117,0.11706358939409256,0.09089784324169159
1783174398753830000,1.536829833984375,0.5328827500343323,0.18004579842090607,0.03359418362379074
1783174398763897900,1.54689794921875,0.5740759968757629,0.22214637696743011,-0.04793130233883858
1783174398773967000,1.556967041015625,0.6045854687690735,0.20793145895004272,-0.11955925822257996
1783174398784035800,1.567035888671875,0.6321313977241516,0.13163374364376068,-0.17607846856117249
1783174398794103800,1.577103759765625,0.63166344165802,0.01829146221280098,-0.21395409107208252
1783174398804173000,1.587173095703125,0.6281076073646545,-0.06768815964460373,-0.2374999076128006
1783174398814241000,1.597240966796875,0.6233447790145874,-0.10417255014181137,-0.256261944770813
1783174398824310000,1.60731005859375,0.6164743304252625,-0.0733824074268341,-0.25153934955596924
1783174398834379000,1.61737890625,0.6289220452308655,0.001150734256953001,-0.20477885007858276
1783174398844447000,1.627447021484375,0.6616501212120056,0.11505812406539917,-0.13109610974788666
1783174398854516000,1.637515869140625,0.7028844356536865,0.22336983680725098,-0.03263988345861435
1783174398864584000,1.647583984375,0.7681566476821899,0.28667691349983215,0.04368338733911514
1783174398874653000,1.65765283203125,0.8662106394767761,0.300083726644516,0.06521663069725037
1783174398884721200,1.66772119140625,0.9913970232009888,0.274897962808609,0.0349000059068203
1783174398894790000,1.677789794921875,1.1039470434188843,0.20294855535030365,0.007265943102538586
1783174398904859100,1.687859130859375,1.1817784309387207,0.1029902771115303,-0.0021435373928397894
1783174398914927000,1.697927001953125,1.2210254669189453,0.0421319305896759,-0.0001380210742354393
1783174398924995800,1.707995849609375,1.231217384338379,0.04487552493810654,0.010788928717374802
1783174398935064000,1.71806396484375,1.2062875032424927,0.06877254694700241,0.036514606326818466
1783174398945133000,1.728133056640625,1.162779450416565,0.1085154339671135,0.0624077208340168
1783174398955201800,1.738201904296875,1.117174744606018,0.1361577808856964,0.090772345662117
1783174398965270000,1.74827001953125,1.0753991603851318,0.12277805805206299,0.1107119619846344
1783174398975339000,1.758339111328125,1.027113676071167,0.08703996986150742,0.10451291501522064
1783174398985407000,1.768406982421875,0.9713963270187378,0.03501991182565689,0.1028473749756813
1783174398995476000,1.77847607421875,0.9046115875244141,-0.057410914450883865,0.08661828190088272
1783174399005544000,1.7885439453125,0.8275570273399353,-0.14944683015346527,0.038617201149463654
1783174399015613200,1.79861328125,0.7447542548179626,-0.21863047778606415,-0.03055630438029766
1783174399025682000,1.808681884765625,0.6561469435691833,-0.27018341422080994,-0.09792736172676086
1783174399035750000,1.81875,0.5666968822479248,-0.28865790367126465,-0.1475604921579361
1783174399045819100,1.828819091796875,0.47907087206840515,-0.2583245038986206,-0.17034968733787537
1783174399055887000,1.83888720703125,0.4072270095348358,-0.19079409539699554,-0.1703926920890808
1783174399065955800,1.848955810546875,0.3696482181549072,-0.09239377081394196,-0.13374733924865723
1783174399076024000,1.859024169921875,0.36291059851646423,0.010444543324410915,-0.07553417980670929
1783174399086093000,1.869093017578125,0.374357670545578,0.10095446556806564,-0.007319179363548756
1783174399096161800,1.879161865234375,0.39588114619255066,0.18327361345291138,0.06465820223093033
1783174399106230000,1.88922998046875,0.4227694869041443,0.23794004321098328,0.11418075114488602
1783174399116299000,1.899299072265625,0.4284994304180145,0.2656397223472595,0.13810060918331146
1783174399126367000,1.909366943359375,0.4113265573978424,0.30864179134368896,0.1415986716747284
1783174399136436000,1.91943603515625,0.3831535577774048,0.3555101454257965,0.12489449232816696
1783174399146505000,1.9295048828125,0.3650871813297272,0.3775310218334198,0.11535318195819855
1783174399156573200,1.9395732421875,0.35018160939216614,0.353492796421051,0.11857036501169205
1783174399166642000,1.949641845703125,0.33717551827430725,0.2781839370727539,0.11915865540504456
1783174399176710000,1.9597099609375,0.3130358159542084,0.18426936864852905,0.11357248574495316
1783174399186779100,1.969779052734375,0.287179172039032,0.11712387949228287,0.10232914984226227
1783174399196846800,1.979846923828125,0.2568994164466858,0.07780832797288895,0.0761503204703331
1783174399206915800,1.989915771484375,0.23853056132793427,0.05901120975613594,0.04493274539709091
1783174399216985000,1.999985107421875,0.22047081589698792,0.059377603232860565,0.018613865599036217
1783174399227052800,2.010052734375,0.19532445073127747,0.0609307587146759,-0.004127399530261755
1783174399237122000,2.0201220703125,0.1631689965724945,0.04751867428421974,-0.02577808126807213
1783174399247190000,2.03018994140625,0.13127684593200684,0.026786234229803085,-0.04407826066017151
1783174399257259000,2.040259033203125,0.09297528117895126,0.0017655384726822376,-0.05091731995344162
1783174399267327000,2.050326904296875,0.06108206510543823,-0.010009095072746277,-0.03758127614855766
1783174399277396000,2.06039599609375,0.04071342945098877,-0.0012966548092663288,-0.004761416465044022
1783174399287465000,2.07046484375,0.034615322947502136,0.016806982457637787,0.02010584995150566
1783174399297533000,2.080532958984375,0.03190872445702553,0.0294248778373003,0.02326918952167034
1783174399307602000,2.090601806640625,0.014187785796821117,0.036981865763664246,0.007934708148241043
1783174399317670100,2.100670166015625,-0.009040466509759426,0.041812147945165634,-0.012382160872220993
1783174399327739000,2.11073876953125,-0.029100462794303894,0.05143281817436218,-0.039296068251132965
1783174399337808100,2.12080810546875,-0.044671107083559036,0.07461035251617432,-0.04473687708377838
1783174399347876000,2.1308759765625,-0.06390978395938873,0.10754779726266861,-0.02980479784309864
1783174399357945000,2.140945068359375,-0.08161041885614395,0.12785977125167847,-0.012983976863324642
1783174399368013000,2.151012939453125,-0.10283981263637543,0.14439746737480164,-0.009632389061152935
1783174399378082000,2.16108203125,-0.13414135575294495,0.13478030264377594,-0.027252817526459694
1783174399388150000,2.17114990234375,-0.17751173675060272,0.09802228957414627,-0.04445497319102287
1783174399398219000,2.181218994140625,-0.21354849636554718,0.046805690973997116,-0.06681519001722336
1783174399408288000,2.1912880859375,-0.24832990765571594,0.0013109096325933933,-0.06830976158380508
1783174399418356200,2.201356201171875,-0.2697020471096039,-0.02380501851439476,-0.05680146440863609
1783174399428425000,2.211425048828125,-0.2896406054496765,-0.03306908905506134,-0.03561814874410629
1783174399438493000,2.221492919921875,-0.3203127682209015,-0.03201005607843399,-0.008347147144377232
1783174399448562200,2.231562255859375,-0.36416569352149963,-0.0427899993956089,0.03551245108246803
1783174399458630100,2.241630126953125,-0.41346755623817444,-0.05627166107296944,0.08904758840799332
1783174399468699000,2.251698974609375,-0.45171746611595154,-0.04845208302140236,0.11582354456186295
1783174399478768000,2.26176806640625,-0.4760023057460785,-0.04841533303260803,0.09779127687215805
1783174399488836000,2.271836181640625,-0.5041350722312927,-0.0577973835170269,0.0608321949839592
1783174399498905000,2.281905029296875,-0.5341753959655762,-0.08648638427257538,0.005333827808499336
1783174399508973000,2.29197314453125,-0.550464391708374,-0.1800413727760315,-0.05042743682861328
1783174399519042000,2.3020419921875,-0.5596585869789124,-0.3192636966705322,-0.08429493755102158
1783174399529111000,2.312111083984375,-0.5531548857688904,-0.4726167619228363,-0.09638196229934692
1783174399539179000,2.322178955078125,-0.5398982167243958,-0.5706838965415955,-0.06795910000801086
1783174399549248000,2.332248046875,-0.5635268688201904,-0.5419252514839172,-0.0010213458444923162
1783174399559316200,2.342316162109375,-0.6237741708755493,-0.40342098474502563,0.07703996449708939
1783174399569385000,2.352385009765625,-0.6809785962104797,-0.18752704560756683,0.13096444308757782
1783174399579453000,2.362452880859375,-0.7342551946640015,0.10009857267141342,0.15516509115695953
1783174399589522200,2.372522216796875,-0.738697350025177,0.35808244347572327,0.1484834849834442
1783174399599591000,2.3825908203125,-0.6765596270561218,0.5574504733085632,0.14733515679836273
1783174399609659100,2.3926591796875,-0.5830637812614441,0.6437339782714844,0.1633032113313675
1783174399619728100,2.40272802734375,-0.478770911693573,0.6443789005279541,0.20958971977233887
1783174399629796000,2.412796142578125,-0.38142919540405273,0.590885579586029,0.2802175283432007
1783174399639865000,2.422864990234375,-0.3101584017276764,0.5221118927001953,0.3812140226364136
1783174399649934000,2.43293408203125,-0.26081082224845886,0.44389668107032776,0.48160266876220703
1783174399660002000,2.443001953125,-0.23174834251403809,0.3700695335865021,0.5541574954986572
1783174399670071000,2.453071044921875,-0.22503744065761566,0.29875433444976807,0.5939712524414062
1783174399680139000,2.463138916015625,-0.25870412588119507,0.21582478284835815,0.575516402721405
1783174399690208300,2.473208251953125,-0.32285061478614807,0.12938550114631653,0.48513880372047424
1783174399700276200,2.483276123046875,-0.3909427523612976,0.0578252449631691,0.33004364371299744
1783174399710345000,2.493344970703125,-0.4613972306251526,-0.03459283336997032,0.1576511114835739
1783174399720414200,2.503414306640625,-0.5429389476776123,-0.15304294228553772,0.020307406783103943
1783174399730482200,2.513482177734375,-0.6322336792945862,-0.27756303548812866,-0.07554535567760468
1783174399740551000,2.523551025390625,-0.7060902118682861,-0.3871004283428192,-0.12946203351020813
1783174399750619100,2.533619140625,-0.7737600803375244,-0.4471592605113983,-0.11923789232969284
1783174399760688000,2.543688232421875,-0.8267696499824524,-0.45666947960853577,-0.07139112055301666
1783174399770756000,2.553756103515625,-0.8540428280830383,-0.4156847894191742,-0.006628906819969416
1783174399780825000,2.5638251953125,-0.8600389361381531,-0.3439195454120636,0.04763217270374298
1783174399790894000,2.57389404296875,-0.8340225219726562,-0.2513241171836853,0.07335537672042847
1783174399800962000,2.583962158203125,-0.7772116661071777,-0.14261309802532196,0.07205293327569962
1783174399811031000,2.594031005859375,-0.7044322490692139,-0.002238145563751459,0.05462067574262619
1783174399821099000,2.60409912109375,-0.6400478482246399,0.13153882324695587,0.051734793931245804
1783174399831168300,2.614168212890625,-0.5907809734344482,0.22350123524665833,0.06564022600650787
1783174399841236200,2.624236328125,-0.5623760223388672,0.2585372030735016,0.07346056401729584
1783174399851305000,2.634304931640625,-0.5447304844856262,0.22427590191364288,0.08849011361598969
1783174399861374200,2.644374267578125,-0.5295799970626831,0.15778511762619019,0.11681484431028366
1783174399871442200,2.654442138671875,-0.506486713886261,0.09374541789293289,0.1598414033651352
1783174399881511000,2.664510986328125,-0.4778265655040741,0.044721800833940506,0.1859794706106186
1783174399891579100,2.6745791015625,-0.45544376969337463,0.0012781880795955658,0.18071866035461426
1783174399901648100,2.684648193359375,-0.43323278427124023,-0.03931286558508873,0.14856642484664917
1783174399911717000,2.694717041015625,-0.4090619385242462,-0.07134376466274261,0.09859992563724518
1783174399921785000,2.70478515625,-0.38869065046310425,-0.10123711079359055,0.046676576137542725
1783174399931854000,2.71485400390625,-0.3852517008781433,-0.14359122514724731,0.013322882354259491
1783174399941922300,2.72492236328125,-0.3844015896320343,-0.15494199097156525,-0.021536335349082947
1783174399951991000,2.734990966796875,-0.3750046491622925,-0.13940218091011047,-0.07734820246696472
1783174399962059000,2.74505908203125,-0.3770139813423157,-0.12715840339660645,-0.11030618846416473
1783174399972128300,2.755128173828125,-0.3653522729873657,-0.13591966032981873,-0.1073833703994751
1783174399982197000,2.765197021484375,-0.34300610423088074,-0.15963101387023926,-0.10150459408760071
1783174399992265000,2.775264892578125,-0.31045666337013245,-0.20473884046077728,-0.11064855754375458
1783174400002334200,2.785334228515625,-0.2798179090023041,-0.27890560030937195,-0.1141204684972763
1783174400012402200,2.795402099609375,-0.23718897998332977,-0.36006543040275574,-0.11743023991584778
1783174400022471200,2.80547119140625,-0.18942241370677948,-0.4232921898365021,-0.13010065257549286
1783174400032540200,2.8155400390625,-0.1288328319787979,-0.4723260700702667,-0.13298697769641876
1783174400042608000,2.825608154296875,-0.052850447595119476,-0.49629586935043335,-0.11130236089229584
1783174400052677000,2.835677001953125,0.039703983813524246,-0.457584410905838,-0.06837806105613708
1783174400062745000,2.8457451171875,0.1264909952878952,-0.37226757407188416,-0.014445045962929726
1783174400072814000,2.85581396484375,0.2069176584482193,-0.2629866302013397,0.01303185150027275
1783174400082882000,2.865882080078125,0.2690664231777191,-0.15190629661083221,0.010122494772076607
1783174400092951000,2.875950927734375,0.30538633465766907,-0.048948489129543304,-0.0066783232614398
1783174400103020300,2.886020263671875,0.33173805475234985,0.01972910761833191,-0.00249449722468853
1783174400113088300,2.896088134765625,0.3741939067840576,0.060194775462150574,0.04022287577390671
1783174400123157000,2.906156982421875,0.42715176939964294,0.08369646966457367,0.10056047141551971
1783174400133225200,2.91622509765625,0.4817518889904022,0.08525974303483963,0.13705722987651825
1783174400143294200,2.926294189453125,0.5244322419166565,0.060710031539201736,0.14259077608585358
1783174400153362000,2.93636181640625,0.5446134209632874,0.025938469916582108,0.12487410008907318
1783174400163431200,2.94643115234375,0.543260395526886,-0.011505777016282082,0.1184241995215416
1783174400173500200,2.956500244140625,0.5424204468727112,-0.04737083613872528,0.15205912292003632
1783174400183568100,2.966568115234375,0.5764307975769043,-0.07466616481542587,0.19648844003677368
1783174400193637000,2.97663720703125,0.5768686532974243,-0.08602694422006607,0.24079519510269165
1783174400203705000,2.986705078125,0.5647101402282715,-0.1217721626162529,0.26135045289993286
1783174400213774000,2.996774169921875,0.5751712918281555,-0.15044188499450684,0.2918710708618164
1783174400223842000,3.006842041015625,0.5802828073501587,-0.10782013088464737,0.29908549785614014
1783174400233911000,3.0169111328125,0.6124090552330017,0.013856500387191772,0.25819718837738037
1783174400243980300,3.026980224609375,0.7248063087463379,0.12877397239208221,0.1413573920726776
1783174400254048000,3.037048095703125,0.8564466238021851,0.135905921459198,-0.02088957652449608
1783174400264117000,3.047116943359375,0.9859607815742493,-0.03503759205341339,-0.11292461305856705
1783174400274185200,3.057185302734375,1.0997719764709473,-0.31400027871131897,-0.06193466857075691
1783174400284254000,3.06725390625,1.1929702758789062,-0.5161585211753845,0.08623966574668884
1783174400294323000,3.077322998046875,1.2803415060043335,-0.5710931420326233,0.21604213118553162
1783174400304391200,3.08739111328125,1.3387261629104614,-0.5047215819358826,0.23943224549293518
1783174400314460200,3.097460205078125,1.3375908136367798,-0.387381911277771,0.18413889408111572
1783174400324527600,3.107527587890625,1.2890634536743164,-0.22735103964805603,0.06815578043460846
1783174400334596600,3.1175966796875,1.2213842868804932,-0.09614375978708267,-0.030731385573744774
1783174400344664600,3.12766455078125,1.1884844303131104,-0.03021501563489437,-0.107645682990551
1783174400354733600,3.137733642578125,1.216750979423523,-0.016449136659502983,-0.13952691853046417
1783174400364802600,3.147802490234375,1.309347152709961,-0.05122661218047142,-0.11663910001516342
1783174400374870500,3.15787060546875,1.4372225999832153,-0.0986897423863411,-0.055528346449136734
1783174400384939500,3.167939453125,1.5623887777328491,-0.1039532870054245,0.040078699588775635
1783174400395007500,3.178007568359375,1.6809008121490479,0.011090744286775589,0.15936808288097382
1783174400405076500,3.188076416015625,1.8019694089889526,0.24440011382102966,0.27520039677619934
1783174400415144400,3.19814453125,1.9118818044662476,0.5393337607383728,0.33769145607948303
1783174400425213700,3.208213623046875,1.971939206123352,0.7728825211524963,0.32041698694229126
1783174400435282400,3.218282470703125,1.9647544622421265,0.9059750437736511,0.24571479856967926
1783174400445350700,3.2283505859375,1.9188764095306396,0.9844385981559753,0.1372256875038147
1783174400455419600,3.238419677734375,1.8745715618133545,1.0117945671081543,0.02795751765370369
1783174400465487400,3.2484873046875,1.8335840702056885,0.9850004315376282,-0.0685051679611206
1783174400475556600,3.258556640625,1.7920496463775635,0.9040267467498779,-0.15803158283233643
1783174400485625600,3.26862548828125,1.7643159627914429,0.78568434715271,-0.21675384044647217
1783174400495693600,3.278693603515625,1.745405673980713,0.6640977263450623,-0.24930700659751892
1783174400505762600,3.288762451171875,1.7264567613601685,0.5467460751533508,-0.23160187900066376
1783174400515830500,3.29883056640625,1.7037599086761475,0.4562196731567383,-0.1974974274635315
1783174400525899800,3.308899658203125,1.6661347150802612,0.4088742434978485,-0.19055810570716858
1783174400535967500,3.318967529296875,1.6051373481750488,0.41828852891921997,-0.2245618849992752
1783174400546036500,3.329036376953125,1.5345369577407837,0.4542507827281952,-0.2820425033569336
1783174400556105700,3.339105712890625,1.4744354486465454,0.4600440263748169,-0.36516904830932617
1783174400566173400,3.34917333984375,1.4294977188110352,0.4138632118701935,-0.42695021629333496
1783174400576242400,3.359242431640625,1.4023171663284302,0.3204405903816223,-0.4216236174106598
1783174400586310700,3.369310546875,1.3940865993499756,0.22729173302650452,-0.37362298369407654
1783174400596379400,3.37937939453125,1.379962682723999,0.16170500218868256,-0.31012657284736633
1783174400606447400,3.389447265625,1.3518950939178467,0.1409887820482254,-0.24085785448551178
1783174400616516600,3.3995166015625,1.3104467391967773,0.14063724875450134,-0.2067595273256302
1783174400626585600,3.409585693359375,1.262080192565918,0.1749754101037979,-0.20582737028598785
1783174400636653600,3.419653564453125,1.2153397798538208,0.22187474370002747,-0.2105741947889328
1783174400646722600,3.42972265625,1.191877841949463,0.2728355824947357,-0.21086156368255615
1783174400656790500,3.43979052734375,1.1820534467697144,0.2924886643886566,-0.19253234565258026
1783174400666859500,3.449859619140625,1.160089135169983,0.3066604733467102,-0.17782165110111237
1783174400676927500,3.459927490234375,1.1376522779464722,0.32322612404823303,-0.17887546122074127
1783174400686996500,3.46999658203125,1.1197577714920044,0.33315640687942505,-0.1745985448360443
1783174400697065500,3.4800654296875,1.0994114875793457,0.3148975074291229,-0.13620269298553467
1783174400707133400,3.490133544921875,1.094680905342102,0.27188682556152344,-0.09394866973161697
1783174400717202700,3.50020263671875,1.1110390424728394,0.2468816190958023,-0.06622915714979172
1783174400727270700,3.510270751953125,1.1339048147201538,0.23835796117782593,-0.061232879757881165
1783174400737339400,3.52033935546875,1.1510776281356812,0.23678669333457947,-0.056899912655353546
1783174400747408600,3.53040869140625,1.1530449390411377,0.23744061589241028,-0.058484990149736404
1783174400757476600,3.5404765625,1.1355807781219482,0.23459795117378235,-0.055235933512449265
1783174400767545300,3.55054541015625,1.1004544496536255,0.20546004176139832,-0.041283100843429565
1783174400777613600,3.560613525390625,1.0602449178695679,0.1780390739440918,-0.03912247717380524
1783174400787682600,3.5706826171875,1.023938775062561,0.1487082988023758,-0.057763565331697464
1783174400797750500,3.58075048828125,1.0071070194244385,0.11927556991577148,-0.08833186328411102
1783174400807819500,3.590819580078125,0.9998011589050293,0.10075784474611282,-0.09789931774139404
1783174400817888500,3.600888427734375,1.0066462755203247,0.08510857820510864,-0.054597120732069016
1783174400827956500,3.61095654296875,1.029710292816162,0.05507297441363335,0.02648434229195118
1783174400838025500,3.621025390625,1.057068943977356,0.022886810824275017,0.1008152961730957
1783174400848093400,3.631093505859375,1.0770280361175537,0.0065236398950219154,0.14000466465950012
1783174400858162700,3.64116259765625,1.0788464546203613,0.014641220681369305,0.14817151427268982
1783174400868230700,3.651230712890625,1.0588871240615845,0.04568321257829666,0.12367009371519089
1783174400878299400,3.66129931640625,1.0266705751419067,0.0750163346529007,0.07990370690822601
1783174400888368600,3.67136865234375,0.9929677248001099,0.09403534978628159,0.03185168653726578
1783174400898436600,3.6814365234375,0.9627200365066528,0.09120787680149078,-0.008994813077151775
1783174400908505300,3.69150537109375,0.9417014122009277,0.09315234422683716,-0.04838567599654198
1783174400918573600,3.701573486328125,0.9332775473594666,0.10263799130916595,-0.08320970088243484
1783174400928642600,3.711642578125,0.9417093992233276,0.04730815812945366,-0.06754152476787567
1783174400938710500,3.72171044921875,0.9696059823036194,-0.04523083195090294,0.000434062909334898
1783174400948779500,3.731779541015625,1.002278447151184,-0.11936379224061966,0.06050337851047516
1783174400958848500,3.7418486328125,1.0327560901641846,-0.1387026160955429,0.0899137333035469
1783174400968916700,3.751916748046875,1.051471471786499,-0.11597531288862228,0.1013728454709053
1783174400978985500,3.7619853515625,1.0536341667175293,-0.058819085359573364,0.08907809853553772
1783174400989053400,3.772053466796875,1.0457574129104614,0.02268548309803009,0.07235071808099747
1783174400999122700,3.782122802734375,1.027329683303833,0.1271117478609085,0.05442257970571518
1783174401009191400,3.79219140625,1.0239650011062622,0.2054557055234909,0.015044616535305977
1783174401019259400,3.80225927734375,1.0341864824295044,0.21718481183052063,-0.02953004464507103
1783174401029328600,3.81232861328125,1.041068434715271,0.17402902245521545,-0.06022494658827782
1783174401039396600,3.822396728515625,1.0366151332855225,0.1053471714258194,-0.07754561305046082
1783174401049465600,3.832465576171875,1.0068625211715698,0.03842629864811897,-0.10290420055389404
1783174401059533600,3.842533447265625,0.9539753794670105,0.007212985772639513,-0.12812966108322144
1783174401069602600,3.8526025390625,0.8855112195014954,-0.009195765480399132,-0.13672757148742676
1783174401079671600,3.862671630859375,0.8259408473968506,-0.020169854164123535,-0.14548909664154053
1783174401089739500,3.872739501953125,0.7895724177360535,-0.020311161875724792,-0.1551818996667862
1783174401099808500,3.88280859375,0.7687054872512817,-0.019863486289978027,-0.1613955944776535
1783174401109876700,3.892876708984375,0.7644184827804565,-0.038394905626773834,-0.15525983273983002
1783174401119945500,3.902945556640625,0.7942945957183838,-0.044294871389865875,-0.13777591288089752
1783174401130013400,3.913013427734375,0.8490415215492249,-0.009976226836442947,-0.12285051494836807
1783174401140082700,3.923082763671875,0.9263826608657837,0.051781415939331055,-0.10576660186052322
1783174401150151400,3.9331513671875,1.0053253173828125,0.12152102589607239,-0.05810127034783363
1783174401160219400,3.943219482421875,1.1031930446624756,0.15126773715019226,0.06207147613167763
1783174401170288600,3.95328857421875,1.2026772499084473,0.15934845805168152,0.22843484580516815
1783174401180356600,3.963356689453125,1.2778886556625366,0.2309052050113678,0.3337676525115967
1783174401190425600,3.973425537109375,1.331441044807434,0.35818272829055786,0.3707863986492157
1783174401200494600,3.98349462890625,1.3742783069610596,0.5044893622398376,0.3736961781978607
1783174401210562600,3.9935625,1.4034059047698975,0.5872948169708252,0.3835434019565582
1783174401220631600,4.003631591796875,1.4392752647399902,0.5686447024345398,0.4149415194988251
1783174401230699500,4.013699462890625,1.490464448928833,0.4800686836242676,0.4475279748439789
1783174401240768500,4.0237685546875,1.5474082231521606,0.3737523555755615,0.4134243428707123
1783174401250836700,4.033836669921875,1.6085551977157593,0.2969982326030731,0.3100219666957855
1783174401260905500,4.043905517578125,1.6556702852249146,0.255794882774353,0.18799592554569244
1783174401270974700,4.053974609375,1.6713554859161377,0.23093873262405396,0.09554606676101685
1783174401281042700,4.064042724609375,1.6808477640151978,0.20019227266311646,0.07130864262580872
1783174401291111400,4.074111328125,1.667898416519165,0.16388210654258728,0.1129337027668953
1783174401301179600,4.0841796875,1.641908884048462,0.15242412686347961,0.17472302913665771
1783174401311248600,4.09424853515625,1.62410306930542,0.16251181066036224,0.22915036976337433
1783174401321316600,4.104316650390625,1.6098432540893555,0.1727660447359085,0.27265629172325134
1783174401331385600,4.114385498046875,1.598253846168518,0.17345038056373596,0.29257264733314514
1783174401341454600,4.12445458984375,1.5936702489852905,0.1687150001525879,0.27568286657333374
1783174401351522600,4.1345224609375,1.5945135354995728,0.16925129294395447,0.2299894094467163
1783174401361591600,4.144591552734375,1.6137449741363525,0.18594132363796234,0.1958135962486267
1783174401371659500,4.154659423828125,1.6402183771133423,0.20973297953605652,0.172671839594841
1783174401381728800,4.164728759765625,1.6715989112854004,0.23786261677742004,0.17410889267921448
1783174401391797500,4.174797607421875,1.7113609313964844,0.26003509759902954,0.1941969096660614
1783174401401865500,4.184865478515625,1.7477293014526367,0.27377328276634216,0.20845280587673187
1783174401411934700,4.194934814453125,1.7781156301498413,0.2857553958892822,0.20606987178325653
1783174401422002400,4.20500244140625,1.7985330820083618,0.28992992639541626,0.182573601603508
1783174401432071700,4.21507177734375,1.8198891878128052,0.28518006205558777,0.15545274317264557
1783174401442139600,4.2251396484375,1.8399944305419922,0.25484558939933777,0.14599239826202393
1783174401452208600,4.235208740234375,1.8634575605392456,0.2282017022371292,0.1472426801919937
1783174401462277600,4.245277587890625,1.8918838500976562,0.2051728218793869,0.14547087252140045
1783174401472345600,4.255345703125,1.9138157367706299,0.18800731003284454,0.134740948677063
1783174401482414600,4.26541455078125,1.9263699054718018,0.16388440132141113,0.10880284011363983
1783174401492482600,4.275482666015625,1.928000569343567,0.142094224691391,0.0977577343583107
1783174401502551600,4.285551513671875,1.9223365783691406,0.10135025531053543,0.12303006649017334
1783174401512619500,4.29561962890625,1.9292312860488892,0.06322601437568665,0.1697881817817688
1783174401522688500,4.3056884765625,1.955695390701294,0.0510934479534626,0.21137957274913788
1783174401532757500,4.315757568359375,1.9766967296600342,0.08194110542535782,0.21973471343517303
1783174401542825700,4.32582568359375,1.985294222831726,0.13388341665267944,0.1867770254611969
1783174401552894700,4.335894775390625,1.975755214691162,0.17666518688201904,0.14435772597789764
1783174401562962400,4.34596240234375,1.9434517621994019,0.19405296444892883,0.11223040521144867
1783174401573031700,4.35603173828125,1.9082874059677124,0.20023469626903534,0.10508088022470474
1783174401583099600,4.366099609375,1.8910884857177734,0.21634095907211304,0.11494816094636917
1783174401593168400,4.37616845703125,1.8996299505233765,0.24546991288661957,0.12116553634405136
1783174401603237600,4.386237548828125,1.927832841873169,0.2829890847206116,0.15055830776691437
1783174401613305600,4.3963056640625,1.9644231796264648,0.3175975978374481,0.19799956679344177
1783174401623374600,4.40637451171875,2.008756399154663,0.35603126883506775,0.24246077239513397
1783174401633442600,4.416442626953125,2.0471184253692627,0.3966961205005646,0.27450162172317505
1783174401643511600,4.426511474609375,2.0844593048095703,0.4493172764778137,0.29625752568244934
1783174401653579500,4.43657958984375,2.1227426528930664,0.5122328996658325,0.2784450054168701
1783174401663648500,4.4466484375,2.1543080806732178,0.549330472946167,0.24404865503311157
1783174401673717500,4.456717529296875,2.1639206409454346,0.5333608984947205,0.22033537924289703
1783174401683785700,4.46678564453125,2.1516544818878174,0.48950132727622986,0.21251501142978668
1783174401693854500,4.4768544921875,2.1167216300964355,0.45495203137397766,0.20017391443252563
1783174401703922400,4.48692236328125,2.073202133178711,0.444611519575119,0.16696961224079132
1783174401713991700,4.49699169921875,2.034780740737915,0.4646805226802826,0.11502311378717422
1783174401724060400,4.507060302734375,2.0079963207244873,0.523810625076294,0.058796852827072144
1783174401734128400,4.51712841796875,2.0012423992156982,0.589628279209137,0.027573050931096077
1783174401744197600,4.52719775390625,2.0322415828704834,0.6532317399978638,0.034362249076366425
1783174401754265600,4.537265625,2.092957019805908,0.7008882761001587,0.05851330608129501
1783174401764334600,4.54733447265625,2.156176805496216,0.7004362940788269,0.08707837015390396
1783174401774402600,4.557402587890625,2.2161285877227783,0.6521965861320496,0.13412170112133026
1783174401784471600,4.567471435546875,2.2959988117218018,0.6119199991226196,0.16725435853004456
1783174401794540500,4.57754052734375,2.3777217864990234,0.6313096284866333,0.13243713974952698
1783174401804608500,4.5876083984375,2.4392831325531006,0.6570237874984741,0.05653517693281174
1783174401814677500,4.597677490234375,2.4957969188690186,0.5892871618270874,0.07692480087280273
1783174401824745700,4.607745849609375,2.548600673675537,0.4700305461883545,0.11811511963605881
1783174401834814500,4.617814453125,2.588747501373291,0.3573352098464966,0.11650891602039337
1783174401844882400,4.62788232421875,2.621396780014038,0.26630836725234985,0.04095903038978577
1783174401854951700,4.63795166015625,2.6477134227752686,0.13832923769950867,-0.0916610136628151
1783174401865020400,4.6480205078125,2.670663595199585,0.0029160240665078163,-0.22044484317302704
1783174401875088600,4.658088623046875,2.6499931812286377,-0.09707191586494446,-0.30143722891807556
1783174401885157600,4.66815771484375,2.609987735748291,-0.10232312977313995,-0.30275362730026245
1783174401895225600,4.6782255859375,2.572233200073242,0.011460544541478157,-0.2552065849304199
1783174401905294600,4.688294677734375,2.5553863048553467,0.23036465048789978,-0.22532379627227783
1783174401915362600,4.698362548828125,2.560950756072998,0.4852138161659241,-0.23498894274234772
1783174401925431600,4.708431640625,2.57395339012146,0.6973090171813965,-0.2474600076675415
1783174401935500500,4.71850048828125,2.541619300842285,0.8102352023124695,-0.2974071800708771
1783174401945568500,4.728568603515625,2.4763872623443604,0.8308486342430115,-0.3429504334926605
1783174401955637800,4.7386376953125,2.411407470703125,0.762734055519104,-0.37019097805023193
1783174401965705700,4.748705810546875,2.3290960788726807,0.6335345506668091,-0.3673006594181061
1783174401975774500,4.7587744140625,2.2499563694000244,0.4502456486225128,-0.33072933554649353
1783174401985843700,4.76884375,2.201815128326416,0.2892935276031494,-0.2794555127620697
1783174401995911700,4.77891162109375,2.167855978012085,0.1807292401790619,-0.2455960065126419
1783174402005980400,4.78898046875,2.1268248558044434,0.10037261992692947,-0.22888439893722534
1783174402016048600,4.799048583984375,2.0552682876586914,0.04532942175865173,-0.21437445282936096
1783174402026117600,4.80911767578125,1.9737712144851685,0.031865280121564865,-0.2049441933631897
1783174402036185600,4.819185546875,1.8899400234222412,0.025728514418005943,-0.17166750133037567
1783174402046254600,4.829254638671875,1.8152153491973877,0.05212816596031189,-0.11737710237503052
1783174402056323600,4.839323486328125,1.7687954902648926,0.10970458388328552,-0.07433217018842697
1783174402066391600,4.8493916015625,1.732575535774231,0.20041105151176453,-0.06024378165602684
1783174402076460500,4.85946044921875,1.7009342908859253,0.2849745452404022,-0.055166054517030716
1783174402086528500,4.869528564453125,1.6702909469604492,0.33530908823013306,-0.03443041443824768
1783174402096597800,4.87959765625,1.6314314603805542,0.3514442443847656,-0.0038487871643155813
1783174402106665700,4.889665771484375,1.5870070457458496,0.35964465141296387,0.024273395538330078
1783174402116734500,4.899734375,1.5623365640640259,0.3537085950374603,0.0565323568880558
1783174402126803700,4.9098037109375,1.541242003440857,0.33054548501968384,0.11460497975349426
1783174402136871700,4.91987158203125,1.5075455904006958,0.3107965588569641,0.15887831151485443
1783174402146940400,4.9299404296875,1.4686990976333618,0.3232708275318146,0.1708574742078781
1783174402157008600,4.940008544921875,1.4378255605697632,0.3502247631549835,0.1578424721956253
1783174402167077600,4.95007763671875,1.4183672666549683,0.39930257201194763,0.1330348700284958
1783174402177146600,4.960146728515625,1.403638243675232,0.4241671860218048,0.10255169123411179
1783174402187214600,4.970214599609375,1.3834046125411987,0.42860427498817444,0.08264642208814621
1783174402197283600,4.98028369140625,1.3572144508361816,0.420791894197464,0.08809702843427658
1783174402207351800,4.990351806640625,1.3370157480239868,0.3828839361667633,0.11314965039491653
1783174402217420500,5.000420654296875,1.329262614250183,0.32483533024787903,0.11506423354148865
1783174402227488500,5.010488525390625,1.3265224695205688,0.2706889808177948,0.09778750687837601
1783174402237557800,5.020557861328125,1.333319902420044,0.25042861700057983,0.0642865002155304
1783174402247626500,5.03062646484375,1.3399754762649536,0.22134795784950256,0.028655003756284714
1783174402257694500,5.040694580078125,1.3408745527267456,0.16413691639900208,0.024485059082508087
1783174402267763700,5.050763671875,1.3241640329360962,0.10182240605354309,0.03690763935446739
1783174402277831700,5.060831787109375,1.3079758882522583,0.05953073501586914,0.0700666755437851
1783174402287900700,5.070900634765625,1.2879798412322998,0.05298442021012306,0.09566418081521988
1783174402297968600,5.08096875,1.2639646530151367,0.07704553753137589,0.09227647632360458
1783174402308037600,5.09103759765625,1.2320256233215332,0.12110540270805359,0.09267408400774002
1783174402318106600,5.101106689453125,1.1983143091201782,0.17226776480674744,0.10098334401845932
1783174402328174300,5.11117431640625,1.172119140625,0.21966032683849335,0.10218895226716995
1783174402338243600,5.12124365234375,1.151581048965454,0.22230030596256256,0.0799914300441742
1783174402348311600,5.1313115234375,1.1356725692749023,0.1986818015575409,0.04287948086857796
1783174402358380300,5.14138037109375,1.1311559677124023,0.17017795145511627,0.004842136055231094
1783174402368448500,5.151448486328125,1.1306805610656738,0.14449869096279144,-0.02196124941110611
1783174402378517500,5.161517578125,1.1300151348114014,0.09935234487056732,-0.04284287616610527
1783174402388586500,5.17158642578125,1.133773684501648,0.05186152458190918,-0.04742457717657089
1783174402398654500,5.181654541015625,1.1505062580108643,0.04001253470778465,-0.0232190303504467
1783174402408723500,5.191723388671875,1.166001319885254,0.036286238580942154,0.010091787204146385
1783174402418791400,5.20179150390625,1.1969809532165527,0.047951746731996536,0.03812342882156372
1783174402428860400,5.2118603515625,1.2378573417663574,0.08957402408123016,0.03668665513396263
1783174402438929400,5.221929443359375,1.2716360092163086,0.14374029636383057,0.01529156044125557
1783174402448997400,5.231997314453125,1.282647728919983,0.18813440203666687,-0.02497170679271221
1783174402459066400,5.24206640625,1.2781970500946045,0.19185324013233185,-0.06538927555084229
1783174402469134300,5.25213427734375,1.2541649341583252,0.14881204068660736,-0.08182896673679352
1783174402479202600,5.26220263671875,1.2202857732772827,0.08704593777656555,-0.07315877825021744
1783174402489270500,5.2722705078125,1.179610252380371,0.03210838511586189,-0.056104160845279694
1783174402499339300,5.28233935546875,1.150723934173584,-0.024573219940066338,-0.05972355231642723
1783174402509407500,5.292407470703125,1.1350562572479248,-0.07527368515729904,-0.09559579193592072
1783174402519476500,5.3024765625,1.147767424583435,-0.09926392138004303,-0.14008405804634094
1783174402529545200,5.312545166015625,1.1864855289459229,-0.09194875508546829,-0.15598712861537933
1783174402539613400,5.322613525390625,1.2087634801864624,-0.07004183530807495,-0.14735671877861023
1783174402549682400,5.332682373046875,1.205673098564148,-0.031273405998945236,-0.11107194423675537
1783174402559750400,5.34275048828125,1.1571266651153564,0.032046396285295486,-0.06871581822633743
1783174402569819400,5.3528193359375,1.093048334121704,0.11633969843387604,-0.05308732017874718
1783174402579887400,5.362887451171875,1.0440521240234375,0.15353652834892273,-0.07272830605506897
1783174402589956600,5.37295654296875,1.0060228109359741,0.15939894318580627,-0.07661279290914536
1783174402600025300,5.383025390625,0.9822062849998474,0.1472245305776596,-0.05665802210569382
1783174402610093300,5.39309326171875,0.9506642818450928,0.11370571702718735,0.0008814370958134532
1783174402620162600,5.40316259765625,0.9008749127388,0.07256009429693222,0.08383125066757202
1783174402630230500,5.41323046875,0.8627451062202454,0.07193584740161896,0.1205514520406723
1783174402640299300,5.42329931640625,0.851970911026001,0.08326498419046402,0.12734581530094147
1783174402650367500,5.433367431640625,0.8577856421470642,0.09572990983724594,0.13497205078601837
1783174402660436500,5.4434365234375,0.8658375144004822,0.13586625456809998,0.166982039809227
1783174402670505500,5.45350537109375,0.8599618077278137,0.1825602501630783,0.2048330157995224
1783174402680573400,5.463573486328125,0.8274493217468262,0.21120455861091614,0.2164992392063141
1783174402690642400,5.473642333984375,0.7602311372756958,0.16172729432582855,0.19931571185588837
1783174402700710700,5.483710693359375,0.6808088421821594,0.05850605666637421,0.1516324132680893
1783174402710779400,5.493779296875,0.5847041606903076,-0.04992081597447395,0.11467252671718597
1783174402720848400,5.503848388671875,0.4665103852748871,-0.13558992743492126,0.10304606705904007
1783174402730916600,5.51391650390625,0.35211777687072754,-0.19015464186668396,0.093375064432621
1783174402740985300,5.5239853515625,0.26829689741134644,-0.1859058141708374,0.06545277684926987
1783174402751053300,5.53405322265625,0.21404936909675598,-0.12163681536912918,0.027838027104735374
1783174402761122600,5.54412255859375,0.20122173428535461,-0.01751548796892166,0.018354082480072975
1783174402771190500,5.5541904296875,0.22806265950202942,0.09583557397127151,0.04967552050948143
1783174402781259500,5.564259521484375,0.2723880708217621,0.22351248562335968,0.09144280105829239
1783174402791328500,5.57432861328125,0.32612454891204834,0.31387248635292053,0.12611235678195953
1783174402801396500,5.584396484375,0.37774357199668884,0.38200628757476807,0.13333195447921753
1783174402811465500,5.594465576171875,0.4255704879760742,0.41024351119995117,0.12092801928520203
1783174402821533400,5.604533447265625,0.45743879675865173,0.39318370819091797,0.1071137860417366
1783174402831603500,5.614603515625,0.4762234091758728,0.34516504406929016,0.10311638563871384
1783174402841672400,5.62467236328125,0.4773702621459961,0.306145578622818,0.11393159627914429
1783174402851740400,5.634740478515625,0.4700774550437927,0.27075403928756714,0.11362453550100327
1783174402861809400,5.644809326171875,0.4513372480869293,0.22165995836257935,0.1176900863647461
1783174402871877400,5.65487744140625,0.4306197166442871,0.18894408643245697,0.10476230084896088
1783174402881946400,5.6649462890625,0.4213196039199829,0.18270309269428253,0.08741685748100281
1783174402892015400,5.675015380859375,0.4304840862751007,0.16961152851581573,0.07250102609395981
1783174402902083300,5.685083251953125,0.4551338255405426,0.15662989020347595,0.06739919632673264
1783174402912152600,5.695152587890625,0.47749826312065125,0.14321394264698029,0.06253094226121902
1783174402922220500,5.705220458984375,0.482889860868454,0.11019786447286606,0.06680693477392197
1783174402932289300,5.715289306640625,0.4770708382129669,0.05239448696374893,0.057291459292173386
1783174402942357200,5.725357177734375,0.467247873544693,-0.010725155472755432,0.03207850456237793
1783174402952426500,5.735426513671875,0.4506068527698517,-0.06355294585227966,0.015185008756816387
1783174402962495200,5.7454951171875,0.42856213450431824,-0.10875491052865982,0.0007671744097024202
1783174402972563500,5.7555634765625,0.4108057916164398,-0.15843592584133148,0.010695438832044601
1783174402982632400,5.765632568359375,0.40013426542282104,-0.19030135869979858,0.0408589169383049
1783174402992700400,5.775700439453125,0.3991752862930298,-0.18055018782615662,0.08581947535276413
1783174403002769400,5.785769287109375,0.396576851606369,-0.13271024823188782,0.10279455780982971
1783174403012837400,5.79583740234375,0.3788074254989624,-0.06866547465324402,0.10118255019187927
1783174403022906400,5.80590625,0.3485391139984131,-0.0030733197927474976,0.07753016799688339
1783174403032975400,5.815975341796875,0.3050534129142761,0.04475412145256996,0.04721194878220558
1783174403043043300,5.826043212890625,0.27930963039398193,0.043048687279224396,0.04337497428059578
1783174403053112600,5.836112548828125,0.26850786805152893,0.009151970036327839,0.08617757260799408
1783174403063180500,5.8461806640625,0.2755110561847687,-0.02056259848177433,0.13094709813594818
1783174403073249300,5.856249267578125,0.29925233125686646,-0.03114866465330124,0.15884877741336823
1783174403083318500,5.866318603515625,0.31241893768310547,-0.029626114293932915,0.15770848095417023
1783174403093386500,5.876386474609375,0.3076430857181549,-0.013878045603632927,0.12180612981319427
1783174403103455200,5.886455322265625,0.29691314697265625,-0.006962375715374947,0.08263622224330902
1783174403113523500,5.8965234375,0.29174208641052246,-0.036138638854026794,0.07085519284009933
1783174403123592400,5.906592529296875,0.29956939816474915,-0.08270134031772614,0.10325068235397339
1783174403133660400,5.916660400390625,0.3113422095775604,-0.13480685651302338,0.14926081895828247
1783174403143729400,5.9267294921875,0.3113000690937042,-0.1560460329055786,0.16938820481300354
1783174403153798400,5.93679833984375,0.29114872217178345,-0.13549894094467163,0.14761659502983093
1783174403163866600,5.94686669921875,0.2523784339427948,-0.06315471231937408,0.10045956820249557
1783174403173935400,5.956935302734375,0.19828402996063232,0.03631275147199631,0.05162464827299118
1783174403184003300,5.96700341796875,0.1389506310224533,0.11531475186347961,0.030018623918294907
1783174403194072600,5.977072509765625,0.10151936113834381,0.12608030438423157,0.08094385266304016
1783174403204140500,5.987140625,0.10521166026592255,0.0999666154384613,0.14599475264549255
1783174403214209300,5.997209228515625,0.15445643663406372,0.05552937835454941,0.1766546666622162
1783174403224278500,6.007278564453125,0.21661466360092163,0.0006669843569397926,0.18236945569515228
1783174403234346500,6.017346435546875,0.24082013964653015,-0.05531851947307587,0.19648873805999756
1783174403244415500,6.02741552734375,0.21010909974575043,-0.09755279123783112,0.22009846568107605
1783174403254483500,6.0374833984375,0.12993383407592773,-0.11607427895069122,0.23986071348190308
1783174403264552400,6.047552490234375,0.015905257314443588,-0.11466145515441895,0.2705519497394562
1783174403274621400,6.057621337890625,-0.08659155666828156,-0.038596250116825104,0.28357985615730286
1783174403284689400,6.067689453125,-0.15359370410442352,0.13789840042591095,0.25279027223587036
1783174403294758400,6.07775830078125,-0.1889045536518097,0.281036376953125,0.169162780046463
1783174403304826600,6.08782666015625,-0.21672897040843964,0.3631340563297272,0.07042896747589111
1783174403314895400,6.097895263671875,-0.2323571890592575,0.4073481261730194,-0.027294926345348358
1783174403324962800,6.107962890625,-0.2426070272922516,0.3686752915382385,-0.06438750773668289
1783174403335032000,6.118031982421875,-0.2519712448120117,0.24085181951522827,-0.04139644280076027
1783174403345100800,6.128100830078125,-0.2497786283493042,0.0938776358962059,0.03035159967839718
1783174403355169000,6.1381689453125,-0.2348603904247284,0.029166284948587418,0.11173407733440399
1783174403365238000,6.148238037109375,-0.2302466630935669,0.06796325743198395,0.1701372265815735
1783174403375306000,6.158305908203125,-0.2531770169734955,0.17682023346424103,0.19890256226062775
1783174403385375000,6.168375,-0.29088732600212097,0.338579386472702,0.19288896024227142
1783174403395443000,6.17844287109375,-0.33953022956848145,0.49762415885925293,0.1582585573196411
1783174403405512000,6.188511962890625,-0.3898339867591858,0.5775758624076843,0.13169509172439575
1783174403415581000,6.198580810546875,-0.4347953200340271,0.5368356108665466,0.1336839497089386
1783174403425649000,6.20864892578125,-0.45756807923316956,0.42292097210884094,0.1582932323217392
1783174403435718100,6.21871826171875,-0.45292380452156067,0.286411315202713,0.16686008870601654
1783174403445786000,6.2287861328125,-0.39820170402526855,0.1188923716545105,0.1632816046476364
1783174403455854800,6.238854736328125,-0.309068888425827,-0.05867708474397659,0.17341147363185883
1783174403465924000,6.248924072265625,-0.1981189250946045,-0.1677287518978119,0.20413050055503845
1783174403475992000,6.258991943359375,-0.09461516886949539,-0.18256282806396484,0.23254349827766418
1783174403486060800,6.269060791015625,-0.028616715222597122,-0.11794973164796829,0.2272917479276657
1783174403496129000,6.27912890625,-0.009786301292479038,-0.009100746363401413,0.17573001980781555
1783174403506198000,6.289197998046875,-0.023560060188174248,0.08839341253042221,0.0898134633898735
1783174403516266000,6.299265869140625,-0.07420246303081512,0.13572977483272552,-0.010443365201354027
1783174403526335000,6.3093349609375,-0.13147470355033875,0.13357912003993988,-0.11068622767925262
1783174403536404000,6.319404052734375,-0.16865135729312897,0.09238880127668381,-0.2113254964351654
1783174403546472200,6.32947216796875,-0.180927574634552,0.030725859105587006,-0.2880416810512543
1783174403556541000,6.339541015625,-0.179469496011734,-0.06173510104417801,-0.3314341604709625
1783174403566609000,6.34960888671875,-0.1735767275094986,-0.15064790844917297,-0.33809271454811096
1783174403576678100,6.35967822265625,-0.1783539056777954,-0.21583622694015503,-0.31072741746902466
1783174403586745900,6.369745849609375,-0.17653030157089233,-0.2249240130186081,-0.29264727234840393
1783174403596814800,6.37981494140625,-0.1770315170288086,-0.15413080155849457,-0.28497791290283203
1783174403606884000,6.389884033203125,-0.1812971830368042,-0.04390862584114075,-0.2819991409778595
1783174403616952000,6.3999521484375,-0.18890157341957092,0.0766308382153511,-0.2781812250614166
1783174403627021000,6.41002099609375,-0.2098328322172165,0.17752638459205627,-0.26819178462028503
1783174403637089000,6.420089111328125,-0.24454927444458008,0.21671798825263977,-0.26043158769607544
1783174403647158000,6.430157958984375,-0.2803511917591095,0.2301200032234192,-0.25330671668052673
1783174403657227000,6.44022705078125,-0.29659223556518555,0.24048849940299988,-0.256089985370636
1783174403667295000,6.450294921875,-0.2764083743095398,0.23238499462604523,-0.27541667222976685
1783174403677364000,6.460364013671875,-0.24425284564495087,0.19063834846019745,-0.27441534399986267
1783174403687432000,6.470431884765625,-0.2181181162595749,0.12355445325374603,-0.25033244490623474
1783174403697501000,6.4805009765625,-0.19025346636772156,0.06481630355119705,-0.2191241979598999
1783174403707569000,6.49056884765625,-0.1663915067911148,0.03092711791396141,-0.19693012535572052
1783174403717638000,6.500637939453125,-0.1545976996421814,0.009767238050699234,-0.19312553107738495
1783174403727707000,6.510706787109375,-0.1785016655921936,-0.0009736767970025539,-0.22334836423397064
1783174403737774800,6.52077490234375,-0.2379186451435089,0.022171057760715485,-0.2736932635307312
1783174403747844000,6.530843994140625,-0.31592705845832825,0.056974515318870544,-0.3356703817844391
1783174403757911800,6.540911865234375,-0.4072713553905487,0.074732206761837,-0.37586307525634766
1783174403767981000,6.55098095703125,-0.4857388138771057,0.05497949942946434,-0.39461204409599304
1783174403778049000,6.561049072265625,-0.533984899520874,0.016736771911382675,-0.4009583294391632
1783174403788117800,6.57111767578125,-0.5511863231658936,-0.03674888238310814,-0.3919794261455536
1783174403798187000,6.58118701171875,-0.5465468168258667,-0.09858934581279755,-0.3864426910877228
1783174403808255000,6.5912548828125,-0.5233075022697449,-0.16246797144412994,-0.36430954933166504
1783174403818324000,6.601323974609375,-0.4897359311580658,-0.22636200487613678,-0.29895904660224915
1783174403828392000,6.611391845703125,-0.45764636993408203,-0.29769349098205566,-0.21015657484531403
1783174403838461000,6.6214609375,-0.43079450726509094,-0.3542446494102478,-0.1268710047006607
1783174403848530200,6.6315302734375,-0.4143597483634949,-0.3676360845565796,-0.08507128059864044
1783174403858598000,6.641597900390625,-0.4233500361442566,-0.3348674774169922,-0.07376030087471008
1783174403868667000,6.6516669921875,-0.4649023711681366,-0.28336766362190247,-0.04358616843819618
1783174403878735000,6.661735107421875,-0.5418162941932678,-0.24770712852478027,0.006777934730052948
1783174403888803800,6.671803955078125,-0.6179410219192505,-0.25151705741882324,0.07871798425912857
1783174403898871800,6.681871826171875,-0.678277313709259,-0.2758868336677551,0.14947472512722015
1783174403908941000,6.691941162109375,-0.7469701170921326,-0.31230923533439636,0.19986431300640106
1783174403919010000,6.702010009765625,-0.8394230604171753,-0.31790322065353394,0.20968444645404816
1783174403929077800,6.712077880859375,-0.9139785170555115,-0.2646634876728058,0.15898913145065308
1783174403939147000,6.72214697265625,-0.9474930763244629,-0.22861360013484955,0.059240423142910004
1783174403949215000,6.732215087890625,-1.0222704410552979,-0.22549977898597717,-0.05083901807665825
1783174403959284000,6.742283935546875,-1.0884424448013306,-0.38854461908340454,-0.11312475800514221
1783174403969352000,6.75235205078125,-1.1599795818328857,-0.5741769075393677,-0.08357886224985123
1783174403979421000,6.7624208984375,-1.2217886447906494,-0.6398805975914001,0.024485819041728973
1783174403989490000,6.772489990234375,-1.2273497581481934,-0.5660834908485413,0.13216325640678406
1783174403999558000,6.782557861328125,-1.2043720483779907,-0.3569374680519104,0.21388182044029236
1783174404009627000,6.792626953125,-1.1659389734268188,-0.06129850074648857,0.23767007887363434
1783174404019695000,6.802695068359375,-1.1531566381454468,0.21696189045906067,0.20251688361167908
1783174404029763800,6.812763916015625,-1.1407921314239502,0.3741019368171692,0.15519726276397705
1783174404039833000,6.8228330078125,-1.1192513704299927,0.35509708523750305,0.15242011845111847
1783174404049901000,6.832901123046875,-1.0733449459075928,0.24980540573596954,0.1845010221004486
1783174404059969800,6.8429697265625,-1.0097709894180298,0.11132128536701202,0.23148638010025024
1783174404070037800,6.853037841796875,-0.9314090013504028,-0.02301884815096855,0.2831340730190277
1783174404080107000,6.86310693359375,-0.848081111907959,-0.13238555192947388,0.3258439898490906
1783174404090175000,6.873175048828125,-0.7988641262054443,-0.21710023283958435,0.3544645309448242
1783174404100244000,6.883243896484375,-0.8035448789596558,-0.25476452708244324,0.36412328481674194
1783174404110313000,6.89331298828125,-0.8646208643913269,-0.2805315852165222,0.35732051730155945
1783174404120381000,6.903380859375,-0.9595327377319336,-0.2868739068508148,0.32315003871917725
1783174404130450000,6.913449951171875,-1.0756778717041016,-0.2896178364753723,0.2477380782365799
1783174404140518000,6.923517822265625,-1.1883114576339722,-0.264156699180603,0.14698509871959686
1783174404150587000,6.9335869140625,-1.2925175428390503,-0.2471904158592224,0.05587979033589363
1783174404160655000,6.943655029296875,-1.3793916702270508,-0.262798935174942,0.005003560334444046
1783174404170723800,6.953723876953125,-1.4451416730880737,-0.2793675363063812,0.005569424480199814
1783174404180793000,6.96379296875,-1.4826152324676514,-0.2801949977874756,0.02342565357685089
1783174404190861000,6.973861083984375,-1.4968929290771484,-0.2847379446029663,0.04898277297616005
1783174404200929800,6.9839296875,-1.5099730491638184,-0.27396997809410095,0.04454860836267471
1783174404210998000,6.993998046875,-1.5243903398513794,-0.2585500180721283,0.04087211564183235
1783174404221067000,7.00406689453125,-1.5408720970153809,-0.22482562065124512,0.03227383270859718
1783174404231135700,7.0141357421875,-1.561702013015747,-0.18438884615898132,0.010007049888372421
1783174404241204000,7.024203857421875,-1.5668390989303589,-0.15027667582035065,-0.018915144726634026
1783174404251273000,7.03427294921875,-1.566214680671692,-0.10764451324939728,-0.059002138674259186
1783174404261341000,7.0443408203125,-1.5670112371444702,-0.08098839968442917,-0.09950456023216248
1783174404271410000,7.054409912109375,-1.5688503980636597,-0.1048329621553421,-0.10291062295436859
1783174404281478000,7.064477783203125,-1.5498740673065186,-0.14062824845314026,-0.06579601019620895
1783174404291547100,7.074547119140625,-1.5101609230041504,-0.17283301055431366,-0.022161874920129776
1783174404301615900,7.084615966796875,-1.4605587720870972,-0.20380982756614685,0.013758042827248573
1783174404311683800,7.094683837890625,-1.4185211658477783,-0.21300151944160461,0.028331732377409935
1783174404321753000,7.104753173828125,-1.3899006843566895,-0.21798856556415558,0.004164611920714378
1783174404331821000,7.114821044921875,-1.415889024734497,-0.22571486234664917,-0.08813689649105072
1783174404341890000,7.12489013671875,-1.4851043224334717,-0.24558202922344208,-0.20121949911117554
1783174404351959000,7.134958984375,-1.5610466003417969,-0.2656983733177185,-0.2883093059062958
1783174404362027000,7.145027099609375,-1.6271867752075195,-0.31857118010520935,-0.31837159395217896
1783174404372096000,7.155095947265625,-1.6623705625534058,-0.3632785379886627,-0.29518043994903564
1783174404382164000,7.1651640625,-1.673616886138916,-0.3585442304611206,-0.2506164312362671
1783174404392233200,7.175233154296875,-1.6601943969726562,-0.3072371184825897,-0.21555200219154358
1783174404402301200,7.18530126953125,-1.6217020750045776,-0.1897197961807251,-0.19776394963264465
1783174404412370000,7.195369873046875,-1.583959698677063,-0.05948903411626816,-0.1494731903076172
1783174404422439200,7.205439208984375,-1.545755386352539,0.02408282831311226,-0.08624787628650665
1783174404432507100,7.215507080078125,-1.5181010961532593,0.006786249577999115,-0.027824584394693375
1783174404442576000,7.225575927734375,-1.458639144897461,-0.03626960888504982,0.021617267280817032
1783174404452644000,7.23564404296875,-1.372251033782959,-0.06133923679590225,0.0603955052793026
1783174404462713000,7.245713134765625,-1.287353515625,-0.07981757819652557,0.07768208533525467
1783174404472781000,7.255781005859375,-1.2266871929168701,-0.09485697001218796,0.07939412444829941
1783174404482850000,7.26585009765625,-1.1818464994430542,-0.13487815856933594,0.06647433340549469
1783174404492919000,7.2759189453125,-1.1363033056259155,-0.21399301290512085,0.041453927755355835
1783174404502987300,7.2859873046875,-1.1074544191360474,-0.32894301414489746,0.04634109511971474
1783174404513056000,7.296055908203125,-1.1062722206115723,-0.4314449429512024,0.09886693954467773
1783174404523124000,7.3061240234375,-1.1097394227981567,-0.46931934356689453,0.13301105797290802
1783174404533193200,7.316193115234375,-1.1191930770874023,-0.44478845596313477,0.12280609458684921
1783174404543261000,7.326260986328125,-1.132508397102356,-0.4430803060531616,0.0961766168475151
1783174404553330000,7.336329833984375,-1.1891015768051147,-0.5191091299057007,0.043810490518808365
1783174404563399200,7.346399169921875,-1.270423412322998,-0.6540706753730774,-0.024740606546401978
1783174404573467100,7.356467041015625,-1.389068603515625,-0.7834800481796265,-0.10935572534799576
1783174404583536000,7.3665361328125,-1.5296763181686401,-0.8272115588188171,-0.19365276396274567
1783174404593604000,7.37660400390625,-1.6604195833206177,-0.7904540300369263,-0.27544906735420227
1783174404603673000,7.386673095703125,-1.7266597747802734,-0.6531994938850403,-0.3623221814632416
1783174404613742000,7.3967421875,-1.751546025276184,-0.4953783452510834,-0.4056266248226166
1783174404623810000,7.40681005859375,-1.7225838899612427,-0.35938560962677,-0.412655234336853
1783174404633879000,7.416879150390625,-1.646912693977356,-0.25045838952064514,-0.42586588859558105
1783174404643947000,7.426947021484375,-1.564965844154358,-0.20874956250190735,-0.4433399438858032
1783174404654016000,7.43701611328125,-1.524547815322876,-0.14041490852832794,-0.46915218234062195
1783174404664084000,7.447083984375,-1.4566481113433838,-0.15574859082698822,-0.5200949907302856
1783174404674153200,7.4571533203125,-1.419104814529419,-0.11385969072580338,-0.5240136981010437
1783174404684222000,7.467221923828125,-1.4181218147277832,-0.06641893833875656,-0.4886307120323181
1783174404694290200,7.477290283203125,-1.4380165338516235,-0.038267266005277634,-0.34941646456718445
1783174404704359200,7.487359130859375,-1.4608476161956787,0.019489504396915436,-0.11149468272924423
1783174404714427000,7.497427001953125,-1.428923487663269,0.11480861902236938,0.17064842581748962
1783174404724496100,7.50749609375,-1.3258607387542725,0.17491963505744934,0.4349477291107178
1783174404734564000,7.517564208984375,-1.1694042682647705,0.14081339538097382,0.5968421697616577
1783174404744632800,7.5276328125,-0.9707870483398438,0.04610072821378708,0.6533845663070679
1783174404754702000,7.5377021484375,-0.7475662231445312,-0.09372694790363312,0.6165375709533691
1783174404764770000,7.54777001953125,-0.5596423745155334,-0.2310435175895691,0.510745108127594
1783174404774839000,7.557839111328125,-0.4989481270313263,-0.3010472059249878,0.3749054968357086
1783174404784907000,7.567906982421875,-0.4042018949985504,-0.3434212803840637,0.25195586681365967
1783174404794976000,7.57797607421875,-0.28650620579719543,-0.23675988614559174,0.12930990755558014
1783174404805045200,7.588045166015625,-0.2243104875087738,-0.10226412862539291,0.06164243817329407
1783174404815113000,7.598113037109375,-0.16760601103305817,-0.08059100806713104,0.004226929973810911
1783174404825182000,7.608181884765625,-0.08967125415802002,-0.05504197999835014,-0.04786130413413048
1783174404835250200,7.618250244140625,0.03381777182221413,-0.012089621275663376,-0.02319435030221939
1783174404845319000,7.62831884765625,0.19411690533161163,0.008053997531533241,0.0305948443710804
1783174404855387000,7.638386962890625,0.3889211118221283,0.0462820827960968,0.0908830389380455
1783174404865456000,7.6484560546875,0.5583831071853638,0.08941677212715149,0.12722133100032806
1783174404875525000,7.658525146484375,0.7020643949508667,0.16057246923446655,0.0817151591181755
1783174404885592800,7.6685927734375,0.8371015787124634,0.2490472048521042,0.0013324382016435266
1783174404895662000,7.678662109375,0.9446460008621216,0.31063583493232727,-0.0868414044380188
1783174404905730000,7.68872998046875,1.016750693321228,0.3025084137916565,-0.12981471419334412
1783174404915799000,7.698799072265625,1.0864505767822266,0.23082134127616882,-0.12567541003227234
1783174404925867000,7.708866943359375,1.1860249042510986,0.18983368575572968,-0.10347583889961243
1783174404935936000,7.71893603515625,1.315508484840393,0.18328790366649628,-0.10739387571811676
1783174404946005000,7.7290048828125,1.4938130378723145,0.16359995305538177,-0.12753510475158691
1783174404956073000,7.739072998046875,1.6860830783843994,0.15640917420387268,-0.14179973304271698
1783174404966142000,7.749141845703125,1.8441462516784668,0.13139037787914276,-0.14079518616199493
1783174404976210200,7.759210205078125,1.9239482879638672,0.0905371606349945,-0.13254179060459137
1783174404986279000,7.76927880859375,1.9435808658599854,0.08842235058546066,-0.12214215099811554
1783174404996348200,7.77934814453125,1.9321247339248657,0.13770011067390442,-0.14049749076366425
1783174405006416100,7.789416015625,1.891389012336731,0.1742013841867447,-0.15289956331253052
1783174405016484900,7.79948486328125,1.8400851488113403,0.17806915938854218,-0.16720694303512573
1783174405026553000,7.809552978515625,1.83512544631958,0.17872989177703857,-0.17305338382720947
1783174405036622000,7.8196220703125,1.8571721315383911,0.18889138102531433,-0.17787335813045502
1783174405046690000,7.82968994140625,1.8899133205413818,0.20538966357707977,-0.15568070113658905
1783174405056759000,7.839759033203125,1.9107937812805176,0.2108536809682846,-0.12350998818874359
1783174405066828000,7.849828125,1.907612919807434,0.21834860742092133,-0.10383215546607971
1783174405076896000,7.85989599609375,1.8627145290374756,0.23024781048297882,-0.10329543054103851
1783174405086965000,7.869965087890625,1.787662386894226,0.23901785910129547,-0.1300189197063446
1783174405097033000,7.880032958984375,1.6942932605743408,0.24529829621315002,-0.1634446680545807
1783174405107102200,7.890102294921875,1.5945219993591309,0.24755506217479706,-0.18535049259662628
1783174405117170200,7.900170166015625,1.497988224029541,0.2460087239742279,-0.17512202262878418
1783174405127239000,7.910239013671875,1.4122989177703857,0.20119117200374603,-0.1253339648246765
1783174405137308200,7.92030810546875,1.3413879871368408,0.0934978500008583,-0.06085623428225517
1783174405147376000,7.930376220703125,1.2982463836669922,-0.007579226978123188,-0.006935213692486286
1783174405157444900,7.94044482421875,1.3340784311294556,-0.08371436595916748,0.030986905097961426
1783174405167513000,7.95051318359375,1.3968384265899658,-0.09561683237552643,0.07033856958150864
1783174405177582000,7.96058203125,1.4450879096984863,-0.07059180736541748,0.13122352957725525
1783174405187651000,7.970651123046875,1.4851282835006714,-0.04760526120662689,0.20027025043964386
1783174405197719000,7.980718994140625,1.5003138780593872,-0.04194839298725128,0.24484847486019135
1783174405207788000,7.9907880859375,1.4744482040405273,-0.03928469866514206,0.27097007632255554
1783174405217856000,8.00085595703125,1.399198293685913,-0.0765431672334671,0.2988152801990509
1783174405227925000,8.010925048828126,1.304007887840271,-0.12722577154636383,0.31495776772499084
1783174405237993000,8.020992919921875,1.2263015508651733,-0.13467469811439514,0.293184369802475
1783174405248062200,8.031062255859375,1.1522244215011597,-0.1014067605137825,0.25790122151374817
1783174405258131000,8.041130859375,1.1144077777862549,-0.09952821582555771,0.2413441389799118
1783174405268199000,8.051198974609376,1.1091132164001465,-0.08378014713525772,0.25701019167900085
1783174405278268200,8.06126806640625,1.1063331365585327,-0.05046398565173149,0.30192676186561584
1783174405288336100,8.071336181640625,1.1028695106506348,-0.020983057096600533,0.3209121823310852
1783174405298404900,8.08140478515625,1.1078616380691528,0.054979126900434494,0.2882607877254486
1783174405308473000,8.09147314453125,1.1239807605743408,0.1321229189634323,0.20401409268379211
1783174405318542000,8.1015419921875,1.1508493423461914,0.17887821793556213,0.10535944998264313
1783174405328611800,8.11161181640625,1.1793361902236938,0.18098875880241394,0.051661327481269836
1783174405338679800,8.1216796875,1.2159757614135742,0.13760687410831451,0.04322575777769089
1783174405348748800,8.131748779296874,1.2503167390823364,0.04255812242627144,0.04780293256044388
1783174405358816800,8.141816650390625,1.2462458610534668,-0.07574841380119324,0.04837259650230408
1783174405368885800,8.1518857421875,1.209623098373413,-0.21601632237434387,0.051425643265247345
1783174405378953700,8.16195361328125,1.1922357082366943,-0.3588148057460785,0.04494962841272354
1783174405389022700,8.172022705078126,1.2532066106796265,-0.48950305581092834,0.0373590886592865
1783174405399091700,8.182091796875,1.3467464447021484,-0.5372799038887024,0.045303452759981155
1783174405409160000,8.192159912109375,1.4407778978347778,-0.47848907113075256,0.06086776405572891
1783174405419228700,8.202228759765624,1.5296311378479004,-0.37980806827545166,0.07733868807554245
1783174405429296600,8.212296630859376,1.5812469720840454,-0.24178816378116608,0.08798547834157944
1783174405439366000,8.222365966796875,1.6067074537277222,-0.08460903912782669,0.10973432660102844
1783174405449433900,8.232433837890625,1.6293994188308716,0.07505998760461807,0.14979679882526398
1783174405459502600,8.242502685546874,1.6859983205795288,0.26887065172195435,0.21174857020378113
1783174405469571800,8.25257177734375,1.7628453969955444,0.47233855724334717,0.2663242220878601
1783174405479639800,8.262639892578125,1.8467875719070435,0.6522027850151062,0.2835741639137268
1783174405489708800,8.272708740234375,1.9054676294326782,0.7473654747009277,0.2859656810760498
1783174405499776800,8.28277685546875,1.9543945789337158,0.7631291151046753,0.29040223360061646
1783174405509845800,8.292845703125,2.0126335620880127,0.7577457427978516,0.3027411997318268
1783174405519914800,8.302914794921875,2.0528552532196045,0.7153915762901306,0.3133152425289154
1783174405529982700,8.312982666015625,2.0810110569000244,0.6399646997451782,0.3000313937664032
1783174405540051700,8.3230517578125,2.0970044136047363,0.5389531254768372,0.26395919919013977
1783174405550120000,8.333119873046876,2.0954508781433105,0.42403823137283325,0.21128270030021667
1783174405560188700,8.343188720703125,2.077352523803711,0.27548614144325256,0.1773069053888321
1783174405570256600,8.353256591796875,2.0318214893341064,0.1294786036014557,0.15968291461467743
1783174405580326000,8.363325927734374,2.002556562423706,0.04047767445445061,0.17029120028018951
1783174405590394600,8.37339453125,2.008826494216919,0.017905788496136665,0.17926791310310364
1783174405600462600,8.383462646484375,2.0326876640319824,0.05483449995517731,0.14748673141002655
1783174405610531800,8.39353173828125,2.0730600357055664,0.1422588974237442,0.09304506331682205
1783174405620599800,8.403599853515624,2.1238560676574707,0.248252272605896,0.048259783536195755
1783174405630668800,8.413668701171876,2.1799566745758057,0.2910953462123871,0.02861817181110382
1783174405640736800,8.42373681640625,2.255634307861328,0.30050423741340637,0.03834650665521622
1783174405650805800,8.4338056640625,2.35330867767334,0.3133656978607178,0.08364847302436829
1783174405660874800,8.443874755859374,2.4257917404174805,0.3405386507511139,0.14832904934883118
1783174405670942700,8.453942626953125,2.4716989994049072,0.36162424087524414,0.21466706693172455
1783174405681011700,8.46401171875,2.4979350566864014,0.3520473837852478,0.25839611887931824
1783174405691080000,8.474079833984375,2.524130344390869,0.32133448123931885,0.27616259455680847
1783174405701148700,8.484148681640624,2.559269905090332,0.3119867742061615,0.2696879208087921
1783174405711218000,8.494218017578126,2.6131157875061035,0.3360704183578491,0.25389623641967773
1783174405721286000,8.504285888671875,2.6671369075775146,0.35552912950515747,0.2478412240743637
1783174405731354600,8.514354736328125,2.7106010913848877,0.3741702139377594,0.2556421458721161
1783174405741422800,8.5244228515625,2.736337661743164,0.39528870582580566,0.2745424807071686
1783174405751491800,8.534491943359376,2.734790325164795,0.42091578245162964,0.2805345952510834
1783174405761559800,8.544559814453125,2.7046916484832764,0.40569257736206055,0.29791259765625
1783174405771628800,8.55462890625,2.6746740341186523,0.3342633843421936,0.3671364188194275
1783174405781697800,8.56469775390625,2.650780200958252,0.2514110505580902,0.43080103397369385
1783174405791765800,8.574765869140625,2.6388602256774902,0.20590081810951233,0.4437200129032135
1783174405801834800,8.584834716796875,2.6545536518096924,0.2340092658996582,0.43509772419929504
1783174405811902700,8.59490283203125,2.6879384517669678,0.3046698570251465,0.4306446611881256
1783174405821972000,8.604971923828124,2.7131283283233643,0.3693189322948456,0.4568066895008087
1783174405832040000,8.6150400390625,2.7546451091766357,0.44730719923973083,0.49010607600212097
1783174405842108700,8.625108642578125,2.767735719680786,0.5509488582611084,0.4951525330543518
1783174405852178000,8.635177978515625,2.7078440189361572,0.6505929231643677,0.45416462421417236
1783174405862246000,8.645245849609376,2.6067821979522705,0.7634758353233337,0.3911355137825012
1783174405872314600,8.655314697265625,2.518878936767578,0.8708704710006714,0.32898372411727905
1783174405882382800,8.6653828125,2.4800782203674316,0.9288129210472107,0.27530550956726074
1783174405892451800,8.675451904296875,2.5108330249786377,0.9335554838180542,0.2388119399547577
1783174405902520800,8.685520751953124,2.5752601623535156,0.8757702112197876,0.17302937805652618
1783174405912588800,8.6955888671875,2.6312918663024902,0.717128336429596,0.08668969571590424
1783174405922657800,8.70565771484375,2.6597530841827393,0.5235186815261841,-0.03406050056219101
1783174405932726000,8.71572607421875,2.6527202129364014,0.3955460488796234,-0.15128885209560394
1783174405942794800,8.725794677734376,2.6062588691711426,0.32441651821136475,-0.2300473302602768
1783174405952862700,8.73586279296875,2.5320444107055664,0.2793121635913849,-0.2555338144302368
1783174405962932000,8.745931884765625,2.4555323123931885,0.24587155878543854,-0.2256382703781128
1783174405973000700,8.756000732421874,2.4151124954223633,0.25256460905075073,-0.14938557147979736
1783174405983068700,8.766068603515626,2.407625675201416,0.30891895294189453,-0.09754832088947296
1783174405993138000,8.776137939453125,2.4330146312713623,0.4306856095790863,-0.12306646257638931
1783174406003206000,8.786205810546875,2.4601123332977295,0.5186818242073059,-0.19047455489635468
1783174406013275000,8.79627490234375,2.4816930294036865,0.5446628332138062,-0.2548508942127228
1783174406023342800,8.8063427734375,2.498974084854126,0.5216789245605469,-0.2898125648498535
1783174406033411800,8.816411865234375,2.5122413635253906,0.46149730682373047,-0.2839139401912689
1783174406043480800,8.826480712890625,2.5172629356384277,0.4201745092868805,-0.23534369468688965
1783174406053548800,8.836548828125,2.501957654953003,0.40292519330978394,-0.19604210555553436
1783174406063617800,8.84661767578125,2.4697790145874023,0.38338208198547363,-0.18081265687942505
1783174406073685800,8.856685791015625,2.424391269683838,0.36513862013816833,-0.1772243082523346
1783174406083754800,8.866754638671875,2.365328311920166,0.2880541682243347,-0.2021314650774002
1783174406093822700,8.87682275390625,2.305246353149414,0.15545006096363068,-0.22120502591133118
1783174406103892000,8.88689208984375,2.2534162998199463,0.07597818970680237,-0.20698335766792297
1783174406113960700,8.896960693359375,2.1995294094085693,0.04318508505821228,-0.18095548450946808
1783174406124028700,8.907028564453125,2.1373932361602783,0.04188414663076401,-0.18123948574066162
1783174406134098000,8.917097900390624,2.0701332092285156,0.08751607686281204,-0.20795205235481262
1783174406144165600,8.92716552734375,2.006124496459961,0.15082010626792908,-0.2582973539829254
1783174406154235000,8.93723486328125,1.9596885442733765,0.21389681100845337,-0.2906310558319092
1783174406164304000,8.947303955078125,1.9221998453140259,0.2618037164211273,-0.29074448347091675
1783174406174371800,8.957371826171874,1.8764585256576538,0.2734009921550751,-0.25267699360847473
1783174406184440800,8.96744091796875,1.8281383514404297,0.23807410895824432,-0.20509235560894012
1783174406194508800,8.9775087890625,1.760499119758606,0.1372835785150528,-0.18417909741401672
1783174406204577800,8.987577880859375,1.7373276948928833,0.06395827233791351,-0.19301587343215942
1783174406214645800,8.997645751953126,1.7474801540374756,0.07786929607391357,-0.1986716240644455
1783174406224714800,9.00771484375,1.756373405456543,0.113884337246418,-0.19340485334396362
1783174406234784000,9.017783935546875,1.7524124383926392,0.09936851263046265,-0.1787707805633545
1783174406244851700,9.027851806640625,1.716854214668274,0.06833012402057648,-0.13661989569664001
1783174406254920700,9.037920654296874,1.6597400903701782,0.027393082156777382,-0.10265474021434784
1783174406264989000,9.047989013671875,1.610352635383606,-0.00846685841679573,-0.11432930827140808
1783174406275058000,9.058057861328125,1.5541739463806152,-0.033474475145339966,-0.16716057062149048
1783174406285125600,9.068125732421874,1.5246502161026,-0.05875207856297493,-0.20705293118953705
1783174406295195000,9.07819482421875,1.5185683965682983,-0.044811494648456573,-0.20174525678157806
1783174406305263900,9.088263916015626,1.5142428874969482,-0.030632371082901955,-0.14549066126346588
1783174406315331600,9.09833154296875,1.508363962173462,-0.030919989570975304,-0.060692425817251205
1783174406325400600,9.108400634765625,1.4886910915374756,-0.03223509341478348,0.011876365169882774
1783174406335468500,9.118468505859376,1.4758481979370117,-0.0038817506283521652,0.026127208024263382
1783174406345537500,9.12853759765625,1.485926866531372,0.02681565284729004,0.04989306256175041
1783174406355605500,9.13860546875,1.4961766004562378,0.04811987280845642,0.08166937530040741
1783174406365674500,9.148674560546874,1.4852043390274048,0.08501570671796799,0.07574491947889328
1783174406375743700,9.15874365234375,1.4238253831863403,0.08895718306303024,0.036409758031368256
1783174406385811500,9.1688115234375,1.3646979331970215,0.10658154636621475,-0.012880337424576283
1783174406395880400,9.17888037109375,1.3299835920333862,0.1307412087917328,-0.05256969481706619
1783174406405948700,9.18894873046875,1.3135359287261963,0.13452550768852234,-0.041330546140670776
1783174406416017400,9.199017333984376,1.3263001441955566,0.13023728132247925,0.018025720492005348
1783174406426086400,9.20908642578125,1.356208086013794,0.1600925326347351,0.11445467174053192
1783174406436154600,9.219154541015625,1.37913179397583,0.19794484972953796,0.2057981640100479
1783174406446223600,9.2292236328125,1.3988046646118164,0.2585178315639496,0.24101632833480835
1783174406456291300,9.239291259765626,1.391785979270935,0.27632638812065125,0.19993813335895538
1783174406466360600,9.249360595703125,1.348618745803833,0.27886518836021423,0.07938668876886368
1783174406476428500,9.259428466796875,1.2750451564788818,0.1420636773109436,0.04401218891143799
1783174406486496500,9.26949658203125,1.1614556312561035,-0.2770605683326721,-0.05242680385708809
1783174406496564700,9.279564697265625,1.0775116682052612,-0.45887404680252075,-0.13969379663467407
1783174406506633500,9.289633544921875,1.0625642538070679,-0.49901142716407776,-0.2392074465751648
1783174406516702700,9.29970263671875,1.0352849960327148,-0.5471765995025635,-0.3474564552307129
1783174406526770700,9.309770751953126,1.0141255855560303,-0.5402433276176453,-0.38130879402160645
1783174406536839400,9.31983935546875,0.9880446791648865,-0.49945247173309326,-0.2928503155708313
1783174406546907600,9.32990771484375,0.976267397403717,-0.46805164217948914,-0.1143968403339386
