time,seconds_elapsed,z,y,x
1783169556687203600,0.07920361328125,0.04328618401885032,-0.005753380461526103,0.036378585171035954
1783169556697272600,0.0892724609375,-0.09348317033946514,-0.014685482290713116,0.03622388551637996
1783169556707341600,0.099341552734375,-0.06759761845469474,-0.002470732928509824,0.009566512433829484
1783169556717411800,0.109411865234375,0.037000235617160794,-0.018021307615959086,-0.0012924167140037752
1783169556727480600,0.11948046875,0.03984335008859634,-0.01348031688518822,-0.021821074358257465
1783169556737550800,0.12955078125,-0.05308218636810779,0.011420425213314591,0.020171042128908447
1783169556747619600,0.13961962890625,-0.08046645237803458,0.027629112183046527,0.015214447201415895
1783169556757688800,0.149688720703125,0.01081248591542244,0.01491577021551784,-0.0004902140776917804
1783169556767758600,0.159758544921875,0.05570435156524181,0.007391000733873806,-0.0029341583223314953
1783169556777827800,0.169827880859375,-0.025548867276310918,0.0013678771199891343,-0.0015378987830074037
1783169556787896600,0.179896484375,-0.054880175700783726,0.020475989025388844,0.012443643339298432
1783169556797966600,0.189966552734375,-0.017470190238952635,0.005108671083510853,-0.010586954080837312
1783169556808035600,0.20003564453125,0.03220949420928955,0.0009500079009449109,-0.006005821994278813
1783169556818104800,0.210104736328125,0.009165303230285644,0.00720887193288654,-0.015771829922427424
1783169556828174600,0.220174560546875,-0.0481453144878149,0.011297027162509039,-0.012970658321509836
1783169556838243800,0.230243896484375,-0.024053660282492638,0.026563355248211882,-0.003643318088550586
1783169556848312600,0.2403125,0.011560089412331581,-0.00021093477036338297,-0.013103880221652797
1783169556858382600,0.250382568359375,0.012308277431130409,-0.011585516114532946,0.0006448463753331452
1783169556868451600,0.26045166015625,-0.04006371484100819,-0.006400231564277783,-0.0010026639617222825
1783169556878520800,0.270520751953125,-0.02405307576060295,0.0008479403325356542,0.014555760672042378
1783169556888590600,0.280590576171875,0.0015355390042066574,0.001980798553675413,0.03171143589350395
1783169556898659600,0.29065966796875,0.019192776247859,0.012773702985793351,0.01857195349386311
1783169556908728600,0.300728515625,-0.018067571610212326,-0.0007756422813050448,0.03737158739691367
1783169556918798600,0.310798583984375,-0.02539981419444084,-0.017429693831782788,0.042425530335213985
1783169556928867600,0.32086767578125,-0.009388006070256232,0.005589444904355332,0.006409678670990979
1783169556938936800,0.330936767578125,-0.002205401089787483,0.009618545156810432,-0.0003016452611191198
1783169556949006600,0.341006591796875,-0.0077425769507884976,-0.006591872545704245,-0.0012700279273267368
1783169556959075600,0.35107568359375,-0.026896774753928182,0.0050790020310319955,-0.02423277970906347
1783169556969144600,0.36114453125,-0.0001128127247095108,0.009419291691086254,-0.00657520225540502
1783169556979214600,0.371214599609375,0.0022819734573364257,0.021303009867481886,0.00038744325638399456
1783169556989283600,0.38128369140625,0.0025818331867456436,0.025554653129703363,-0.006398707469116197
1783169556999352600,0.3913525390625,-0.029591420665383335,0.0038400256874505426,-0.008003298829763661
1783169557009422600,0.401422607421875,-0.033930326652526856,-0.012975879060965962,-0.004183723416941939
1783169557019491600,0.41149169921875,-0.013429974937438964,0.0016432554286904633,-0.009995383679145015
1783169557029560600,0.421560546875,-0.01597381420135498,0.006306758294277824,-0.00835314088896266
1783169557039630600,0.431630615234375,-0.01567453899383545,-0.00761405520029366,0.008077284231293015
1783169557049699600,0.441699462890625,0.0031809681236743925,0.004776374955801293,0.00783441766941687
1783169557059768600,0.4517685546875,0.0009364040672779082,0.0007339813969330862,0.008686401706119068
1783169557069838800,0.4618388671875,-0.037221184891462325,0.011135685421223751,0.010416057918273144
1783169557079907600,0.471907470703125,-0.01791734948456287,0.004124482351751066,0.008435219407046678
1783169557089976600,0.4819765625,-0.02809212201833725,-0.0100071791482158,-0.0027383263646217526
1783169557100046600,0.492046630859375,-0.00549684385061264,-0.009255945222382433,0.005503094353241613
1783169557110115600,0.502115478515625,-0.005495674806833267,0.0006659987612161785,0.00881663478144328
1783169557120184600,0.5121845703125,-0.021955226698517797,0.0050919117449549954,0.023913297397154382
1783169557130254800,0.5222548828125,-0.01267769526541233,0.006131177965085953,0.012240539107297081
1783169557140323600,0.532323486328125,-0.013725743013620376,0.010040606493782252,0.013168803250603376
1783169557150392600,0.542392578125,-0.020460604226589203,-0.006504783350718207,0.004584635792963672
1783169557160462600,0.552462646484375,0.001387070444226265,0.0028525033542886376,0.001955501998926047
1783169557170531800,0.56253173828125,-0.012229951497912407,0.005648504448099993,-0.00867286408782238
1783169557180600600,0.5726005859375,-0.026894436666369436,0.004192031162627972,-0.01897242405353463
1783169557190670800,0.5826708984375,-0.007889876466989517,0.008028819146798923,-0.017600191560480743
1783169557200739600,0.592739501953125,-0.011929507246613501,0.0076660593821667134,-0.023342906780808696
1783169557210808800,0.602808837890625,-0.013574936366081237,0.01501620294926688,0.0008553484625008422
1783169557220878600,0.612878662109375,-0.011629647517204285,0.014282198719447478,0.0011262229843763635
1783169557230947800,0.62294775390625,-0.015221534529328345,-0.0037182990039233118,0.017294270841398975
1783169557241016600,0.6330166015625,-0.01312602355480194,0.005775560327293351,0.019060879796766676
1783169557251086600,0.643086669921875,-0.009085808253288268,-0.00189890612361487,0.014639875883585772
1783169557261155600,0.653155517578125,-0.01133095683157444,-0.00900533146217931,0.034912044865987264
1783169557271224800,0.663224853515625,-0.003999298769235611,0.0000705764516023919,0.026224885108042505
1783169557281294600,0.673294677734375,0.004679682248830795,-0.003241237810393795,0.023408759108232334
1783169557291363800,0.68336376953125,-0.012977554994821547,-0.0042242026994470504,0.021481275344104506
1783169557301432600,0.6934326171875,-0.005644727888703346,0.00752390183196403,0.009674766572786028
1783169557311502600,0.703502685546875,-0.009685527712106705,-0.0034123794264858585,0.012988122054608538
1783169557321571600,0.713571533203125,-0.01941314100027084,0.0013747178527293727,0.0015719471830816473
1783169557331640800,0.723640869140625,-0.01567278542816639,-0.0006821507449960336,0.012534813912713433
1783169557341710600,0.733710693359375,-0.014327216038107871,0.023495583441737106,0.005248313591285842
1783169557351779600,0.743779541015625,-0.010137363132834434,0.01793927362200338,-0.013920141066069482
1783169557361848600,0.7538486328125,-0.013579028019309044,-0.003454136208980344,0.002541788870724849
1783169557371918600,0.763918701171875,-0.007892214554548263,0.013375906662642954,0.00014084580088383517
1783169557381987600,0.773987548828125,-0.004601356315612793,0.0011445258260471746,0.0029125207376142497
1783169557392056600,0.784056640625,-0.0077437459945678706,0.004707141077914275,0.007895226212253328
1783169557402126600,0.794126708984375,-0.025550036320090293,-0.006742332133371383,-0.00037189976902445775
1783169557412195600,0.804195556640625,-0.00310439575612545,0.005358631823165342,-0.011473769685614388
1783169557422264600,0.8142646484375,-0.025551205363869664,0.013007753770262934,-0.012858040817978325
1783169557432334600,0.82433447265625,-0.020164251628518103,0.010480956972693092,-0.002254075095191365
1783169557442403600,0.834403564453125,-0.018068740653991697,0.0036370093620615076,-0.011450235829688607
1783169557452472600,0.84447265625,-0.013729250144958495,-0.003963633800810203,0.003567241194634698
1783169557462542600,0.85454248046875,-0.011633739170432091,0.004586551472125575,0.002941529919678578
1783169557472611600,0.864611572265625,-0.01791734948456287,0.01220732867415063,0.019325702462124172
1783169557482680600,0.8746806640625,0.0018342296898365019,-0.01400633178697899,0.03612500085232313
1783169557492750600,0.88475048828125,0.0036298809349536894,0.02098089720706921,0.036425449670199304
1783169557502819600,0.894819580078125,-0.014027356308698653,-0.005862028467771597,0.030666050459840333
1783169557512888600,0.904888671875,-0.013429390415549277,-0.011775567927071824,0.028880244755302553
1783169557522958800,0.914958740234375,-0.018964228188991544,0.0026491445356048643,0.00646921313877101
1783169557533027600,0.925027587890625,-0.010434884774684905,0.0046545569407287985,0.002112973565980792
1783169557543096600,0.9350966796875,-0.023454525345563887,0.009581514781783334,0.005273303043714259
1783169557553166600,0.94516650390625,-0.0004091653227806091,0.0024266791576519607,-0.015726851419673765
1783169557563235800,0.95523583984375,-0.02479951021373272,0.02086859137243591,0.00519453643579036
1783169557573304600,0.9653046875,0.014105097720026969,0.015374811695166862,0.0032757953838328828
1783169557583374800,0.975374755859375,0.005277063620090484,0.00515734623055905,0.01215417257316294
1783169557593444400,0.9854443359375,-0.008938508737087248,0.004075227249390446,-0.026317335464735515
1783169557603513300,0.995513427734375,-0.008190320718288421,0.004215046712034382,-0.019459149266197344
1783169557613583400,1.005583251953125,0.002433364626765251,0.0038610410760156807,-0.009485870104294735
1783169557623652000,1.015652099609375,-0.009836918881535529,0.00892579995256383,0.011274681758316
1783169557633721300,1.025721435546875,-0.016719079610705373,0.013266363607253879,0.02649719239353435
1783169557643791000,1.035791015625,-0.018813421541452408,0.012774127677478826,0.009980305982666322
1783169557653860400,1.0458603515625,-0.010582768812775612,-0.010512260859832166,0.03362690270956373
1783169557663929300,1.055929443359375,-0.01537117213308811,-0.00039285807537380604,0.02649768330059014
1783169557673999400,1.065999267578125,-0.022255670949816703,-0.005396803842508234,-0.002507477892457973
1783169557684068000,1.076068115234375,-0.025248423025012016,0.0103299585289089,0.020795663133542985
1783169557694137300,1.086137451171875,-0.002802197939157486,0.007112494319747201,0.018286177088733528
1783169557704207000,1.09620703125,-0.004447627058625221,-0.0038789283591555428,0.021081699833576568
1783169557714276400,1.1062763671875,-0.020309797579050062,0.010813298766175284,-0.007338469112326856
1783169557724345000,1.116344970703125,-0.0083393738001585,0.00055088904814329,0.004934128509002039
1783169557734415400,1.126415283203125,-0.017915595918893815,0.0060251466076122594,0.003155523155163973
1783169557744484000,1.136484130859375,-0.003999298769235611,0.001989502449939027,-0.009275203620345564
1783169557754553300,1.14655322265625,-0.006993219888210296,0.016390021186275406,0.004888116818142589
1783169557764623000,1.156623046875,-0.015372341176867484,0.009012112829415128,0.013835714185627875
1783169557774692400,1.1666923828125,-0.002354454171657562,0.00025354093622881915,-0.003663252339948667
1783169557784761000,1.176760986328125,-0.007591185781359672,0.025308455249713733,-0.003848901972005842
1783169557794831400,1.186831298828125,-0.02943886045217514,0.02151068410167936,-0.01968193430455867
1783169557804900000,1.196900146484375,-0.0011567688196897506,0.008896916351374238,-0.006798491900553927
1783169557814969300,1.20696923828125,-0.002055178964138031,0.013835623995726928,-0.019555784890952055
1783169557825039400,1.217039306640625,-0.01447451555430889,0.0027412889316212386,-0.018447008515009654
1783169557835108400,1.2271083984375,-0.004447627058625221,0.010689065031730569,0.00995128424251452
1783169557845177000,1.237177001953125,-0.022104279780387877,0.0026904629266820846,0.017057070260262115
1783169557855247400,1.247247314453125,-0.015670447340607643,0.015951999661768787,0.015643494259956058
1783169557865316000,1.257316162109375,-0.008187982630729675,0.004386393824103288,0.010004446051723789
1783169557875385300,1.26738525390625,-0.007290157008171081,-0.011183246323419735,0.01240014554922236
1783169557885455400,1.277455322265625,-0.018662614893913267,-0.0032394340123748405,0.02446497189658694
1783169557895524400,1.2875244140625,-0.009833996272087097,0.0012379488636972383,0.01912858387127053
1783169557905593000,1.297593017578125,-0.024498481440544128,0.005185343915759586,0.02202241018321365
1783169557915663400,1.307663330078125,-0.01836450873017311,0.008396282486012204,0.020335452610114588
1783169557925732400,1.317732421875,-0.0007084405303001403,-0.0027078250534366814,0.00041604372978326865
1783169557935801300,1.32780126953125,-0.0083393738001585,0.010709103172761388,-0.0004348066541133448
1783169557945871400,1.337871337890625,0.011263736814260482,0.00848637192226015,0.005646270250173984
1783169557955940400,1.3479404296875,-0.00220423204600811,0.014575098985107615,0.0026717662177223244
1783169557966009300,1.35800927734375,-0.0038502456873655317,0.02428700781406369,-0.0008822056450298987
1783169557976079000,1.3680791015625,-0.00025952771902084347,0.02487440208084881,-0.005460070345556596
1783169557986148400,1.3781484375,-0.007292495095729827,0.02829158098003827,-0.01592882314051385
1783169557996217300,1.38821728515625,-0.00265431390106678,0.006533310758881271,0.004665951692644739
1783169558006287400,1.398287353515625,-0.006993219888210296,0.004467217675084248,0.00672513440339826
1783169558016356400,1.4083564453125,-0.011333294919133185,0.004847115804185159,0.0010610933178046252
1783169558026425300,1.41842529296875,-0.018067571610212326,0.005043090467434376,0.014190805525390896
1783169558036495000,1.4284951171875,-0.002056348007917404,0.014377471220889127,-0.0014310043424309697
1783169558046564400,1.438564453125,0.01350596278309822,0.007577303386479615,0.00707302196752862
1783169558056633300,1.44863330078125,-0.015824176597595215,0.006265156775410286,0.008336508272925857
1783169558066703400,1.458703369140625,-0.02600070269703865,-0.0057618012299994,0.010666208170884055
1783169558076772000,1.468772216796875,-0.014029694396257399,0.003267239901330322,0.014380640425509772
1783169558086841300,1.47884130859375,-0.020762802043557165,0.00782341906807851,0.010711474368005292
1783169558096911000,1.4889111328125,-0.011036942321062088,0.020987550710141658,0.019089459720568264
1783169558106980400,1.49898046875,-0.017023615515232085,0.016816091978084296,0.008460233975650044
1783169558117049300,1.50904931640625,-0.005800795233249664,0.012766136167268268,0.016991005586995744
1783169558127119400,1.519119384765625,-0.021812018835544584,0.004060719233425334,0.0037315831771818917
1783169558137188000,1.52918798828125,-0.017922025659680367,0.007240573112247511,-0.002149531300261151
1783169558147257300,1.53925732421875,-0.014181085565686225,-0.0012084807406179607,-0.011125266775197814
1783169558157327000,1.5493271484375,0.00048281508088111874,-0.0079011513462523,0.002868847134313546
1783169558167396400,1.559396240234375,0.004673252508044242,-0.00014347272445447743,-0.0037548350469616704
1783169558177465000,1.569465087890625,-0.01747252832651138,0.027781183772487564,0.004157910838961834
1783169558187535400,1.579535400390625,-0.010140870264172553,0.007052224633027799,-0.0029945022159314247
1783169558197604000,1.58960400390625,-0.017922025659680367,0.008117346813622861,-0.009228004619397687
1783169558207673300,1.59967333984375,-0.013881810358166694,0.002558214849140495,0.012088087350298883
1783169558217743000,1.6097431640625,-0.008794131830334662,0.0005457607818767428,0.0037302474533324127
1783169558227812400,1.619812255859375,-0.017771803534030912,0.0125511691091815,0.01095069451793679
1783169558237881000,1.629881103515625,-0.01103811136484146,0.01133453702814877,0.0031442768170090855
1783169558247951400,1.639951416015625,-0.014629998376965521,-0.001312977728131227,-0.00761944604475284
1783169558258020000,1.65002001953125,-0.016126958936452863,-0.006638209605193696,-0.00040150488942163065
1783169558268089300,1.66008935546875,-0.017623919495940207,-0.0033968165311729533,0.015173819505149731
1783169558278159400,1.670159423828125,-0.017623919495940207,-0.0008755133260507136,0.026319148395908994
1783169558288228400,1.680228271484375,-0.010891396370530129,0.011891869516810401,0.025871096384443806
1783169558298297000,1.690297119140625,-0.009694295540452003,0.013364764214120804,0.013150687638600356
1783169558308367400,1.700367431640625,-0.00011748889982700347,0.00017651647753082214,-0.010755159387749154
1783169558318436400,1.710436279296875,-0.01627835010588169,0.003934261575853452,0.009939174821256893
1783169558328505300,1.72050537109375,-0.010891980892419814,0.004796518128109164,-0.005470418209634954
1783169558338575400,1.730575439453125,-0.020767478218674657,-0.01404823926652316,0.001312956036889227
1783169558348644400,1.740644287109375,-0.008348726150393485,0.0029042335415259,-0.002177328056062106
1783169558358713000,1.750713134765625,0.0003302548676729202,-0.002682914374466054,-0.0027136931052198633
1783169558368783400,1.760783447265625,-0.013735679885745047,0.012849151975335553,0.016270879185479134
1783169558378852400,1.770852294921875,-0.023762568381428716,0.007162041683052666,-0.008619027566822477
1783169558388921300,1.78092138671875,-0.022715105155110358,-0.00658357050823979,0.008345212169189471
1783169558398990000,1.790989990234375,-0.002963525980710983,-0.009508910769876092,0.008652682099607772
1783169558409060400,1.801060302734375,-0.011343231791257858,0.009495695095276459,0.012290537420107283
1783169558419129300,1.81112939453125,-0.024211481192708013,0.0076013372826157135,0.0045968582370085635
1783169558429198300,1.8211982421875,-0.008949030131101607,0.005764404179039411,0.021187664975679945
1783169558439268400,1.831268310546875,0.003919219270348549,-0.002784972809720784,0.011009541715838712
1783169558449337300,1.84133740234375,-0.0028138883769512177,-0.002586637226026505,0.016225598146981792
1783169558459406300,1.85140625,-0.025708441752195357,0.013181763196876271,0.00033638892258168197
1783169558469476000,1.86147607421875,-0.015233809489011764,0.004210452735307626,0.013236666013667126
1783169558479545300,1.87154541015625,-0.014634090030193328,0.0038792251866776495,0.008630277329910313
1783169558489614300,1.8816142578125,-0.002513444125652313,0.006869018119806424,0.002559317677549552
1783169558499684400,1.891684326171875,-0.012390695017576217,-0.0012074121615383772,0.013829525331791956
1783169558509753300,1.90175341796875,-0.015382862570881842,-0.004461185226519592,0.009792827436415245
1783169558519822300,1.911822265625,-0.01987199068367481,0.00888555927372072,-0.01680630466136499
1783169558529892000,1.92189208984375,-0.004458732974529266,0.006115025981306098,-0.0021603049976693
1783169558539961300,1.93196142578125,-0.0034101007044315336,-0.005434194977139122,-0.012737263982521835
1783169558550030300,1.9420302734375,-0.0035603228300809856,0.0027436909512616693,0.003545106994640082
1783169558560100400,1.952100341796875,-0.026156185519695282,0.0055512911513214925,-0.004620448033505818
1783169558570169000,1.962169189453125,-0.007002572238445281,-0.0003876932764891535,0.008392486518662189
1783169558580238300,1.97223828125,-0.005655833804607391,0.021619966862164438,-0.00278950970423175
1783169558590308000,1.98230810546875,-0.01837444560229778,0.0021756270060315727,-0.0031697948507557155
1783169558600377300,1.99237744140625,-0.016727262917160986,0.011925411026808433,-0.00723594260290265
1783169558610446300,2.0024462890625,-0.0031090719312429427,0.0023247714194469154,0.004307482227351283
1783169558620516400,2.012516357421875,0.012155132696032524,0.0034059268528129905,0.019375562635972163
1783169558630585000,2.022585205078125,-0.011337386572360992,0.005756924125482328,0.0017117472377722151
1783169558640654300,2.032654296875,-0.004005143988132477,0.006940256725111976,0.0119911354900687
1783169558650724400,2.042724365234375,-0.024505495703220366,0.0012820026345551014,0.015794130802492146
1783169558660793300,2.05279345703125,-0.02974339635670185,0.007675156004074961,0.016970624952670186
1783169558670862000,2.062862060546875,-0.0031079028874635693,0.005861891470453701,0.026104080873122437
1783169558680932400,2.072932373046875,-0.008944353955984115,0.005826573561900295,0.012498074656986864
1783169558691001300,2.08300146484375,0.0018295535147190092,0.009347527929395437,0.019621043563331476
1783169558701070300,2.0930703125,-0.02256196042001247,0.015227690275479107,0.01574391900219489
1783169558711140400,2.103140380859375,-0.004306172761321067,0.008508711618231609,0.005218693629512563
1783169558721209300,2.113209228515625,-0.00445464132130146,0.02305674906647764,-0.007270928292960161
1783169558731278300,2.1232783203125,-0.006699789899587631,-0.004071701851743274,0.009482892695919145
1783169558741348400,2.133348388671875,-0.014032617005705832,0.0077864982909057285,0.0037201142183854244
1783169558751417300,2.143417236328125,-0.005353635987639427,0.012584742585220373,0.0006236334823013749
1783169558761486300,2.153486328125,-0.011935936987400054,0.009659936613123863,-0.006071386627334868
1783169558771556400,2.163556396484375,-0.00774549956023693,0.0132795062166173,0.0014816396927693858
1783169558781625300,2.173625244140625,-0.0014613047242164612,0.0024387029555859043,-0.009650681302655721
1783169558791694300,2.1836943359375,-0.0017611644536256789,-0.010261487269424833,0.01733173618291039
1783169558801764400,2.193764404296875,-0.014930442628264427,0.001668120441888459,-0.009211199615069198
1783169558811833300,2.203833251953125,-0.020317980885505675,0.012063874216005206,-0.008882313578930916
1783169558821902300,2.21390234375,-0.028399580532312393,-0.0025621969045139846,0.018413892838341415
1783169558831972400,2.223972412109375,0.00556874004304409,-0.01229958266802132,0.0013628732929530088
1783169558842041300,2.234041259765625,-0.01837327655851841,-0.002226877702656202,0.006451116934721357
1783169558852110300,2.2441103515625,-0.0013140052080154417,0.007574444709112867,0.007774919734254945
1783169558862180400,2.254180419921875,-0.0053548050314188,-0.01162179300431162,0.011667253280966542
1783169558872249300,2.264249267578125,-0.012986907345056533,0.0002602994705783203,-0.006113743914739461
1783169558882318300,2.274318359375,-0.0017635025411844253,0.0017234764914726838,0.009721037416905165
1783169558892388400,2.284388427734375,-0.0002665419816970825,0.0009261840673629194,-0.004419713855104055
1783169558902457300,2.294457275390625,-0.019569792866706848,0.0060996959814336145,0.010174149195977951
1783169558912526300,2.3045263671875,-0.0028097967237234113,0.004087794470018707,0.01284279301649658
1783169558922596000,2.31459619140625,0.001979191118478775,0.01043308097666595,-0.0012783767722081391
1783169558932665300,2.324665283203125,0.0006336217284202575,-0.001703164355806075,0.006110420588136185
1783169558942734300,2.334734375,-0.01103811136484146,0.007983938825456425,0.007300284534896491
1783169558952804400,2.344804443359375,-0.018221300867199898,0.011491631852579303,-0.0012848647368547972
1783169558962873300,2.354873291015625,-0.014629998376965521,0.0035707528925500807,0.02447674909934867
1783169558972942300,2.3649423828125,-0.009541150805354118,-0.009108618306717834,0.012174071433587232
1783169558983012000,2.37501220703125,-0.0011614449948072433,0.01641305500199087,-0.00573740429097088
1783169558993081300,2.385081298828125,-0.012831424522399902,0.00793393023784738,-0.0006272353701177053
1783169559003150300,2.395150390625,-0.015374094742536544,0.010470289448206313,0.005976940676377853
1783169559013220400,2.405220458984375,-0.02300561253428459,0.007723511490714736,0.002413230587611906
1783169559023289000,2.4152890625,-0.02435293549001217,-0.005956319155101664,0.017142878530325832
1783169559033358300,2.4253583984375,-0.015225626182556152,0.004953923479793593,0.004929029925487703
1783169559043428400,2.435428466796875,-0.013579028019309044,0.0046278972626663745,0.0007258677307807374
1783169559053497300,2.445497314453125,0.0021340894192457198,-0.002769912237906828,0.02057464764387114
1783169559063566000,2.455566162109375,-0.01223112054169178,0.0033104853880126027,0.002413619888323592
1783169559073636400,2.46563623046875,-0.013428805893659591,0.003509825618704781,-0.006261164445237955
1783169559083705300,2.475705322265625,0.0019844518154859543,0.0004255821680417284,-0.0004934106817760039
1783169559093774300,2.4857744140625,-0.00639525399506092,-0.00242679332208354,-0.007401231008587638
1783169559103843300,2.49584326171875,-0.014177578434348106,-0.0013448752703145146,0.0033588716990489045
1783169559113913300,2.505913330078125,-0.013728081101179122,0.005432108051329851,0.0025762596791959365
1783169559123982300,2.515982421875,-0.01402794083058834,0.004060015980526805,0.026523879471060354
1783169559134052400,2.52605224609375,-0.021660627666115758,0.013035988917481154,0.015600521626265252
1783169559144121300,2.536121337890625,-0.027197219005227088,0.011473004783922805,0.00869834444730659
1783169559154190300,2.5461904296875,-0.012533318358659744,0.007506676702527329,-0.0029941448812605812
1783169559164260400,2.55626025390625,-0.013132453295588492,0.01452516346273478,0.0015342455211968626
1783169559174329300,2.566329345703125,-0.00011398176848888397,0.006086092147766612,-0.010608233189239398
1783169559184398300,2.5763984375,0.002280219891667366,-0.014582948931423015,0.004718715067987796
1783169559194467300,2.58646728515625,-0.014927520018815994,0.026234237458277493,-0.0017022750148840712
1783169559204537300,2.596537353515625,-0.006397592082619667,0.018467087755235843,0.00478081937712268
1783169559214606300,2.6066064453125,-0.010586860466003418,-0.004967394882719963,0.009444266302138566
1783169559224675300,2.61667529296875,-0.019116203880310056,0.0063911212426377454,0.009159922660625307
1783169559234745300,2.626745361328125,-0.03407996425628662,0.004626600354723632,0.011827097184909508
1783169559244814300,2.636814453125,-0.0028057050704956054,0.0018692188048269598,0.02049297669280786
1783169559254883300,2.64688330078125,-0.018817513194680214,0.011402720593265258,0.019284477685880846
1783169559264953300,2.656953369140625,0.0003355155646800995,0.006878452668432146,0.025888721089391036
1783169559275022300,2.667022216796875,0.0021305822879076003,0.0020359993396326897,0.0004911262515000999
1783169559285091300,2.67709130859375,-0.005500935503840446,0.01889374763551168,-0.012381277593615231
1783169559295161300,2.687161376953125,-0.012384849798679352,0.002684928235039115,0.0006734194492688402
1783169559305230300,2.697230224609375,-0.019417817175388336,0.00598400174647104,-0.0008635043694928754
1783169559315299300,2.70729931640625,0.0003349310427904129,-0.0011735053253592923,0.015042278105439618
1783169559325369300,2.717369384765625,-0.004902385088801383,0.005086303988075815,0.011907696131960256
1783169559335438300,2.727438232421875,-0.01672317126393318,0.0029719513157615437,0.0170464506848366
1783169559345507300,2.73750732421875,-0.020163667106628418,0.018558451266540214,0.01833611375275068
1783169559355577300,2.747577392578125,-0.021060908207297325,0.0068293299968121566,0.003622286716965027
1783169559365646300,2.757646240234375,-0.02958966709971428,0.009609247605502604,-0.005019345407310175
1783169559375715300,2.76771533203125,-0.002954173630475998,0.027157192955515348,0.014034493868960999
1783169559385785300,2.777785400390625,-0.02121054581105709,0.013340118396631441,0.004517742285924032
1783169559395854300,2.787854248046875,-0.01492459740936756,0.00820428074498195,-0.003627522297797259
1783169559405923300,2.79792333984375,-0.011184241837263107,0.008621729838917963,-0.005195893850881839
1783169559415993000,2.8079931640625,-0.023903438156843183,0.006925894839619286,0.007810246775962877
1783169559426062300,2.818062255859375,-0.010735913547873496,-0.005255107516609132,0.020173868840234352
1783169559436131300,2.82813134765625,-0.017170915031433105,0.014031502760853617,0.005402363650326151
1783169559446201300,2.838201416015625,-0.009838087925314903,-0.00381080872612074,0.002516033374960534
1783169559456270300,2.848270263671875,-0.012232874107360838,-0.004803486725012771,0.0002841438537579961
1783169559466339300,2.85833935546875,-0.0019084639698266981,0.0031070763369789346,0.0007275744890328496
1783169559476409000,2.8684091796875,-0.012532733836770057,0.009707543181092479,0.010532304709084565
1783169559486478300,2.878478271484375,-0.02076338656544685,0.007696390588348731,0.00666133817738737
1783169559496547300,2.88854736328125,-0.008493687579035758,0.00956455908040516,0.0033677320005837826
1783169559506617300,2.898617431640625,-0.012982815691828726,-0.0026350383784389123,-0.006092678293824428
1783169559516686000,2.90868603515625,-0.00819382784962654,-0.0006154878501081839,-0.013791365870536537
1783169559526755300,2.91875537109375,-0.03228606657683849,-0.003671701649529859,0.0028213695721526163
1783169559536825300,2.928825439453125,-0.020613748961687085,0.011915930812410078,0.013340990612888707
1783169559546894300,2.938894287109375,-0.020014614024758338,0.012014304019813425,0.012914826206245924
1783169559556963300,2.94896337890625,-0.013729250144958495,-0.004419825736247003,0.008967617242207052
1783169559567033300,2.959033447265625,-0.029441198539733884,0.004579080551723018,0.020789256225642747
1783169559577102300,2.969102294921875,-0.002506429862976074,0.007247596508078277,-0.0017775527577789034
1783169559587171300,2.97917138671875,-0.013130699729919433,0.015702568645076825,0.0113773235738161
1783169559597240800,2.98924072265625,0.0004857376903295517,0.007245897741336375,0.022960407985956405
1783169559607309800,2.999309814453125,-0.01268120239675045,0.00453894490415696,0.007331162588705774
1783169559617379000,3.009379150390625,-0.01791734948456287,0.0033166137346997853,0.015051325636642285
1783169559627448800,3.01944873046875,0.00587502951323986,-0.0041214273115620014,0.015221146370260976
1783169559637517800,3.029517822265625,-0.01298047760426998,0.012625992477638646,0.01193470058660605
1783169559647586800,3.0395869140625,-0.005049100083112716,0.018915690039261242,0.0037877497942303304
1783169559657656800,3.04965673828125,-0.0002601122409105301,-0.0002432433045003563,0.005713837327359942
1783169559667725800,3.059725830078125,0.002433364626765251,0.0032086370153119785,0.007349465430376585
1783169559677794800,3.069794921875,-0.012978139516711234,0.0151679914109176,0.006003447374101961
1783169559687864800,3.07986474609375,-0.018515315377712248,0.014373680961760692,0.015399084194964961
1783169559697933800,3.089933837890625,-0.025099369943141936,0.012290312516177073,0.0017374353765218984
1783169559708002800,3.1000029296875,-0.012230536019802092,0.001381869112723507,0.01133864352275268
1783169559718072800,3.11007275390625,-0.005347790768742561,0.017341376227512955,0.014714566821302287
1783169559728141800,3.120141845703125,0.0003378536522388458,0.01514987579891458,0.005942480142705608
1783169559738210800,3.1302109375,-0.002206570133566856,0.007266438205866143,0.010113924033386864
1783169559748281000,3.140281005859375,-0.020164251628518103,0.0035303660832345482,0.00861660613922868
1783169559758349800,3.150349853515625,-0.023754969596862793,0.016169332206877877,0.01104848320345045
1783169559768418800,3.160418701171875,0.0007850128978490829,0.004255428954772651,-0.0023858528152748476
1783169559778488800,3.17048876953125,-0.015377017351984977,-0.0023324432692490515,0.01837898135516443
1783169559788558000,3.18055810546875,0.01215747078359127,0.0015168525700457393,0.013404116693686227
1783169559798626800,3.190626708984375,0.001533200916647911,0.012444133104709907,0.019216572681977413
1783169559808697000,3.200697021484375,-0.017620412364602087,0.006305511618684977,0.014450195105449528
1783169559818765800,3.210765869140625,-0.010138532176613807,0.005529517710930668,0.004025033715402242
1783169559828835000,3.2208349609375,-0.011035773277282715,0.0020357618776150046,0.01180382590717636
1783169559838904800,3.23090478515625,-0.01597381420135498,-0.002759888600814156,-0.0004605553000117652
1783169559848974000,3.24097412109375,-0.015077157622575759,0.005890149450558237,-0.0002023998374585062
1783169559859042800,3.251042724609375,-0.010587444987893104,0.009423018018133007,0.02218655580293853
1783169559869111800,3.26111181640625,-0.014776713371276855,0.002133422698965296,0.016497690803342267
1783169559879181800,3.271181884765625,-0.005050853648781776,0.008723285950673744,0.007697039042320102
1783169559889251000,3.2812509765625,-0.0041524435043334956,0.012323429334489627,-0.008158868417388294
1783169559899319800,3.29131982421875,0.010959785431623459,0.014422534205322152,0.016192448220984076
1783169559909390000,3.30139013671875,-0.010587444987893104,-0.0033456982652889564,0.023893316338339354
1783169559919458800,3.311458740234375,-0.021211130332946776,0.005406338855833746,-0.0009387878206092864
1783169559929528000,3.321528076171875,-0.020162498062849043,0.015736699243541805,-0.0008469071444298606
1783169559939597800,3.331597900390625,-0.013727496579289436,0.011081544081191531,-0.00598899073213106
1783169559949667000,3.3416669921875,-0.008339958322048186,0.011315882560028695,0.011775698074523824
1783169559959735800,3.35173583984375,-0.005347206246852874,-0.001095878078462556,0.009545535861171083
1783169559969806000,3.36180615234375,-0.027494156125187873,0.016989402718376366,0.010902236283308593
1783169559979874800,3.371874755859375,-0.024801263779401776,0.0029563975536031645,0.021743182249879464
1783169559989944000,3.381944091796875,-0.007593523868918419,0.0014363986118230967,0.007673797447339165
1783169560000013800,3.392013916015625,-0.01582300755381584,0.0058043023645877835,-0.0016956237951002548
1783169560010083000,3.4020830078125,-0.017918518528342246,-0.0017716675813309846,0.01765356000731117
1783169560020151800,3.41215185546875,-0.02959083614349365,0.010770820464473217,0.0031313750945962966
1783169560030221800,3.422221923828125,-0.02106149272918701,0.00399875077996403,0.013674169231654376
1783169560040290800,3.432290771484375,-0.010287585258483885,0.0030481948897475375,0.0041141447624715504
1783169560050360000,3.442360107421875,-0.013580781584978103,0.0023194970227079464,0.009251853569154627
1783169560060429800,3.452429931640625,-0.005649988585710525,-0.0031672820916166526,0.0002871726361277979
1783169560070498800,3.462498779296875,-0.018517653465270994,0.006679025672771967,0.00679093421518337
1783169560080567800,3.47256787109375,-0.01387888774871826,0.02300942105972208,0.02370486282784259
1783169560090637800,3.482637939453125,-0.014776128849387168,0.018555501257628202,0.0019371774660132358
1783169560100706800,3.492706787109375,-0.015823592075705526,0.008986010273778811,-0.012613860223494703
1783169560110776000,3.502776123046875,-0.00460018727183342,-0.00794973059517797,-0.0014067969163588713
1783169560120845800,3.512845703125,-0.025699089401960373,0.008717965888162142,-0.0009210284016327932
1783169560130914800,3.522914794921875,-0.024502573093771934,-0.0012204543062020092,0.0008389510251930914
1783169560140983800,3.53298388671875,-0.01357785897552967,0.0038720145611790937,-0.010538551786780589
1783169560151053800,3.5430537109375,-0.013727496579289436,0.005070343800541013,0.009684448858228278
1783169560161122800,3.553122802734375,-0.013277414724230765,0.0014283157700672746,0.01506231510482612
1783169560171191800,3.56319189453125,-0.014772621718049049,-0.004518664734531194,0.006761970698891673
1783169560181261800,3.57326171875,-0.007890460988879203,-0.00029814726293552667,0.022045389200001955
1783169560191330800,3.583330810546875,-0.00818856715261936,0.0003861817394150421,-0.00572700276960968
1783169560201399800,3.59339990234375,-0.033627544313669204,0.006309333843854256,0.00180857922534924
1783169560211469800,3.6034697265625,-0.009236614900827408,0.002590176323405467,0.012860076369793387
1783169560221538800,3.613538818359375,-0.012827917391061781,-0.002396247486770153,0.006819422807439695
1783169560231607800,3.62360791015625,0.002286649632453918,0.015090478328452445,0.003439060795790283
1783169560241678000,3.633677978515625,-0.009833996272087097,-0.004923373077902943,0.020349259656469804
1783169560251746800,3.643746826171875,-0.017613982623815534,0.01646000854941085,0.0002896511459373869
1783169560261815800,3.65381591796875,-0.013722820404171943,0.00008123484293464571,0.004080745958012994
1783169560271885800,3.6638857421875,-0.010431377643346786,0.0009280152648454531,-0.0005018485749140382
1783169560281955000,3.673955078125,-0.0019026187509298324,0.011014328630454838,0.009827253720758017
1783169560292023800,3.68402392578125,-0.015519640693068503,0.00933478261225391,0.014031731089716776
1783169560302094000,3.694093994140625,-0.01177753155529499,0.014027721634879708,0.0037600363784644287
1783169560312162800,3.704162841796875,-0.015519640693068503,0.0187471376724774,0.00800412994682556
1783169560322232000,3.714232177734375,-0.00025777415335178375,0.017747838136553763,-0.0006966051036783028
1783169560332301800,3.7243017578125,-0.00175415019094944,0.0044204056915594266,0.003715894700994249
1783169560342371000,3.73437109375,-0.014772621718049049,0.010237745634233578,0.0018999689944728742
1783169560352439800,3.744439697265625,-0.011480594435334205,0.01874189067520201,0.00570452493467601
1783169560362510000,3.754510009765625,-0.012528057661652565,0.0006163874658290297,0.015086795383889693
1783169560372578800,3.764578857421875,-0.005644143366813659,-0.00657612242072355,-0.0027179765546927227
1783169560382648000,3.77464794921875,-0.00848667331635952,0.010739279115316457,0.002215642780944472
1783169560392717800,3.7847177734375,-0.020008184283971785,-0.0002300230633234605,-0.016999856755376092
1783169560402787000,3.794787109375,-0.014921674799919127,0.014395011444156988,-0.0042012613569211675
1783169560412855800,3.804855712890625,-0.004446458014845848,-0.0001634971657535061,-0.003475200688251061
1783169560422925800,3.81492578125,-0.0111801501840353,0.015586002193856984,0.006900800355913815
1783169560432994800,3.824994873046875,-0.006391746863722801,0.0032699478816473854,0.0028348626663209867
1783169560443064000,3.83506396484375,-0.01641688179373741,0.004230203181970865,-0.00022433196640922687
1783169560453133800,3.8451337890625,-0.01267594169974327,0.005931865133857355,0.006002435877238167
1783169560463203000,3.855203125,-0.021055062988400458,0.003615048692002892,0.0012159436695103067
1783169560473271800,3.865271728515625,-0.005342530071735381,-0.002256775083998218,-0.007614581498323241
1783169560483341800,3.875341796875,-0.009682020580768584,0.0034457656728569415,-0.007218807663366897
1783169560493410800,3.885410888671875,-0.015068974316120146,0.011676751761673949,-0.006216479345073457
1783169560503480000,3.89547998046875,-0.013273323071002959,0.013489093846688047,0.0017170136430009733
1783169560513549800,3.9055498046875,-0.008633972832560538,0.01576325845690444,0.006105780945636797
1783169560523618800,3.915618896484375,-0.008185644543170929,0.01215419198111631,0.005889677951455815
1783169560533687800,3.925687744140625,-0.005941080486774444,0.0036894199693109837,0.00914759290201473
1783169560543757800,3.9357578125,0.0039344168394804,0.005601212973962538,0.00338685568451765
1783169560553826800,3.945826904296875,-0.017314122894406318,0.0019965806446969507,0.004807926579756895
1783169560563896000,3.95589599609375,-0.008036591461300849,-0.002038232395914383,-0.007985351039475062
1783169560573964800,3.96596484375,-0.018809914410114287,0.003258476639562286,0.0031816405521763952
1783169560584034800,3.976034912109375,0.000043839141726493834,-0.0019697291703894733,-0.009758669438486686
1783169560594103800,3.986103759765625,-0.02659282337129116,-0.004390983234252781,-0.0005399669369740877
1783169560604173000,3.996173095703125,0.0046808512926101685,0.0037795002724044023,0.0008233219145098701
1783169560614242800,4.006242919921875,-0.00833762023448944,0.00014449107118416578,-0.00599302416149876
1783169560624311800,4.016311767578125,-0.012078560328483581,0.016921657544677143,0.0073310849568923
1783169560634380800,4.026380859375,-0.01566927829682827,0.011019274233630858,0.005262827315472532
1783169560644450800,4.036450927734375,-0.014171733215451239,-0.0027788946953834965,-0.007125177988095675
1783169560654519800,4.046519775390625,0.002587678405642509,0.010876253600325434,0.013757743303792085
1783169560664589000,4.056589111328125,-0.011478840869665146,0.00483961291774176,0.006823444820364238
1783169560674658800,4.066658935546875,-0.027639117553830146,0.014642022174899466,0.01499557914470206
1783169560684727800,4.076727783203125,-0.003846738556027412,0.0055199370318325235,0.004642397287121275
1783169560694796800,4.086796875,-0.012525135052204131,0.018452935932297257,-0.011993045461009023
1783169560704866800,4.09686669921875,-0.0008545710027217865,0.006792765412665903,-0.004679453919967636
1783169560714935800,4.106935791015625,-0.00923427681326866,0.012141766324383206,0.02242160210125148
1783169560725004800,4.1170048828125,0.0018400749087333678,0.0026353352059610186,0.026860004673805088
1783169560735075000,4.127074951171875,-0.00010462941825389861,-0.0017980395650258286,-0.0026830730630259493
1783169560745143800,4.137143798828125,-0.012673603612184524,-0.0035083780137123537,0.012264093512820545
1783169560755212800,4.147212890625,-0.007435118436813354,0.013552719967695883,0.009882617761852452
1783169560765282800,4.15728271484375,-0.00788403124809265,0.011932598819420673,0.004063217151188291
1783169560775352000,4.16735205078125,-0.006088380002975464,0.028253619023249483,0.006024246991891413
1783169560785420800,4.1774208984375,-0.004592003965377807,0.016322979265474713,-0.004794694922136841
1783169560795491000,4.187490966796875,-0.005938742399215698,0.007912257262156344,0.015424090772058115
1783169560805559800,4.197559814453125,-0.012523381486535071,0.004510851320833899,-0.002186500026495196
1783169560815629000,4.207629150390625,-0.01551671808362007,-0.0024394381745252757,0.012294766070652986
1783169560825698800,4.21769873046875,-0.01731178480684757,0.014664174641203134,0.026265148619771934
1783169560835768000,4.22776806640625,-0.025241993284225463,-0.0027290459379786624,0.007843545115721644
1783169560845836800,4.2378369140625,-0.0150666362285614,0.009099023927887901,0.003451618883264018
1783169560855907000,4.247906982421875,-0.02569090609550476,-0.0001697259771404788,-0.00014301492508384398
1783169560865975800,4.257975830078125,-0.006688099461793899,-0.012168649764731526,0.008053684159996919
1783169560876045000,4.268045166015625,-0.0170142631649971,0.005394949812139384,-0.011204902174446033
1783169560886114800,4.27811474609375,-0.0122258598446846,0.02140057479070965,-0.003807975164928939
1783169560896184000,4.28818408203125,-0.0044447044491767885,0.012828415147983468,-0.0015331929251377004
1783169560906252800,4.298252685546875,-0.006091887134313583,0.001575880147749558,-0.017052616705786203
1783169560916323000,4.308322998046875,-0.017165069812536238,0.0026720002548070625,-0.0018155112896347417
1783169560926391800,4.318391845703125,-0.022103110736608506,0.01140246486493852,0.008698267957137431
1783169560936461000,4.3284609375,-0.01357435184419155,0.0009976510015316307,0.007677610539353918
1783169560946530800,4.33853076171875,-0.0004068272352218628,0.019497910374007187,0.0222608243322582
1783169560956600000,4.34860009765625,-0.010732406416535377,-0.0022476053968537597,0.004812802542629652
1783169560966668800,4.358668701171875,-0.007441548177599906,0.0019374343359842895,0.015137201263720635
1783169560976738800,4.36873876953125,-0.020458850660920142,0.003967373827588744,0.023836460168124175
1783169560986807800,4.378807861328125,-0.0045972646623849865,0.017925404926855116,0.006089867565518943
1783169560996877000,4.388876953125,0.004082300877571106,0.011532105426862836,0.016822462353366426
1783169561006946800,4.39894677734375,-0.015221534529328345,0.012416427680454216,0.012063047665520571
1783169561017015800,4.409015869140625,-0.017465514063835143,0.007675795324891805,0.0023672257466183506
1783169561027084800,4.419084716796875,-0.010881459498405455,0.0007893465796718373,0.002609373072575545
1783169561037154800,4.42915478515625,0.010815993046760558,-0.010901077514328061,0.011544100683688883
1783169561047223800,4.439223876953125,-0.011330372309684754,0.006473196335788816,0.005521007894200738
1783169561057293000,4.44929296875,0.0013894085317850112,0.002542679353291169,0.006492413634556578
1783169561067362800,4.45936279296875,-0.005793196448683738,0.005256956980400718,0.013162081248871981
1783169561077431800,4.469431884765625,-0.00010696750581264495,0.023586581626860424,0.006414951926085632
1783169561087500800,4.479500732421875,-0.005045592951774597,0.005827130684326403,0.006907554323686053
1783169561097570800,4.48957080078125,-0.00923603037893772,0.007272785748261958,-0.007343823424167931
1783169561107639800,4.499639892578125,-0.005344868159294128,0.006936320335511118,0.013514809384901308
1783169561117708800,4.509708740234375,-0.00654079994559288,0.011292118091951124,0.008759715820790734
1783169561127779000,4.519779052734375,-0.013424129718542099,0.003996746052545495,0.012801744053477886
1783169561137847800,4.529847900390625,-0.011626140385866164,0.008439633003971539,0.018019675064587497
1783169561147916800,4.539916748046875,-0.0005529577076435089,0.00025695673602167516,0.021385970876622012
1783169561157986800,4.54998681640625,-0.01866027680635452,0.017622540389606728,0.0009734104677743743
1783169561168056000,4.56005615234375,-0.012374328404664993,0.0026897779400926083,0.011172043367748847
1783169561178124800,4.570124755859375,-0.008334113103151321,0.0047580721141304815,0.007910056171915493
1783169561188195000,4.580195068359375,-0.004143675675988197,-0.008453200305020437,0.012670048531785142
1783169561198263800,4.590263916015625,-0.013121347379684447,-0.00599561911902856,0.007632915164390578
1783169561208332800,4.600332763671875,-0.00474222609102726,0.0027043909873347726,0.006914619960356503
1783169561218402800,4.61040283203125,-0.012373743882775306,-0.0021343405809951944,0.006766074910206953
1783169561228472000,4.62047216796875,-0.007137596794962882,-0.009168974758405238,0.0028323202244297132
1783169561238540800,4.630540771484375,-0.020603812089562416,0.007129906678851694,0.002209062343108235
1783169561248611000,4.640611083984375,-0.010576923593878745,0.006253644434129819,-0.0029507144481991415
1783169561258679800,4.6506796875,0.005434300008416175,0.006452715236763469,0.005662732761207735
1783169561268749000,4.6607490234375,0.006032850423455238,-0.002851393676013686,-0.006987460292637115
1783169561278818800,4.67081884765625,-0.0014478607207536697,0.007811294805444777,0.0019019326226960402
1783169561288888000,4.68088818359375,-0.007283727267384529,0.01677127558882348,0.003028103091433877
1783169561298956800,4.690956787109375,-0.012221183669567107,0.0028166420230409128,-0.0164103104890557
1783169561309026000,4.701026123046875,-0.02239654072523117,-0.0016394058040576055,0.003701335311034927
1783169561319095800,4.711095703125,-0.010424947902560234,0.014151466745557263,0.0011622658370702991
1783169561329165000,4.7211650390625,-0.0219464588701725,0.007751513742492533,0.01108603416828555
1783169561339233800,4.73123388671875,-0.017456746235489845,0.0056101360659347845,0.0006825594536610879
1783169561349304000,4.741303955078125,-0.020598551392555235,0.013214665386057457,0.01705395357128
1783169561359372800,4.751372802734375,-0.009674421796202658,0.01114185030052904,-0.0024845456830866167
1783169561369442000,4.761442138671875,-0.012368483185768126,-0.004806642229901626,-0.000535412917798385
1783169561379511800,4.77151171875,-0.007729132947325706,0.0017511408165330066,-0.006762499280209886
1783169561389581000,4.7815810546875,-0.009974281525611877,0.014203393295616842,0.0016447863737179432
1783169561399649800,4.79164990234375,-0.018055296650528907,0.008474818481784314,0.0031736079427704678
1783169561409720000,4.801719970703125,-0.013565584015846252,0.014479858449706806,0.009865769375039963
1783169561419788800,4.811788818359375,-0.011620295166969299,-0.0016585671622538938,0.017734260560706025
1783169561429858000,4.821858154296875,-0.013864274701476097,0.011792692591808736,0.02716652932272991
1783169561439927800,4.831927734375,-0.009075871381163596,0.010550031020375899,0.004233066425914876
1783169561449997000,4.8419970703125,-0.015062544575333594,-0.01338311728814151,0.00939403281059931
1783169561460065800,4.852065673828125,-0.006532616639137268,0.013861452556727454,0.0052304365829448215
1783169561470135800,4.8621357421875,-0.0012958850294351577,0.02264556531654671,0.011828761702321935
1783169561480204800,4.872204833984375,-0.002045242092013359,0.01038913223708514,0.012391362879500956
1783169561490274000,4.882274169921875,-0.021348492977023122,0.0003482243492035195,0.0032560129711288023
1783169561500343800,4.89234375,-0.01700900246798992,0.003949331280821934,0.012412320044205989
1783169561510413000,4.9024130859375,0.002593523624539375,0.0024052208110922945,0.0072327768232149535
1783169561520481800,4.912481689453125,-0.014765022933483123,0.013876622726395725,0.0037296629314427262
1783169561530551800,4.9225517578125,-0.013717559707164763,0.014349249773402697,0.0216856114103226
1783169561540620800,4.932620849609375,-0.009377484676241873,0.0038272255713818594,-0.002042617451731348
1783169561550690000,4.94268994140625,-0.008927987343072891,-0.0025771752779372033,-0.006985366516961949
1783169561560759800,4.952759765625,-0.009077624946832657,-0.0009091233347076922,-0.006616421323426766
1783169561570828800,4.962828857421875,-0.01775660596489906,-0.01293076127760578,0.011211396988958585
1783169561580897800,4.972897705078125,-0.007432780349254608,0.00881412430559285,0.014526090477919204
1783169561590967800,4.9829677734375,0.007529810982942581,0.0017648999138269571,0.015893692461628233
1783169561601036500,4.99303662109375,-0.02404430793225765,0.0035818222758360204,0.021586468734650404
1783169561611105800,5.003105712890625,-0.003992869028449059,-0.00571185657447204,-0.005180602666916093
1783169561621175600,5.013175537109375,0.001844166561961174,0.0047742149647558105,0.0068885676370700815
1783169561631244500,5.02324462890625,-0.011173720443248748,0.011043892651656641,0.007913584994495614
1783169561641313500,5.0333134765625,-0.00025017536878585813,0.012995469677424988,0.011405845273757586
1783169561651383600,5.043383544921875,0.0037894554108381267,0.021873032874357885,0.008578809720865683
1783169561661452500,5.05345263671875,0.0006464812099933624,0.00655438551295083,-0.0013549639811331871
1783169561671521500,5.063521484375,-0.011772855380177498,-0.001281294815079309,0.011047276485408656
1783169561681591800,5.073591796875,-0.007133505141735077,0.01724977982076816,0.0008318534224817995
1783169561691660500,5.08366064453125,-0.01386544374525547,0.009930072491127066,0.00957570723714889
1783169561701729500,5.0937294921875,-0.01775543692111969,0.00838915862548165,0.008479846283351071
1783169561711799600,5.103799560546875,-0.008926818299293518,0.020037519976310432,0.008359314901422476
1783169561721868800,5.113868896484375,-0.0002478372812271118,0.026091207691817542,0.009105678572604666
1783169561731937500,5.1239375,-0.007730301991105079,0.0016561971086543053,0.009878374269930646
1783169561742007800,5.1340078125,-0.0023427637338638303,0.010431669904291629,0.0108558455665363
1783169561752076500,5.14407666015625,-0.0086269585698843,0.008107318609952925,0.0032663151694345286
1783169561762145800,5.154145751953125,-0.013715221619606017,0.012865440956433303,0.008697110329801217
1783169561772215600,5.164215576171875,-0.00817863028049469,-0.0037735545888077466,0.01443104973027366
1783169561782284800,5.174284912109375,-0.01536123526096344,0.008281309770257211,0.006603518459369661
1783169561792353500,5.184353515625,-0.009227847072482108,0.016427152026002294,0.0035343253057217223
1783169561802423800,5.194423828125,-0.019853870505094528,-0.002338973474735394,0.004486081064114114
1783169561812492500,5.204492431640625,-0.004291559714078903,0.008680350991245358,0.00200243842168129
1783169561822561800,5.214561767578125,-0.012971125254034994,0.010078906377288512,0.00036781039908528326
1783169561832631600,5.224631591796875,-0.015366495957970619,0.006219006945588626,-0.009416185276902979
1783169561842700800,5.23470068359375,-0.019257658177614212,0.012117618263815529,0.012062756546220042
1783169561852769500,5.24476953125,-0.014319032731652259,0.009799276585155167,-0.007001504801010014
1783169561862839800,5.25483984375,-0.010130348870158195,0.009352167571894825,0.0071056752782489635
1783169561872908500,5.264908447265625,-0.005043839386105537,0.00706946346219629,-0.002639199671969982
1783169561882977800,5.274977783203125,-0.024347674793004988,0.0007592939347028732,-0.0005543025646475143
1783169561893046500,5.285046630859375,-0.0062421092599630355,0.008182415973045863,-0.008859459001373034
1783169561903116800,5.29511669921875,-0.012826163825392723,-0.00909555789574515,0.0024865264359745197
1783169561913185500,5.305185546875,-0.0035503859579563138,0.009314630306791513,-0.006366950349183753
1783169561923254800,5.3152548828125,-0.016868132692575453,0.009012546654255129,-0.008704509326611877
1783169561933324500,5.325324462890625,-0.0001087210714817047,0.016458117986423895,0.010436108617391436
1783169561943393800,5.335393798828125,0.0021346739411354063,0.003172547355201095,0.015117034116882132
1783169561953462500,5.345462646484375,-0.005346621724963188,-0.0006591945610940456,0.0073908374787366475
1783169561963532800,5.35553271484375,-0.018663783937692642,0.006032823023991659,0.010185146655671997
1783169561973601500,5.3656015625,0.003781272104382515,0.01795031103924848,0.008325029039330547
1783169561983670800,5.3756708984375,0.0006388824254274368,-0.004893827323010191,-0.00007942191176116467
1783169561993740500,5.385740478515625,-0.0083393738001585,0.008290442924783564,0.005593440659460611
1783169562003809800,5.395809814453125,-0.008788286611437797,0.001687583194184117,-0.009252632170577998
1783169562013878500,5.40587841796875,0.008570259946584701,-0.006412250795634463,0.005539580163930077
1783169562023948500,5.415948486328125,-0.007591185781359672,0.015755559207638725,0.008077663257205858
1783169562034017500,5.426017578125,-0.003852583774924278,0.017520057262666523,0.006755899434420279
1783169562044086800,5.436086669921875,-0.015225626182556152,0.0011429138242732733,0.0250230076381471
1783169562054156500,5.446156494140625,-0.0060977323532104485,-0.0010424902236787603,-0.0006092293559690006
1783169562064225800,5.456225830078125,-0.014177578434348106,0.007994652015715836,0.004170027110085356
1783169562074294500,5.46629443359375,0.000187047004699707,-0.008394570019538514,0.004518963845341932
1783169562084364500,5.476364501953125,-0.005648819541931152,0.004652533947001211,0.004314604946237523
1783169562094433500,5.48643359375,-0.018219547301530838,0.0069081582535291085,0.0009939863232779316
1783169562104502800,5.496502685546875,-0.006698036333918571,0.005535527326609007,0.0050377704049227754
1783169562114572500,5.506572509765625,-0.019417232653498647,0.011705219804332591,0.006101257750857621
1783169562124641500,5.5166416015625,-0.013282090899348259,-0.000267953054071404,0.01748891777230892
1783169562134710500,5.52671044921875,0.005721300256252289,0.011307128431415184,-0.002241072908078786
1783169562144780500,5.536780517578125,-0.026599837633967397,0.008686264708801171,0.009250387697853147
1783169562154849500,5.546849609375,-0.014179332000017164,-0.009844312170124611,-0.004475359882344492
1783169562164918800,5.556918701171875,-0.00984042601287365,0.0011804784888401628,-0.002540743124531582
1783169562174988800,5.56698876953125,-0.012384265276789664,0.015387246485054492,0.0026389861844829283
1783169562185057500,5.5770576171875,-0.013282090899348259,0.026230629862239584,-0.00029377248191740364
1783169562195126500,5.58712646484375,0.003028407910466194,0.014693807161063886,0.008969435881602112
1783169562205196500,5.597196533203125,-0.020165420672297478,-0.00013256773795001207,-0.004588209139672107
1783169562215265800,5.607265869140625,-0.01283317808806896,-0.0025541916945716367,0.009630030098627321
1783169562225334500,5.61733447265625,-0.011487024176120757,0.01861395801317412,0.011705886524613015
1783169562235404800,5.62740478515625,-0.009690203887224197,0.004683467941381968,0.006455338735401164
1783169562245473500,5.6374736328125,-0.02076338656544685,0.01683756402437575,-0.012318294218357185
1783169562255542800,5.647542724609375,-0.0002636193722486496,-0.004539396995306015,0.00796134568444686
1783169562265612500,5.657612548828125,-0.0031067338436841963,0.013161067468719556,0.007059675003832672
1783169562275681800,5.667681884765625,-0.0032557869255542752,0.00231513137484435,0.00022640861741965635
1783169562285750500,5.67775048828125,-0.006696282768249511,0.015546049209381452,0.01350067240333883
1783169562295820800,5.68782080078125,-0.026298808860778806,0.0011860679794102906,0.025841571179148738
1783169562305889500,5.6978896484375,-0.0017576573222875594,0.012029465056327172,0.015448219424672423
1783169562315958800,5.707958740234375,-0.004900631523132324,0.009627545880596153,0.0014820164353935978
1783169562326028500,5.718028564453125,-0.02869242599904537,-0.009661480116238817,-0.0017539035957772283
1783169562336097800,5.728097900390625,-0.006247954478859901,0.011762333986163139,0.007374298477533739
1783169562346166500,5.73816650390625,0.006771101570129394,0.0070340907547157255,0.005393490790703799
1783169562356236800,5.74823681640625,-0.002056348007917404,0.01213794866579119,0.019334088981267997
1783169562366305500,5.758305419921875,-0.015074819535017013,0.013337994938204064,0.01639739620855544
1783169562376374800,5.768374755859375,-0.008490764969587325,0.0044717796857701615,0.02024950277615571
1783169562386444500,5.778444580078125,-0.0206131644397974,0.005158528974070213,-0.0009242272890056483
1783169562396513800,5.788513671875,-0.013429974937438964,0.009666393753373996,0.009590739267854951
1783169562406582500,5.79858251953125,0.00048632221221923825,0.0028780761869624254,0.0005237681457772851
1783169562416652800,5.80865283203125,-0.011485855132341384,0.0077099852888612075,0.010481077986990568
1783169562426721500,5.818721435546875,-0.007445639830827713,0.012775164290517569,0.007298217017040588
1783169562436790800,5.828790771484375,-0.008793547308444977,0.0013903035809285937,0.002853247706382535
1783169562446859500,5.838859619140625,-0.02300911966562271,0.01054645082380157,0.020448180853144732
1783169562456929800,5.8489296875,-0.0020586860954761505,0.014274988093948922,0.017804307289345886
1783169562466998500,5.85899853515625,0.002730301746726036,-0.0016834824078017846,0.01346188389606541
1783169562477067800,5.86906787109375,0.00018646248281002043,0.0056368048771517345,0.009615676204644841
1783169562487137500,5.879137451171875,-0.004750993919372558,0.007185303827631287,0.007110712212970247
1783169562497206800,5.889206787109375,-0.025102292552590368,0.013144769354467279,0.006111726629233453
1783169562507275500,5.899275634765625,-0.018369184905290603,-0.002913654390419833,0.00047905678779352454
1783169562517345800,5.909345703125,-0.014179332000017164,0.002295330695831217,0.01222926651132293
1783169562527414500,5.91941455078125,-0.014628244811296463,0.010679055094369687,-0.004061685064516496
1783169562537483800,5.92948388671875,-0.011337386572360992,0.013089751231600529,0.024939610520878338
1783169562547553500,5.939553466796875,-0.017922025659680367,0.011931311044632456,0.0026924813538324087
1783169562557622800,5.949622802734375,-0.02510579968392849,0.001557997431186959,-0.0019974962434382176
1783169562567691500,5.95969140625,-0.011339724659919738,0.004365944691118784,0.01136104600916151
1783169562577761500,5.969761474609375,-0.0020616087049245835,0.004613581042946316,0.006639394631993491
1783169562587830500,5.97983056640625,-0.0016115268498659134,0.01103257667319849,0.016412445363926234
1783169562597899800,5.989899658203125,-0.010291092389822006,0.011951897174934856,0.03296277167844819
1783169562607969800,5.9999697265625,0.0013800561815500258,-0.00215009070597589,0.0006111975507694296
1783169562618038500,6.01003857421875,-0.009094576081633568,0.00730727710633073,-0.006161705534090288
1783169562628107500,6.020107421875,-0.010890811848640441,0.0022953398289857433,0.006964779245015234
1783169562638177500,6.030177490234375,-0.01627835010588169,0.009688116961414925,-0.0036212797866784965
1783169562648246500,6.04024658203125,-0.011490531307458876,0.0021003835124662144,0.005082972669962328
1783169562658315800,6.050315673828125,-0.0002671265035867691,-0.00046828879860695446,0.0034092901369673196
1783169562668385800,6.0603857421875,-0.016727262917160986,-0.0074075363101437685,-0.0013784875622601248
1783169562678454500,6.07045458984375,-0.008197919502854346,0.015630599387409166,0.015459156377217731
1783169562688523500,6.0805234375,-0.013735095363855362,0.020646824680804275,0.007172403246862813
1783169562698593500,6.090593505859375,-0.0101432083517313,0.018216551626846194,-0.004675962771649938
1783169562708662800,6.100662841796875,-0.008946692043542861,0.012905193011509254,-0.007741700167953967
1783169562718731500,6.1107314453125,-0.013435820156335829,0.009064587368746288,-0.008131443837634287
1783169562728801800,6.1208017578125,0.005716624081134796,-0.001412515412736684,0.006146101539582014
1783169562738870500,6.13087060546875,-0.018973580539226532,-0.005510602947906591,0.023835944144893435
1783169562748939800,6.140939697265625,-0.010593874728679656,0.018730684294598177,0.024645863155135884
1783169562759009500,6.151009521484375,-0.007002572238445281,0.022048197645018808,0.013229639192903413
1783169562769078800,6.161078857421875,-0.010294014999270438,0.013736045211926102,0.00921564289474627
1783169562779147500,6.1711474609375,-0.007899228817224503,0.005906780924950726,-0.00038219511746428905
1783169562789217800,6.1812177734375,-0.021067337948083877,-0.010346370807592757,-0.0025042173562920653
1783169562799286500,6.19128662109375,-0.019271686702966688,-0.003795976483169943,-0.0026423837179667315
1783169562809355800,6.201355712890625,-0.01358662680387497,-0.01010626017509494,0.007296331020630896
1783169562819425500,6.211425537109375,-0.00341243879199028,-0.0029497166510671375,0.01613937546003144
1783169562829494800,6.221494873046875,-0.00042027123868465424,-0.006305493352375924,0.017876065342815127
1783169562839563500,6.2315634765625,-0.009398527464270591,0.007921892740181647,0.006169966472359374
1783169562849633800,6.2416337890625,-0.01089431897997856,0.009053897011373192,0.019635889506014064
1783169562859702500,6.25170263671875,-0.0014683189868927,0.005056479671970009,0.011952157469838857
1783169562869771800,6.261771728515625,-0.005958031621575355,0.010520521798101253,0.01141888399348827
1783169562879841500,6.271841552734375,-0.004462240105867385,-0.002746266500838101,-0.0008772668917197734
1783169562889910800,6.281910888671875,-0.014787234765291214,0.004114609411708079,0.00758422403432196
1783169562899979500,6.2919794921875,-0.030348376512527465,0.008279008215316571,-0.005955063346354291
1783169562910048800,6.302048828125,-0.014037293180823326,-0.0057137060382636265,0.016414297111006452
1783169562920118500,6.312118408203125,-0.0035638299614191055,0.014470122506981715,0.016254165512695908
1783169562930187800,6.322187744140625,-0.008203180199861526,-0.006476863297331147,0.011028896011924371
1783169562940256500,6.332256591796875,-0.01987549781501293,-0.0007650706549407913,0.006732196615135763
1783169562950326800,6.342326904296875,-0.0029670331120491026,0.006739911847421899,0.001655544088105671
1783169562960395500,6.3523955078125,-0.007456161224842071,0.004013930082786828,-0.0036473754924489185
1783169562970464800,6.36246484375,-0.004164133942127227,0.0030916093397885557,0.011831145455653313
1783169562980534500,6.372534423828125,0.004963759887218475,0.011368055705260486,-0.0005719386860379018
1783169562990603800,6.382603759765625,-0.013591302978992461,0.006373407489433884,-0.0028450164508656596
1783169563000672500,6.392672607421875,-0.019876082336902617,-0.008841405038163065,0.009938308313221204
1783169563010742800,6.40274267578125,-0.008353986847400664,-0.007629243636270985,0.014317829438543412
1783169563020811500,6.4128115234375,0.0007739069819450377,0.004389476263755932,-0.006243230354681145
1783169563030880800,6.422880859375,-0.008203180199861526,-0.011212207556422799,0.016899749390257054
1783169563040950500,6.432950439453125,-0.0165828860104084,0.010145491640362887,0.01537404451018665
1783169563051019800,6.443019775390625,-0.024363456884026528,0.005338968141470104,0.009211491876014041
1783169563061088500,6.453088623046875,-0.013140636602044104,-0.000014348185760900378,0.018742217185476327
1783169563071158500,6.463158447265625,-0.008799977049231529,0.009138771416386589,-0.0012655561065417714
1783169563081227500,6.4732275390625,0.004966097974777222,0.018355485173501072,0.024060848075104876
1783169563091296800,6.483296875,-0.0032651392757892606,0.01813421167221386,0.02321230495437048
1783169563101366800,6.49336669921875,-0.02271802776455879,0.012156224107998423,0.018704889982927124
1783169563111435800,6.503435791015625,-0.02077273891568184,0.019596000453620217,0.007740245713095646
1783169563121504500,6.51350439453125,-0.017629764714837074,0.01884002642058767,0.02906313160811551
1783169563131574500,6.523574462890625,-0.01014671548306942,0.001898184604407288,0.032033690117811785
1783169563141643800,6.533643798828125,-0.00909925225675106,0.01751312063180376,0.012876517189585138
1783169563151712800,6.543712646484375,-0.012241641935706139,0.00864722960635554,0.02566270291432738
1783169563161782800,6.55378271484375,-0.008351064237952233,-0.0020047867840388787,0.010050794527656398
1783169563171851500,6.5638515625,-0.010446575212478637,0.0075738647538004435,0.013236463942623232
1783169563181920500,6.57392041015625,-0.005807224974036216,0.003293726049456745,0.01674046489202883
1783169563191990500,6.583990478515625,-0.011643091520667075,-0.013158062660880387,0.023009558057039976
1783169563202059800,6.594059814453125,-0.006106500181555748,-0.007899374947696923,0.02413227619336685
1783169563212128500,6.60412841796875,-0.017927286356687545,0.01653049823604524,0.008067534588836134
1783169563222198800,6.61419873046875,-0.02032207253873348,0.017185203851689583,0.002970268532040063
1783169563232267500,6.624267578125,-0.016281272715330124,-0.00834259323712904,0.0030373447021702304
1783169563242336800,6.634336669921875,-0.026307576689124104,0.004481753090512939,0.009344093863293528
1783169563252406500,6.644406494140625,-0.020023966374993322,0.0072638763560215,0.008519644004199653
1783169563262475800,6.654475830078125,-0.01493687236905098,-0.010307449869578704,0.005773235939466394
1783169563272544500,6.66454443359375,-0.0032639702320098876,0.00958733260121662,-0.00986492569989059
1783169563282614800,6.67461474609375,-0.021070845079421995,0.018718404768337495,0.005714352208946365
1783169563292683500,6.68468359375,-0.0035638299614191055,0.0022155525910435244,0.010991160100710112
1783169563302752800,6.694752685546875,-0.005358896684646606,0.01740497038247995,0.009711897412512917
1783169563312822500,6.704822509765625,-0.004460486540198326,0.0010195660058176144,0.007600745910860132
1783169563322891800,6.714891845703125,-0.0020657003581523894,-0.008707229865016415,0.026446174592350144
1783169563332960500,6.72496044921875,-0.01283843878507614,0.011818680983013473,0.01763642963435268
1783169563343030800,6.73503076171875,-0.026605098330974578,0.00743958454937674,-0.007951746739039662
1783169563353099500,6.745099609375,-0.00864917040169239,0.010406978421029634,0.009166743985412177
1783169563363168800,6.755168701171875,-0.009695464584231376,-0.0017204442841699346,0.018252627587225286
1783169563373237500,6.765237548828125,-0.014634090030193328,0.01974175190012902,0.005737443106877617
1783169563383307800,6.775307861328125,-0.006405190867185592,-0.0009379658367019146,0.0073538402113947085
1783169563393376500,6.78537646484375,-0.004459317496418953,-0.0016581698700319975,0.007639623466390184
1783169563403445800,6.79544580078125,-0.010144377395510672,-0.006504244494601153,0.006138902330526616
1783169563413515500,6.805515625,-0.004458732974529266,0.006481297443853691,0.004892340902111027
1783169563423584800,6.815584716796875,-0.016879238608479497,0.005214971869043074,0.006467330567294266
1783169563433653500,6.825653564453125,-0.020469956576824187,0.007021107975556514,0.005734390349977183
1783169563443723800,6.835723876953125,-0.0071522098422050475,0.014468081246945074,0.011168822789133991
1783169563453792500,6.84579248046875,-0.01044423712491989,-0.005299407882639206,0.0072961415076744736
1783169563463861800,6.85586181640625,-0.013287351596355437,0.012759642494400031,0.0019358771331375465
1783169563473931500,6.865931640625,-0.00715162532031536,-0.0022592136362567542,0.02670977798157837
1783169563484000800,6.876000732421875,-0.015082418319582938,0.01793047382761724,0.011298506733542308
1783169563494069500,6.886069580078125,-0.017476619979739188,0.01674200382856652,-0.004094751650479156
1783169563504139800,6.896139892578125,-0.009395020332932472,0.005842844276688993,0.01836880359608913
1783169563514208500,6.90620849609375,-0.01598082846403122,0.005752275349828414,0.021766921601782088
1783169563524277800,6.91627783203125,-0.012687632137537002,0.00500310095034074,0.018747359151474664
1783169563534347500,6.926347412109375,-0.000716039314866066,0.01433346768238116,0.006416107270133215
1783169563544416800,6.936416748046875,-0.008047112855315208,0.004799436170980334,0.005353848333482164
1783169563554485500,6.946485595703125,-0.006252046132087707,0.014262704001110977,-0.00647888172448147
1783169563564555500,6.956555419921875,-0.011790975558757782,0.00884533686118666,-0.00116993654522812
1783169563574624500,6.96662451171875,-0.015382278048992157,0.0036457223914796483,-0.00521032309338916
1783169563584693800,6.97669384765625,-0.016278934627771375,0.005425733109470456,0.005522978372289799
1783169563594763800,6.986763671875,-0.009544657936692237,-0.004853326349263079,0.007160632893966976
1783169563604832800,6.996832763671875,-0.01657645626962185,0.020868641604785805,0.005151016954472288
1783169563614902000,7.006902099609375,0.0000339022696018219,0.002783146178815514,0.023908879233652258
1783169563624971800,7.0169716796875,-0.022262100690603255,0.013310161649785004,0.01883004388269037
1783169563635041000,7.027041015625,-0.014181085565686225,0.013341661899746395,0.019875182721181772
1783169563645110000,7.037110107421875,-0.013882394880056381,0.01997476607155986,0.008203853770007844
1783169563655180000,7.047179931640625,-0.02016658971607685,0.015734466187260113,0.02386130919830175
1783169563665248800,7.057248779296875,-0.023009704187512397,0.008711517881066538,0.01450029388295952
1783169563675318000,7.067318115234375,-0.011937106031179428,0.005734986288310029,0.004929179480893072
1783169563685387800,7.0773876953125,-0.0010129764348268508,-0.0022678353341296312,0.0038912900838069617
1783169563695457000,7.08745703125,-0.012385434320569037,-0.01065792554137297,0.005114587084355298
1783169563705525800,7.09752587890625,-0.0028086276799440383,0.007905818388215266,0.004833194593398366
1783169563715596000,7.107595947265625,0.003774257841706276,0.00974422192967031,0.01719172720731003
1783169563725664800,7.117664794921875,-0.015977905854582787,0.001946193031175062,0.026782167364354244
1783169563735734000,7.127734130859375,-0.002809212201833725,0.011833453860459848,0.004825757922325283
1783169563745803800,7.1378037109375,-0.017473697370290756,0.001941973513783887,0.006461188520875293
1783169563755873000,7.147873046875,-0.008045943811535835,0.0031898227169876916,0.009236126277060247
1783169563765941800,7.157941650390625,-0.008496025666594504,-0.004456175691261887,0.017314104628097265
1783169563776011000,7.168010986328125,-0.024358196187019347,-0.003737469495274126,0.014218908241868484
1783169563786080800,7.178080810546875,-0.01148819321990013,0.015418545805616303,-0.006166888599283993
1783169563796150000,7.18814990234375,-0.02016658971607685,0.016065515639376825,-0.006184684550878591
1783169563806218800,7.19821875,-0.017622750452160833,0.008530941716348751,-0.006362082377821206
1783169563816289000,7.2082890625,-0.005802548798918724,0.009368776213400997,0.013638925529981498
1783169563826357800,7.218357666015625,-0.006551321339607239,0.010315290682739578,0.02599824816175969
1783169563836427000,7.228427001953125,-0.011939444118738174,0.021207536436640657,0.010970434689801186
1783169563846496800,7.238496826171875,-0.012837269741296767,0.0016355242133839056,0.004242516957561019
1783169563856566000,7.24856591796875,-0.012687632137537002,0.0022299555757315827,0.011074778696976135
1783169563866634800,7.258634765625,-0.015231471401453017,0.007121691406355239,0.016484887262340635
1783169563876705000,7.268705078125,-0.008798223483562469,0.005293548964010551,0.006311781529267318
1783169563886773800,7.278773681640625,-0.010893734458088875,0.008593905683653428,0.019525814444373825
1783169563896843000,7.288843017578125,-0.020919453909993172,0.007477464307774789,0.015215874256810638
1783169563906913000,7.2989130859375,-0.015232640445232391,-0.006190913362265564,0.009391593116696458
1783169563916982000,7.30898193359375,-0.008051204508543014,0.011818557685427366,0.01136472895372426
1783169563927050800,7.31905078125,-0.020321488016843796,0.01599503508589696,0.026715646033361552
1783169563937121000,7.32912109375,-0.0026624972075223923,0.005266450894530862,0.010359403819101862
1783169563947190000,7.33918994140625,-0.016428572231531144,0.012514070235495455,0.0304828759126598
1783169563957259000,7.349259033203125,-0.013137129470705985,-0.0006480155799537897,-0.0007082236178801394
1783169563967329000,7.3593291015625,-0.006553074905276298,0.007392927829478867,0.001934137267200276
1783169563977398000,7.36939794921875,-0.006554243949055671,0.013851981475483626,0.00646221828404814
1783169563987467000,7.379467041015625,-0.024511340922117233,0.015543533025309442,0.0000034865817404352128
1783169563997537000,7.389537109375,-0.009247720816731453,0.008455858052987604,0.014981305165821685
1783169564007606000,7.39960595703125,-0.006555412992835044,0.004980624257051386,0.008731037715577986
1783169564017675000,7.409675048828125,-0.016280688193440435,0.009160435258923098,0.015347238701651804
1783169564027745000,7.4197451171875,-0.01059504377245903,-0.008877677361364475,-0.0008549431787687353
1783169564037814000,7.42981396484375,0.00047813890576362607,-0.003430421973252669,0.006184718800208065
1783169564047883000,7.439883056640625,0.007062777993083,0.023294882371020502,0.005121905024419538
1783169564057952800,7.449952880859375,-0.014036124137043951,0.023578096926305442,0.01809436371901538
1783169564068022000,7.46002197265625,0.010205752193927765,0.0048098890663357445,0.0018891199485398828
1783169564078091000,7.470091064453125,-0.02181611048877239,0.006392029991513118,0.004073918925004545
1783169564088161000,7.4801611328125,-0.019720599514245984,0.017646688450174405,0.0013669706544023937
1783169564098229800,7.490229736328125,-0.004607786056399345,0.015185819328553042,-0.0029700402031769043
1783169564108299000,7.500299072265625,-0.019123218142986297,0.014039594735763966,0.022287949801201464
1783169564118368800,7.51036865234375,-0.006853519156575202,0.003183233145996928,-0.011752712207869626
1783169564128438000,7.52043798828125,0.003171615773439407,-0.0028512658118503165,0.019229073687235358
1783169564138507000,7.530507080078125,-0.009846271231770514,0.003516972312121652,0.0036458388391998595
1783169564148576000,7.540575927734375,-0.0035609073519706725,0.005532193725206889,0.002347960498789325
1783169564158645800,7.550645751953125,-0.02480944708585739,0.007610196442506276,0.01329077652930282
1783169564168715000,7.560715087890625,-0.016878069564700126,-0.007152255507977679,0.015992691290116635
1783169564178784000,7.570783935546875,-0.008497194710373877,0.0022725571750197558,0.008745164422341621
1783169564188854000,7.58085400390625,-0.004157704201340675,0.018568479470210147,-0.007294659653352573
1783169564198922800,7.5909228515625,-0.004756254616379738,0.0012132710801670327,0.015028793002781458
1783169564208992000,7.600991943359375,-0.02001812115609646,0.0067945144117577,0.009096148125856416
1783169564219061800,7.611061767578125,-0.019418401697278022,0.009949169917241669,0.008802165581384906
1783169564229131000,7.621131103515625,-0.02480593995451927,0.0023969279067823663,0.004189150794019224
1783169564239200000,7.631199951171875,-0.005053191736340523,0.011395715463743544,0.018575557664968073
1783169564249270000,7.64127001953125,-0.007596446478366851,-0.009148470826493576,0.016244444411346922
1783169564259338800,7.6513388671875,-0.023607670080661773,0.005983330459613353,0.012450122170790563
1783169564269408000,7.661407958984375,-0.021064415338635442,0.009138675518264062,0.0140555355153454
1783169564279477800,7.671477783203125,-0.023308979395031928,0.010817367586516774,0.01947618259938899
1783169564289547000,7.681547119140625,-0.004007482075691223,0.00821690276453737,0.013748783679201732
1783169564299615700,7.69161572265625,-0.0197200149923563,-0.0008972821998642757,-0.003224149678274989
1783169564309686000,7.70168603515625,-0.028249942928552627,0.00799846510773059,0.0002925223813916091
1783169564319754800,7.711754638671875,-0.02121756007373333,0.007326703326008282,0.0027076104243053123
1783169564329824000,7.721823974609375,-0.016278934627771375,0.013056406084424816,0.002018980847817147
1783169564339893800,7.731893798828125,-0.014632920986413955,-0.0008040189924184233,0.005343506177625385
1783169564349963000,7.741962890625,-0.012538579055666924,0.0005833391461754217,0.019325997006357648
1783169564360031700,7.75203173828125,-0.019123218142986297,0.006155010931822471,0.018126713352347723
1783169564370102000,7.76210205078125,-0.02391045241951942,0.010746987497736699,0.012307404073228827
1783169564380170800,7.772170654296875,-0.02331190200448036,0.010937856727605685,0.007095544326590607
1783169564390240000,7.782239990234375,-0.009845102187991141,-0.003193064986844547,0.009788801998557755
1783169564400310000,7.79231005859375,-0.017476619979739188,0.007776506619853898,-0.005231038229499245
1783169564410379000,7.80237890625,-0.019123218142986297,0.013842798088607378,-0.003796596396033419
1783169564420447700,7.81244775390625,-0.008348726150393485,0.01165779133287724,0.010290959959081374
1783169564430518000,7.82251806640625,-0.008199673068523407,-0.004620120381587185,-0.002592741598183056
1783169564440587000,7.8325869140625,-0.01613105058968067,0.005310500098811463,0.0017503519403107928
1783169564450656000,7.842656005859375,-0.013288520640134811,0.006148270663782022,0.011528083413938293
1783169564460726000,7.85272607421875,-0.009696049106121063,0.013032810579705983,0.004793573827418731
1783169564470795000,7.862794921875,-0.012538579055666924,0.009556339241331443,0.01191830543258693
1783169564480864000,7.872864013671875,0.0009293898046016692,0.009160837117722257,0.010309601869113975
1783169564490933000,7.88293310546875,-0.024209727627038956,-0.006186844541924074,0.0026606146360456475
1783169564501003000,7.8930029296875,-0.0008674304842948913,0.02337926815226674,0.01140434857805958
1783169564511072000,7.903072021484375,-0.015380524483323096,0.011056423339666797,0.023196579945564736
1783169564521141000,7.91314111328125,-0.028846155256032943,-0.002308377407072112,0.02242816883935593
1783169564531211000,7.9232109375,-0.01313479138314724,0.003758005393226631,0.023171050495374948
1783169564541280000,7.933280029296875,-0.0026607436418533323,0.016852021807990968,0.009114798027399229
1783169564551349000,7.943348876953125,0.001530278307199478,0.015260469167074188,0.0045203840508707795
1783169564561419000,7.9534189453125,-0.021363690546154973,0.002866828707163222,0.016473505068512168
1783169564571488000,7.963488037109375,-0.011038695886731146,0.006826156225614249,-0.0003526744787464849
1783169564581557000,7.973556884765625,-0.007597615522146224,0.010327099851542152,-0.0031262559614842755
1783169564591627000,7.983626953125,-0.02031739636361599,0.0029150152304442596,0.01500902885638643
1783169564601695500,7.993695556640625,-0.008347557106614112,0.010590180367673747,-0.008428529371356125
1783169564611764700,8.0037646484375,-0.013286182552576064,-0.004164713897439651,0.011251217542693485
1783169564621834800,8.013834716796875,0.0052688803136348725,0.012636376874335109,0.010309641826665028
1783169564631903700,8.02390380859375,-0.00774900669157505,0.003603504384681582,-0.0030531815921189262
1783169564641972500,8.033972412109375,-0.0058031333208084105,-0.001456646815408021,-0.0051170461862115185
1783169564652042800,8.044042724609374,-0.02570610366463661,0.006872580050071701,0.003500619398942217
1783169564662111700,8.05411181640625,-0.020019874721765515,0.01730821831000503,0.010242136398272123
1783169564672180700,8.0641806640625,-0.011042203018069267,0.010803284262237138,0.0008381404577288776
1783169564682250800,8.074250732421875,-0.007898059773445128,-0.0016320855807047336,-0.0011581844586413352
1783169564692319700,8.08431982421875,-0.017325813332200048,0.0003852455910760909,0.0053061070514842865
1783169564702388500,8.094388427734375,-0.005203998383879661,0.007749070623656734,-0.0015180809793295337
1783169564712458500,8.10445849609375,-0.012984569257497787,0.010621283325413242,0.007596405379171483
1783169564722527700,8.11452783203125,-0.02390752981007099,0.007144337063003331,0.01102376317908056
1783169564732596700,8.1245966796875,-0.004605447968840598,0.010728826219961046,0.007306455122423358
1783169564742666800,8.134666748046875,-0.024807108998298643,0.010844913180568254,0.002151976702385582
1783169564752735500,8.144735595703125,-0.01627659654021263,0.015744485257775522,-0.010980999466299544
1783169564762804700,8.1548046875,-0.02076397108733654,0.013690361172985284,-0.012876178121223346
1783169564772874500,8.16487451171875,-0.011636661779880523,-0.0004226915246341377,0.00933160199119011
1783169564782943700,8.17494384765625,-0.005202829340100288,0.0021481133780209345,0.009401365592039655
1783169564793012700,8.1850126953125,-0.006250292566418647,-0.009273882737872191,0.010173256430123
1783169564803082800,8.195082763671875,-0.0008645078748464583,0.0031386770516401157,0.012760113993502454
1783169564813151500,8.2051513671875,-0.022412322816252706,0.03001942311937455,-0.005418923201126745
1783169564823220700,8.215220703125,-0.010590367597341537,0.004486831124429591,0.0024161235143081283
1783169564833289700,8.225289794921874,-0.004305588239431381,0.010677552690450101,0.01473738829117501
1783169564843359700,8.23535986328125,-0.009842764100432395,-0.007490497319283895,0.010559187007788568
1783169564853428500,8.245428466796875,-0.018969488885998725,0.00098728487114422,-0.008474574169900733
1783169564863497700,8.255497802734375,-0.014929273584485054,-0.0016833043112885206,-0.003849745647155214
1783169564873567500,8.2655673828125,-0.013733341798186301,0.0013207454760558901,0.014331708408490521
1783169564883636700,8.27563671875,-0.013134206861257552,0.00663443304579705,0.010141619182843715
1783169564893705700,8.285705810546874,-0.016875146955251694,-0.004335435388423502,0.008111971952184103
1783169564903775700,8.295775634765626,-0.0195674547791481,0.014305876422557047,0.003464357350539649
1783169564913844500,8.305844482421875,-0.008642740660905838,0.0037681066621327772,0.00046792918064747935
1783169564923913700,8.315913818359375,-0.0017588263660669326,0.00358698250814341,0.00030534190541366114
1783169564933983500,8.3259833984375,-0.006397592082619667,-0.000973201546864584,0.008790797087288228
1783169564944052700,8.336052734375,-0.011335633006691931,0.006704297111346386,0.033630074197473
1783169564954121500,8.34612158203125,-0.010436638340353965,0.010100045063439755,0.012215446906880242
1783169564964191700,8.356191650390626,-0.018666122025251388,0.014698739064508116,0.014800408199051162
1783169564974260500,8.366260498046875,-0.0035521395236253737,-0.0012605214551091194,0.004681549978931434
1783169564984329700,8.376329833984375,-0.0016068506747484207,0.016300059614190832,0.0014442885156895498
1783169564994399500,8.3863994140625,-0.0039987142473459246,0.006135223952541127,0.013694409443729091
1783169565004468700,8.39646875,0.0004909983873367309,0.019382901125634087,0.013480585171602433
1783169565014537500,8.406537353515626,-0.005344868159294128,0.017495032419264315,0.007539333438180619
1783169565024607700,8.416607666015626,-0.014023849177360534,0.014055034333490765,-0.008346300156222423
1783169565034676500,8.426676513671875,-0.009234861335158348,0.0026885175647679716,0.006582247342477785
1783169565044745700,8.436745849609375,-0.020906009906530378,0.02717632234767079,0.016604318099148804
1783169565054815500,8.4468154296875,-0.013872458007931708,0.007618909471924416,0.0148721879437624
1783169565064884700,8.456884765625,0.0010918868899345397,0.006604763993318192,0.01701039184912224
1783169565074953500,8.466953369140626,-0.008036591461300849,-0.0003058510787785053,0.019966032492544035
1783169565085022700,8.477022705078125,-0.018510639202594756,0.008573762511345557,0.015597462019498924
1783169565095092500,8.487092529296875,-0.003097381493449211,0.005675862812483683,-0.006161506887979339
1783169565105161700,8.49716162109375,0.0006435586005449295,0.011424873059568927,-0.0037343448147817977
1783169565115230500,8.50723046875,-0.018508885636925695,-0.0069924846692709245,0.012902348033874295
1783169565125300700,8.51730078125,-0.010427870512008667,0.015268762071384116,0.00324026741272537
1783169565135369500,8.527369384765626,-0.0007008417457342147,-0.004761360049759969,0.016060356548713753
1783169565145438700,8.537438720703125,-0.008781856870651245,0.004478259658906608,0.003770812359161209
1783169565155508700,8.5475087890625,-0.009829320096969603,0.013238786047161557,0.0073186787081125654
1783169565165577700,8.55757763671875,-0.0241945300579071,0.008488321850751527,0.015305596083588897
1783169565175646500,8.567646484375,-0.015813655203580856,0.005515032527851872,0.0022811309238313696
1783169565185716700,8.577716796875,-0.016411621096730233,0.013065073448070324,0.006907373943884158
1783169565195785700,8.58778564453125,-0.0003998129725456238,0.008796867210115305,0.005373298527690349
1783169565205854700,8.597854736328125,-0.011173720443248748,-0.002459764009923674,-0.0027094941374263726
1783169565215924700,8.6079248046875,-0.015363573348522185,0.015491761738876812,0.023302346441557164
1783169565225993700,8.61799365234375,-0.008631050223112106,0.0084273854437517,0.012744912999437655
1783169565236062500,8.6280625,-0.015662848556041716,0.0009335042907157912,0.012691342481563332
1783169565246132700,8.6381328125,-0.009527122280001639,-0.005500332715641707,-0.005028063003305578
1783169565256201700,8.64820166015625,-0.01132218900322914,0.01062258936651051,-0.009004125885781832
1783169565266270700,8.658270751953125,-0.031522680988907814,0.011504267571866511,0.00702224391165073
1783169565276340700,8.6683408203125,-0.0071305825322866435,0.0042865958445938305,0.005803594545111991
1783169565286409700,8.67840966796875,0.0033440497308969497,0.02004463470368646,-0.0013195798572094644
1783169565296478700,8.688478759765625,-0.009675006318092346,0.028189431213238275,0.004173949799954425
1783169565306548500,8.698548583984374,-0.007429273217916488,0.012747257936862296,0.0024041796314762903
1783169565316617700,8.70861767578125,-0.00802782363295555,0.005893542417464778,0.016819174417736938
1783169565326686700,8.718686767578125,-0.011019406664371489,0.010356129583204164,0.018932355762983206
1783169565336756700,8.7287568359375,-0.00024549919366836546,-0.005213063039747066,0.01246379564476083
1783169565346825500,8.738825439453125,-0.018501871374249457,0.01393778746225871,0.023420518044685014
1783169565356894700,8.748894775390625,-0.023290274694561956,0.029494581827940416,0.022382231355377005
1783169565366964500,8.758964599609374,-0.015209259569644928,0.012396480870968661,0.015712688180292023
1783169565377033700,8.76903369140625,-0.014759177714586257,0.008067698985617607,0.008361818527407012
1783169565387102700,8.779102783203125,-0.01835048020482063,-0.008698201741767116,0.01015058908223291
1783169565397171700,8.789171630859375,-0.012214169406890869,0.007604501920659095,-0.007381128935475135
1783169565407241500,8.799241455078125,-0.013411270236968994,0.0056960562171414495,0.01113209723313921
1783169565417310700,8.809310791015625,-0.012811550778150558,0.0060054235604126,0.02392133457313757
1783169565427379700,8.819379638671874,-0.019994155758619306,0.011683551395218818,0.008167431891401065
1783169565437449700,8.82944970703125,-0.007425181564688682,0.015615269387536681,0.021600846603163516
1783169565447518500,8.8395185546875,-0.014758593192696571,-0.00040355756590142845,0.02585859537918586
1783169565457587700,8.849587646484375,-0.00967091466486454,0.0003812178699299693,0.016605156066076595
1783169565467657500,8.859657470703125,-0.017301263412833213,0.003953669529221952,0.0012786656082200351
1783169565477726700,8.869726806640625,-0.00024257658421993254,0.00531524020601064,0.012657517843774984
1783169565487795700,8.879795654296874,-0.014458148941397667,-0.0034893262533703816,0.015764319044473812
1783169565497865700,8.88986572265625,-0.014906477230787276,0.012129345234227366,0.008749097387009533
1783169565507934500,8.8999345703125,-0.005928805527091026,0.008285871780943125,0.00869473685126868
1783169565518003700,8.910003662109375,-0.020742343777418137,0.006265101976483128,0.0006466193489555735
1783169565528073500,8.920073486328125,-0.017600538620352744,-0.01563289180919528,0.008169114675122546
1783169565538142700,8.930142822265625,-0.017600538620352744,0.01867710921014659,-0.00774002195080975
1783169565548211500,8.94021142578125,-0.01819850451350212,0.017758697457285595,0.017871330943837527
1783169565558281700,8.95028173828125,-0.06392272933423519,0.02239878748124465,-0.03829417756797047
1783169565568350500,8.9603505859375,-0.7423480605989694,0.11296762301027774,-0.2078247120514512
1783169565578419700,8.970419677734375,-0.06688625531494617,-0.017648181720939463,0.13136544035500847
1783169565588489500,8.980489501953125,1.943912299826741,-0.16312155564045533,0.345359753552638
1783169565598558700,8.990558837890624,-0.6679132896006107,0.0236690403125016,0.007044293629965977
1783169565608627700,9.000627685546876,-0.9468272616147995,0.09792645001653581,-0.323729192231223
1783169565618698000,9.010697998046876,0.8251572767108678,-0.040068190086726095,0.17285598226189614
1783169565628766700,9.0207666015625,-0.49957098537087435,0.08079966638777404,-0.10258700743978842
1783169565638835700,9.030835693359375,0.0060427872955799095,0.013877166149090044,0.06795431837129871
