time,seconds_elapsed,z,y,x
1783169556687203600,0.07920361328125,0.0019483081996440887,-0.0004479377530515194,-0.0007692775689065456
1783169556697272600,0.0892724609375,-0.0015515770064666867,0.0022325352765619755,-0.0021888327319175005
1783169556707341600,0.099341552734375,-0.0035055382177233696,-0.0011723167262971401,-0.0010884145740419626
1783169556717411800,0.109411865234375,0.0012953011319041252,-0.0006412831135094166,0.0011750960256904364
1783169556727480600,0.11948046875,0.00007850280962884426,-0.001390696968883276,0.0021575363352894783
1783169556737550800,0.12955078125,0.001087144366465509,0.0008475608192384243,-0.0011181114241480827
1783169556747619600,0.13961962890625,0.0007310797227546573,-0.00011730240657925606,-0.0013676495291292667
1783169556757688800,0.149688720703125,0.00019555899780243635,-0.001036358531564474,0.0022222003899514675
1783169556767758600,0.159758544921875,0.00002458400558680296,0.0006401017308235168,0.0028240748215466738
1783169556777827800,0.169827880859375,-0.0001850072294473648,0.0010191933251917362,-0.002097391989082098
1783169556787896600,0.179896484375,-0.00024546089116483927,0.001630921382457018,-0.0020087086595594883
1783169556797966600,0.189966552734375,0.0003215475007891655,-0.0011719218455255032,0.0037324889563024044
1783169556808035600,0.20003564453125,-0.000349302776157856,-0.0023527671582996845,-0.0019144776742905378
1783169556818104800,0.210104736328125,0.00029880728106945753,-0.0003131893463432789,0.005311967805027962
1783169556828174600,0.220174560546875,0.001680987887084484,0.002055159769952297,-0.00029158894903957844
1783169556838243800,0.230243896484375,0.0019723991863429546,0.00014554336667060852,-0.001171365613117814
1783169556848312600,0.2403125,0.0008956831879913807,0.00002330401912331581,-0.00016762013547122478
1783169556858382600,0.250382568359375,0.001777147757820785,-0.001962208654731512,0.00007636146619915962
1783169556868451600,0.26045166015625,-0.001676972140558064,0.0002676555886864662,-0.0010080779902637005
1783169556878520800,0.270520751953125,-0.0006874249083921313,0.0002657896839082241,-0.0004992331378161907
1783169556888590600,0.280590576171875,0.0005698535242117941,0.001642377581447363,0.0003314067143946886
1783169556898659600,0.29065966796875,-0.0008837629575282335,0.0013033640570938587,-0.000010996824130415916
1783169556908728600,0.300728515625,-0.0006704437546432018,-0.0013352963142096996,-0.0009255264885723591
1783169556918798600,0.310798583984375,-0.0013751593651250005,0.0006970847025513649,0.0025793402455747128
1783169556928867600,0.32086767578125,-0.00014264846686273813,-0.0013040141202509403,0.0002514712978154421
1783169556938936800,0.330936767578125,-0.0005014194175601006,0.001823334489017725,-0.0008485906291753054
1783169556949006600,0.341006591796875,-0.0008431029273197055,-0.00015352992340922356,0.0007226746529340744
1783169556959075600,0.35107568359375,-0.0002705460647121072,0.00021118810400366783,-0.0021681420039385557
1783169556969144600,0.36114453125,-0.0007049075793474913,-0.0005392902530729771,0.0005634622648358345
1783169556979214600,0.371214599609375,0.00011134927626699209,-0.0006311698816716671,-0.000042673200368881226
1783169556989283600,0.38128369140625,0.00009190815035253763,0.002326270565390587,0.0006140621844679117
1783169556999352600,0.3913525390625,0.0020049987360835075,0.0002842978574335575,0.000412945169955492
1783169557009422600,0.401422607421875,0.001045461744070053,0.00038443272933363914,-0.0008643066976219416
1783169557019491600,0.41149169921875,0.0007040614727884531,-0.0020973575301468372,0.0004490602295845747
1783169557029560600,0.421560546875,0.0011224440531805158,0.0011618188582360744,0.001027498859912157
1783169557039630600,0.431630615234375,0.0028255339711904526,-0.000794148538261652,0.0030808541923761368
1783169557049699600,0.441699462890625,0.002776265610009432,0.0010426337830722332,-0.0010377243161201477
1783169557059768600,0.4517685546875,-0.00006502377800643444,-0.0013157366774976254,-0.00018128985539078712
1783169557069838800,0.4618388671875,0.0010859944159165025,0.0003354237414896488,0.0000730419997125864
1783169557079907600,0.471907470703125,0.0014768220717087388,-0.0001880158670246601,-0.0028492920100688934
1783169557089976600,0.4819765625,0.00027866591699421406,0.0008559431880712509,0.000017334474250674248
1783169557100046600,0.492046630859375,0.00041003915248438716,0.00033742887899279594,0.0025056113954633474
1783169557110115600,0.502115478515625,-0.002361246384680271,0.00015127379447221756,0.0009697664063423872
1783169557120184600,0.5121845703125,-0.0027760255616158247,-0.00006244005635380745,0.0006543975323438644
1783169557130254800,0.5222548828125,0.0018565432401373982,0.0011021601967513561,-0.001923808827996254
1783169557140323600,0.532323486328125,-0.001887597842141986,-0.0011632670648396015,-0.0004326500929892063
1783169557150392600,0.542392578125,0.0002269520191475749,-0.00214757164940238,0.0020211865194141865
1783169557160462600,0.552462646484375,0.00003688177093863487,-0.0003358195535838604,-0.0011425623670220375
1783169557170531800,0.56253173828125,-0.00030293758027255535,0.0003392919898033142,0.0023451135493814945
1783169557180600600,0.5726005859375,0.00007152080070227385,-0.00020584790036082268,0.0004232728388160467
1783169557190670800,0.5826708984375,0.001645448966883123,-0.0010261009447276592,0.00062354258261621
1783169557200739600,0.592739501953125,-0.00006373354699462652,-0.0009064008481800556,-0.0010601396206766367
1783169557210808800,0.602808837890625,-0.0015340647660195827,0.0012757936492562294,0.0017148740589618683
1783169557220878600,0.612878662109375,0.0014427801361307502,0.00011638645082712173,0.0017293000128120184
1783169557230947800,0.62294775390625,0.00018417020328342915,0.0018823286518454552,0.00037401728332042694
1783169557241016600,0.6330166015625,0.0018169357208535075,0.00047310721129179,0.00018733786419034004
1783169557251086600,0.643086669921875,-0.002344786189496517,-0.0012656706385314465,-0.005447112023830414
1783169557261155600,0.653155517578125,0.0017772731371223927,-0.00006439071148633957,0.0002499530091881752
1783169557271224800,0.663224853515625,0.00006858899723738432,-0.002351247239857912,0.0004116068594157696
1783169557281294600,0.673294677734375,0.0001630081096664071,0.001478792168200016,-0.001594034256413579
1783169557291363800,0.68336376953125,0.00017073133494704962,-0.0012951563112437725,-0.000039813341572880745
1783169557301432600,0.6934326171875,-0.0032590017654001713,-0.004741431679576635,0.0009231436997652054
1783169557311502600,0.703502685546875,-0.0011750779813155532,0.0006485395133495331,-0.002493159379810095
1783169557321571600,0.713571533203125,-0.00038318638689816,0.0008436953648924828,-0.0015466967597603798
1783169557331640800,0.723640869140625,0.0008626403287053108,0.0021640905179083347,-0.0026468485593795776
1783169557341710600,0.733710693359375,-0.001663229544647038,0.00022753514349460602,-0.0006986961234360933
1783169557351779600,0.743779541015625,-0.0024086483754217625,-0.0014169667847454548,-0.0007269254419952631
1783169557361848600,0.7538486328125,-0.0019817505963146687,0.0006964677013456821,-0.00018257973715662956
1783169557371918600,0.763918701171875,-0.00006001337897032499,-0.00032884906977415085,-0.0013290704227983952
1783169557381987600,0.773987548828125,-0.0002717477036640048,-0.0010285107418894768,-0.00035324995405972004
1783169557392056600,0.784056640625,0.0012081708991900086,0.0005906908772885799,-0.00019798753783106804
1783169557402126600,0.794126708984375,0.00036552385427057743,0.0010342872701585293,0.0010567319113761187
1783169557412195600,0.804195556640625,0.00013702467549592257,-0.001222741324454546,-0.0000466157216578722
1783169557422264600,0.8142646484375,0.0001113989856094122,0.0002960488200187683,-0.00019709323532879353
1783169557432334600,0.82433447265625,0.0006301827961578965,0.00037407921627163887,0.000036998651921749115
1783169557442403600,0.834403564453125,0.0007205104338936508,-0.001309987623244524,-0.0010920946951955557
1783169557452472600,0.84447265625,0.0007623220444656909,0.0008314605802297592,0.0016850496176630259
1783169557462542600,0.85454248046875,0.0015568210510537028,0.0032228431664407253,-0.0003138717729598284
1783169557472611600,0.864611572265625,-0.00016810838133096695,0.0008201389573514462,0.001971120247617364
1783169557482680600,0.8746806640625,-0.0005847977008670568,0.0012018685229122639,-0.0014921887777745724
1783169557492750600,0.88475048828125,-0.001373359584249556,0.0017531425692141056,0.0006023875903338194
1783169557502819600,0.894819580078125,-0.001217783079482615,0.0006534112617373466,-0.0007821605540812016
1783169557512888600,0.904888671875,-0.00008008081931620836,-0.0005402178503572941,0.0012058892752975225
1783169557522958800,0.914958740234375,-0.0018542826874181628,-0.0008908896706998348,0.00025807879865169525
1783169557533027600,0.925027587890625,0.0003337704110890627,0.00160502502694726,-0.0006689673755317926
1783169557543096600,0.9350966796875,-0.00033217761665582657,-0.0010182466357946396,-0.0020603102166205645
1783169557553166600,0.94516650390625,-0.0030483356676995754,-0.00023793987929821014,0.0007983269169926643
1783169557563235800,0.95523583984375,0.0010156796779483557,0.0011743418872356415,-0.002171711763367057
1783169557573304600,0.9653046875,-0.001372376922518015,-0.0012315581552684307,0.0008176867850124836
1783169557583374800,0.975374755859375,-0.0008713214192539454,-0.002159317024052143,-0.00041493121534585953
1783169557593444400,0.9854443359375,0.001491434988565743,-0.0005875192582607269,-0.000049545662477612495
1783169557603513300,0.995513427734375,-0.00007050565909594297,0.00024935510009527206,-0.0017812682781368494
1783169557613583400,1.005583251953125,0.00046399072743952274,0.0014408533461391926,0.0015167903620749712
1783169557623652000,1.015652099609375,-0.0010958799393847585,-0.0008304542861878872,-0.0003584842197597027
1783169557633721300,1.025721435546875,-0.0005187729839235544,0.0008129822090268135,0.0005451261531561613
1783169557643791000,1.035791015625,0.000260242260992527,0.0008106003515422344,0.0002593107055872679
1783169557653860400,1.0458603515625,0.001993960002437234,0.0016130106523633003,-0.0010594865307211876
1783169557663929300,1.055929443359375,-0.001891501247882843,-0.0017348467372357845,-0.004356940742582083
1783169557673999400,1.065999267578125,0.00019588449504226446,-0.002423806581646204,-0.00042451731860637665
1783169557684068000,1.076068115234375,-0.0009508833754807711,0.0002795383334159851,0.001322148134931922
1783169557694137300,1.086137451171875,-0.000087486463598907,-0.0004464392550289631,0.0008651497773826122
1783169557704207000,1.09620703125,-0.0026301362086087465,0.0004251147620379925,-0.00020337291061878204
1783169557714276400,1.1062763671875,0.0007757805869914591,0.0004743831232190132,-0.0016260333359241486
1783169557724345000,1.116344970703125,-0.002817846368998289,-0.0014512045308947563,0.0018519122386351228
1783169557734415400,1.126415283203125,0.00023679970763623714,0.00045481929555535316,0.002674030140042305
1783169557744484000,1.136484130859375,-0.001307954778894782,0.0015884232707321644,-0.0011396545451134443
1783169557754553300,1.14655322265625,0.0006452076486311853,-0.00058791134506464,-0.0006403119768947363
1783169557764623000,1.156623046875,0.0007788705406710505,-0.0012797187082469463,-0.0006331594195216894
1783169557774692400,1.1666923828125,-0.0003100959584116936,0.0003916816785931587,0.0012350482866168022
1783169557784761000,1.176760986328125,0.00016649917233735323,-0.0009576808661222458,-0.0006053824909031391
1783169557794831400,1.186831298828125,-0.0011024969862774014,-0.000003470107913017273,-0.0004392010159790516
1783169557804900000,1.196900146484375,-0.0022385457996279,0.001304959412664175,0.0011903608683496714
1783169557814969300,1.20696923828125,-0.001095783431082964,-0.00132730882614851,-0.0009271185845136642
1783169557825039400,1.217039306640625,-0.00003140699118375778,-0.001234882976859808,0.002862930065020919
1783169557835108400,1.2271083984375,-0.00025511253625154495,0.0012122956104576588,0.0007960507646203041
1783169557845177000,1.237177001953125,-0.0005159894935786724,-0.001229114830493927,-0.0012707484420388937
1783169557855247400,1.247247314453125,0.00022623350378125906,0.0005304352380335331,-0.00233121938072145
1783169557865316000,1.257316162109375,-0.002881955821067095,-0.0016141152009367943,0.004092567600309849
1783169557875385300,1.26738525390625,0.001327170291915536,0.0002655433490872383,0.0007907806430011988
1783169557885455400,1.277455322265625,-0.001398061285726726,0.0005693826824426651,-0.0013080250937491655
1783169557895524400,1.2875244140625,-0.0005120276473462582,-0.0003957473672926426,0.00023793987929821014
1783169557905593000,1.297593017578125,0.001401291461661458,-0.0001286766491830349,-0.000421715434640646
1783169557915663400,1.307663330078125,0.001162938540801406,-0.0010360153391957283,-0.0022379914298653603
1783169557925732400,1.317732421875,0.0006341600092127919,-0.0006798999384045601,0.002622853498905897
1783169557935801300,1.32780126953125,0.0011739827459678054,0.000416523776948452,0.00006595253944396973
1783169557945871400,1.337871337890625,-0.001853547408245504,-0.001702960580587387,0.0014507831074297428
1783169557955940400,1.3479404296875,-0.0021520876325666904,0.0002712402492761612,-0.001937290420755744
1783169557966009300,1.35800927734375,-0.002160556148737669,-0.0013227355666458607,-0.00028202636167407036
1783169557976079000,1.3680791015625,0.002563891466706991,-0.00036000320687890053,-0.0018258607015013695
1783169557986148400,1.3781484375,0.002487278077751398,-0.000265008769929409,0.0012126530054956675
1783169557996217300,1.38821728515625,0.00235571782104671,0.0008271532133221626,0.00003180745989084244
1783169558006287400,1.398287353515625,-0.00012676604092121124,0.0010848077945411205,0.0020168707706034184
1783169558016356400,1.4083564453125,0.0019606195855885744,-0.0007714149542152882,-0.0020063668489456177
1783169558026425300,1.41842529296875,-0.001063517527654767,-0.001712824683636427,-0.0010485299862921238
1783169558036495000,1.4284951171875,-0.0009761657565832138,-0.003031622152775526,-0.000751853920519352
1783169558046564400,1.438564453125,0.0003523724735714495,0.002770900260657072,0.0009415659587830305
1783169558056633300,1.44863330078125,-0.0006497749127447605,0.0002084067091345787,-0.0009889593347907066
1783169558066703400,1.458703369140625,0.0008252785191871226,-0.001090177334845066,-0.0014838087372481823
1783169558076772000,1.468772216796875,-0.00166637497022748,0.0013902904465794563,0.0003865291364490986
1783169558086841300,1.47884130859375,-0.0007042505312711,0.0009767725132405758,-0.000688477186486125
1783169558096911000,1.4889111328125,-0.0003607027465477586,-0.002526349388062954,-0.0026722655165940523
1783169558106980400,1.49898046875,-0.00036783493123948574,0.00033096689730882645,-0.0007468208204954863
1783169558117049300,1.50904931640625,-0.002769473474472761,-0.0014834445901215076,0.0007256411481648684
1783169558127119400,1.519119384765625,0.0017721205949783325,0.0019810483790934086,0.0001441393978893757
1783169558137188000,1.52918798828125,-0.001397839980199933,0.000011374708265066147,-0.0017336555756628513
1783169558147257300,1.53925732421875,-0.0016024329233914614,-0.00416930578649044,-0.0010979326907545328
1783169558157327000,1.5493271484375,-0.0008663351181894541,-0.0015181293711066246,-0.0007075134199112654
1783169558167396400,1.559396240234375,0.0016718306578695774,-0.0027033258229494095,0.004067009314894676
1783169558177465000,1.569465087890625,0.00026674685068428516,0.001732169184833765,-0.0007975208573043346
1783169558187535400,1.579535400390625,0.001418004627339542,0.0009994418360292912,-0.00173975620418787
1783169558197604000,1.58960400390625,0.0008944271830841899,-0.0013286937028169632,-0.0010172408074140549
1783169558207673300,1.59967333984375,0.0038831857964396477,0.0017929160967469215,0.00038338243030011654
1783169558217743000,1.6097431640625,0.0025611924938857555,0.002689069602638483,-0.0005668336525559425
1783169558227812400,1.619812255859375,-0.0013474102597683668,0.002603915985673666,-0.0001169019378721714
1783169558237881000,1.629881103515625,0.00274826493114233,0.0013999007642269135,-0.002078586257994175
1783169558247951400,1.639951416015625,-0.0005061707925051451,-0.0022911708801984787,-0.0009913940448313951
1783169558258020000,1.65002001953125,-0.0015919414581730962,0.00045028701424598694,-0.0006001756992191076
1783169558268089300,1.66008935546875,0.00045773317106068134,-0.002059223596006632,0.003205457702279091
1783169558278159400,1.670159423828125,0.001456684898585081,0.0013823793269693851,-4.55416738986969e-7
1783169558288228400,1.680228271484375,-0.0013395606074482203,0.0001923288218677044,0.0004453817382454872
1783169558298297000,1.690297119140625,0.00018323492258787155,-0.0015437859110534191,0.0011015846394002438
1783169558308367400,1.700367431640625,-0.0029776250012218952,-0.001489199697971344,0.002606989350169897
1783169558318436400,1.710436279296875,0.0002519903937354684,0.0004546418786048889,0.0013260089326649904
1783169558328505300,1.72050537109375,0.0015688433777540922,0.0025421548634767532,0.0009226086549460888
1783169558338575400,1.730575439453125,0.0002215502317994833,0.00028699031099677086,-0.0016598589718341827
1783169558348644400,1.740644287109375,0.0004892377182841301,-0.0016799564473330975,-0.0016335747204720974
1783169558358713000,1.750713134765625,0.002500190632417798,0.0016362112946808338,-0.0005496684461832047
1783169558368783400,1.760783447265625,-0.0004836864536628127,0.0014853519387543201,-0.0015676100738346577
1783169558378852400,1.770852294921875,-0.0020309831015765667,0.0010938672348856926,-0.0015753330662846565
1783169558388921300,1.78092138671875,-0.0007031889399513602,-0.00043380260467529297,0.00015759235247969627
1783169558398990000,1.790989990234375,0.0013434503925964236,0.00028418563306331635,-0.001494632801041007
1783169558409060400,1.801060302734375,0.0008990389760583639,-0.0016945255920290947,-0.0003437553532421589
1783169558419129300,1.81112939453125,-0.001073031802661717,-0.00004309928044676781,0.0005417456850409508
1783169558429198300,1.8211982421875,0.0005444044945761561,-0.0013292874209582806,-0.00027531967498362064
1783169558439268400,1.831268310546875,-0.0013232702622190118,0.0011362666264176369,0.0017196543049067259
1783169558449337300,1.84133740234375,-0.0008661532774567604,-0.0006854082457721233,0.0016861471813172102
1783169558459406300,1.85140625,0.0012430703500285745,0.0005036932416260242,0.0008427239954471588
1783169558469476000,1.86147607421875,-0.000005650334060192108,-0.0017298492603003979,0.0019818891305476427
1783169558479545300,1.87154541015625,-0.0013619981473311782,-0.0009087971411645412,0.0007602970581501722
1783169558489614300,1.8816142578125,-0.0012272613821551204,-0.0009241336956620216,-0.002734996611252427
1783169558499684400,1.891684326171875,0.0013040732592344284,0.0002697613090276718,-0.0020409768912941217
1783169558509753300,1.90175341796875,0.0006480764131993055,0.00032119685783982277,0.001882233889773488
1783169558519822300,1.911822265625,-0.0006749819731339812,0.0005936385132372379,-0.0010981098748743534
1783169558529892000,1.92189208984375,-0.001586511847563088,0.0002449704334139824,0.0032945468556135893
1783169558539961300,1.93196142578125,-0.0004663862055167556,-0.0002652914263308048,-0.0002415983472019434
1783169558550030300,1.9420302734375,0.0006795937079004943,-0.0001278589479625225,-0.00047536659985780716
1783169558560100400,1.952100341796875,-0.0006258878856897354,-0.00325680710375309,0.0020908555015921593
1783169558570169000,1.962169189453125,-0.002192526590079069,-0.0009283842518925667,-0.00009912531822919846
1783169558580238300,1.97223828125,-0.0011475022183731198,0.0009470134973526001,-0.0007649154867976904
1783169558590308000,1.98230810546875,0.0012125318171456456,0.0005032932385802269,0.0011256341822445393
1783169558600377300,1.99237744140625,0.0013187919976189733,0.00018637673929333687,0.0016452169511467218
1783169558610446300,2.0024462890625,-0.0002033160999417305,0.0011634426191449165,0.00242701661773026
1783169558620516400,2.012516357421875,0.0005631416570395231,0.0006081736646592617,0.001305825775489211
1783169558630585000,2.022585205078125,-0.0003557854797691107,0.0003703278489410877,0.002939102705568075
1783169558640654300,2.032654296875,0.0013976397458463907,0.00020281504839658737,-0.0004452425055205822
1783169558650724400,2.042724365234375,-0.0005893217166885734,-0.0023047500289976597,-0.0006866920739412308
1783169558660793300,2.05279345703125,-0.0008843999821692705,0.00024336250498890877,0.0011306491214782
1783169558670862000,2.062862060546875,-0.000869474490173161,-0.0013875532895326614,0.0017404805403202772
1783169558680932400,2.072932373046875,0.0004578449297696352,0.0003680023364722729,0.001285080099478364
1783169558691001300,2.08300146484375,-0.0017549402546137571,-0.0009052138775587082,-0.003117169486358762
1783169558701070300,2.0930703125,0.0010179431410506368,-0.0004937555640935898,-0.002263626316562295
1783169558711140400,2.103140380859375,-0.0015508406795561314,-0.00218841340392828,0.003104916773736477
1783169558721209300,2.113209228515625,0.0010646497830748558,-0.0023905476555228233,0.0017677436117082834
1783169558731278300,2.1232783203125,-0.0009162509813904762,0.0027117161080241203,-0.00021255039609968662
1783169558741348400,2.133348388671875,0.00015247566625475883,-0.0007410724647343159,-0.0007446503732353449
1783169558751417300,2.143417236328125,-0.0005684414645656943,0.00045694923028349876,-0.00024858396500349045
1783169558761486300,2.153486328125,-0.0002240947214886546,0.002276421058923006,0.0009082932956516743
1783169558771556400,2.163556396484375,-0.0014010189333930612,0.0015620063059031963,-0.0007008244283497334
1783169558781625300,2.173625244140625,-0.0009288404835388064,-0.0003168541006743908,-0.001893121749162674
1783169558791694300,2.1836943359375,0.0008953941869549453,0.001101144589483738,-0.003645033808425069
1783169558801764400,2.193764404296875,0.0021518736612051725,0.0010971496812999249,-0.00409404281526804
1783169558811833300,2.203833251953125,0.000512376893311739,-0.0023800344206392765,-0.0007269685156643391
1783169558821902300,2.21390234375,-0.00033051357604563236,-0.0003658863715827465,-0.00074774120002985
1783169558831972400,2.223972412109375,-0.000043064472265541553,0.001134001649916172,-0.0011981623247265816
1783169558842041300,2.234041259765625,-0.00008540868293493986,-0.001260180026292801,0.0010468822438269854
1783169558852110300,2.2441103515625,0.0003169885603711009,0.00044750748202204704,0.0009879320859909058
1783169558862180400,2.254180419921875,0.0003633275628089905,-0.00020416779443621635,-0.0007431225385516882
1783169558872249300,2.264249267578125,-0.0003650417784228921,-0.0016201389953494072,-0.0018725618720054626
1783169558882318300,2.274318359375,-0.0021738605573773384,0.0010667238384485245,0.001863054116256535
1783169558892388400,2.284388427734375,-0.0012486334890127182,0.00017503416165709496,-0.0007393076084554195
1783169558902457300,2.294457275390625,-0.0015975076239556074,0.0025796019472181797,-0.002959052100777626
1783169558912526300,2.3045263671875,-0.0016420185565948486,0.0005984250456094742,0.0028296189848333597
1783169558922596000,2.31459619140625,-0.00018899794667959213,0.001738790888339281,-0.0004961367230862379
1783169558932665300,2.324665283203125,-0.0014995449455454946,-0.001295170746743679,0.0013143937103450298
1783169558942734300,2.334734375,0.0008232641848735511,-0.002150045707821846,0.00024513457901775837
1783169558952804400,2.344804443359375,0.0016129303257912397,-0.0023121368139982224,-0.0011263457126915455
1783169558962873300,2.354873291015625,-0.0001812413102015853,-0.0017408886924386024,0.0004944540560245514
1783169558972942300,2.3649423828125,-0.0008955196244642138,0.000001112464815378189,0.0034239869564771652
1783169558983012000,2.37501220703125,0.0008467203006148338,-0.0003275214694440365,0.001960047520697117
1783169558993081300,2.385081298828125,-0.0024683456867933273,-0.0003714635968208313,0.00010600942187011242
1783169559003150300,2.395150390625,0.0005602010060101748,0.0018328353762626648,0.0002836422063410282
1783169559013220400,2.405220458984375,0.00010800547897815704,0.0008206218481063843,0.000716448063030839
1783169559023289000,2.4152890625,-0.0019317095866426826,-0.001856920775026083,0.0005729037802666426
1783169559033358300,2.4253583984375,0.0016378210857510567,-0.0003970898687839508,-0.0008455240167677402
1783169559043428400,2.435428466796875,-0.000515611027367413,-0.0005126716569066048,0.0004351900424808264
1783169559053497300,2.445497314453125,-0.00023851729929447174,-0.0005061794072389603,0.0016441871412098408
1783169559063566000,2.455566162109375,-0.00038605649024248123,-0.0013554608449339867,0.0018868009792640805
1783169559073636400,2.46563623046875,-0.00022916716989129782,0.0008635697886347771,0.0003349191974848509
1783169559083705300,2.475705322265625,-0.00003768585156649351,0.0001032371073961258,-0.0004477838519960642
1783169559093774300,2.4857744140625,-0.00004027760587632656,-0.00026427535340189934,0.0004095076583325863
1783169559103843300,2.49584326171875,-0.0012530811363831162,0.0002678236924111843,0.0006100437603890896
1783169559113913300,2.505913330078125,-0.00221532816067338,-0.0020278627052903175,-0.00040936144068837166
1783169559123982300,2.515982421875,0.0000017535639926791191,-0.0010486189275979996,0.0002628203947097063
1783169559134052400,2.52605224609375,-0.0031909721437841654,-0.0005854545161128044,-0.0009733701590448618
1783169559144121300,2.536121337890625,0.0007979103829711676,0.0011695683933794498,0.000783517025411129
1783169559154190300,2.5461904296875,-0.0014435900375247002,-0.00069821672514081,-0.0017600401770323515
1783169559164260400,2.55626025390625,-0.0005469038151204586,0.00028209295123815536,-0.0002662732731550932
1783169559174329300,2.566329345703125,-0.0012720939703285694,0.0025222976692020893,-0.00190485711209476
1783169559184398300,2.5763984375,0.0012014501262456179,-0.00103701651096344,-0.002080359263345599
1783169559194467300,2.58646728515625,0.0012818214017897844,0.001766531728208065,0.003192327218130231
1783169559204537300,2.596537353515625,-0.00034510367549955845,0.0011478797532618046,0.0018745951820164919
1783169559214606300,2.6066064453125,0.0006125973304733634,-0.0012466493062675,0.0008509198669344187
1783169559224675300,2.61667529296875,0.0006426910404115915,0.0008284854702651501,0.0010882075875997543
1783169559234745300,2.626745361328125,-0.0010298113338649273,0.0010791388340294361,0.0010314167011529207
1783169559244814300,2.636814453125,-0.0011512513738125563,0.00041254982352256775,0.0003512455150485039
1783169559254883300,2.64688330078125,-0.000060527236200869083,-0.0005563707090914249,-0.002762730000540614
1783169559264953300,2.656953369140625,0.0012952880933880806,-0.002102335449308157,-0.000968824839219451
1783169559275022300,2.667022216796875,-0.0023791766725480556,-0.0011497908271849155,0.0006389326881617308
1783169559285091300,2.67709130859375,0.0009548346279188991,0.00022120401263237,-0.000724871875718236
1783169559295161300,2.687161376953125,0.0005113789229653776,-0.00035951100289821625,0.0011891096364706755
1783169559305230300,2.697230224609375,-0.0021773483604192734,0.0013124216347932816,0.0013571551535278559
1783169559315299300,2.70729931640625,0.0017317835008725524,0.0006694872863590717,0.00022032042033970356
1783169559325369300,2.717369384765625,-0.0014126108726486564,0.0004226122982800007,0.0009660057257860899
1783169559335438300,2.727438232421875,-0.00016586726997047663,-0.00029348209500312805,0.0011417167261242867
1783169559345507300,2.73750732421875,-0.00017092726193368435,-0.0007171910256147385,0.002056512515991926
1783169559355577300,2.747577392578125,-0.0003884788602590561,-0.000727605540305376,0.0005783156957477331
1783169559365646300,2.757646240234375,0.00025520718190819025,-0.0019430718384683132,0.00033889757469296455
1783169559375715300,2.76771533203125,-0.0016330010257661343,-0.0011704936623573303,-0.0006123448256403208
1783169559385785300,2.777785400390625,0.0006128427921794355,0.000524607952684164,-0.00266883778385818
1783169559395854300,2.787854248046875,-0.0009570970432832837,0.0013941922225058079,0.00040771649219095707
1783169559405923300,2.79792333984375,0.0003979192115366459,-0.00048653222620487213,-0.0010194715578109026
1783169559415993000,2.8079931640625,0.00012293539475649595,-0.00040589598938822746,0.00019593373872339725
1783169559426062300,2.818062255859375,-0.00040516944136470556,-0.0005044327117502689,-0.0015508336946368217
1783169559436131300,2.82813134765625,-0.0011207754723727703,-0.0033666840754449368,0.00037780567072331905
1783169559446201300,2.838201416015625,0.0005873760092072189,0.0010312600061297417,0.0031192635651677847
1783169559456270300,2.848270263671875,-0.0004512747982516885,-0.003384146373718977,-0.001211568946018815
1783169559466339300,2.85833935546875,0.0012307778233662248,-0.00009301211684942245,-0.000900245038792491
1783169559476409000,2.8684091796875,-0.0013075071619823575,-0.0017545395530760288,-0.0010024860966950655
1783169559486478300,2.878478271484375,-0.0008331980789080262,0.0005975640378892422,-0.0006903635803610086
1783169559496547300,2.88854736328125,-0.002079416997730732,-0.000512734055519104,0.000283852219581604
1783169559506617300,2.898617431640625,-0.0029436126351356506,0.001093951053917408,-0.00008259876631200314
1783169559516686000,2.90868603515625,-0.0001693343510851264,-0.0002893512137234211,0.003942908253520727
1783169559526755300,2.91875537109375,-0.0008633541874587536,0.0008632652461528778,-0.004279601387679577
1783169559536825300,2.928825439453125,-0.0015997336013242602,-0.001000632531940937,-0.0012577676679939032
1783169559546894300,2.938894287109375,0.00022799393627792597,-0.00003230758011341095,0.003157220780849457
1783169559556963300,2.94896337890625,-0.000548123731277883,-0.002739901654422283,0.002872003708034754
1783169559567033300,2.959033447265625,-0.00027861178386956453,-0.0009614424780011177,-0.001337655121460557
1783169559577102300,2.969102294921875,0.0004567868309095502,-0.0017720269970595837,-0.0008530423510819674
1783169559587171300,2.97917138671875,-0.0012180751655250788,-0.002189077902585268,-0.0009851350914686918
1783169559597240800,2.98924072265625,-0.0010457612806931138,-0.000576977152377367,-0.0010326406918466091
1783169559607309800,2.999309814453125,0.0004016668535768986,0.0011743176728487015,0.0015847140457481146
1783169559617379000,3.009379150390625,-0.00008979393169283867,-0.0009127575904130936,0.0016095773316919804
1783169559627448800,3.01944873046875,0.00037119921762496233,-0.000216607004404068,-0.002621653024107218
1783169559637517800,3.029517822265625,0.0003854257520288229,-0.001337108202278614,-0.0020892571192234755
1783169559647586800,3.0395869140625,0.0007880956982262433,0.0022933129221200943,0.0009294361807405949
1783169559657656800,3.04965673828125,-0.0013448572717607021,-0.0008410275913774967,0.0013068157713860273
1783169559667725800,3.059725830078125,0.0014245639322325587,0.0013949624262750149,0.0005582012236118317
1783169559677794800,3.069794921875,0.0001595987705513835,-0.0020365677773952484,0.0021011601202189922
1783169559687864800,3.07986474609375,-0.0026793309953063726,0.0007586865685880184,-0.0020810679998248816
1783169559697933800,3.089933837890625,0.0003656113985925913,-0.00101846968755126,-0.001015910180285573
1783169559708002800,3.1000029296875,-0.0018991408869624138,-0.0019820011220872402,0.000819540349766612
1783169559718072800,3.11007275390625,-0.0009624396916478872,-0.0005408586002886295,-0.000908048590645194
1783169559728141800,3.120141845703125,-0.000551247620023787,-0.00018026726320385933,-0.0011623806785792112
1783169559738210800,3.1302109375,0.00009152851998806,-0.0006796927191317081,0.0009709727019071579
1783169559748281000,3.140281005859375,0.0014316311571747065,0.00018050801008939743,-0.0005949658807367086
1783169559758349800,3.150349853515625,-0.0013070597779005766,-0.0012875166721642017,0.0017742679920047522
1783169559768418800,3.160418701171875,-0.0013904168736189604,0.00004353094846010208,-0.0013762516900897026
1783169559778488800,3.17048876953125,0.0011815190082415938,0.001030419021844864,0.000461469404399395
1783169559788558000,3.18055810546875,0.0006861710571683943,-0.0013589686714112759,0.000440430361777544
1783169559798626800,3.190626708984375,-0.00011213007383048534,0.0008868682198226452,-0.0010065939277410507
1783169559808697000,3.200697021484375,0.0003318189410492778,0.001496465876698494,0.0006325817666947842
1783169559818765800,3.210765869140625,-0.00084827677346766,0.0010248958133161068,0.0002823406830430031
1783169559828835000,3.2208349609375,-0.0004362857434898615,-0.0000012200325727462769,0.001752139301970601
1783169559838904800,3.23090478515625,-0.001188509282656014,-0.0007357071153819561,-0.0016324922908097506
1783169559848974000,3.24097412109375,0.0018778543453663588,0.0004909452982246876,-0.0016487378161400557
1783169559859042800,3.251042724609375,0.0009604993974789977,-0.00003041280433535576,-0.00044668535701930523
1783169559869111800,3.26111181640625,-0.00010103662498295307,-0.0023782560601830482,-0.00019821268506348133
1783169559879181800,3.271181884765625,-0.001318239257670939,0.0006500473245978355,0.001604324672371149
1783169559889251000,3.2812509765625,0.002212046878412366,-0.001125216018408537,-0.00267644040286541
1783169559899319800,3.29131982421875,0.00005182460881769657,0.0011436841450631618,0.00031325221061706543
1783169559909390000,3.30139013671875,0.0006369210896082222,-0.0003008143976330757,-0.0014817183837294579
1783169559919458800,3.311458740234375,0.00071249611210078,-0.0009920056909322739,0.0015440268907696009
1783169559929528000,3.321528076171875,-0.0024545351043343544,-0.00010996684432029724,0.0028939831536263227
1783169559939597800,3.331597900390625,0.00022935355082154274,0.0004144050180912018,0.0004440008196979761
1783169559949667000,3.3416669921875,-0.0000750457402318716,-0.0011701760813593864,-0.001076397718861699
1783169559959735800,3.35173583984375,-0.0010056247701868415,-0.0011205971240997314,0.0009069463703781366
1783169559969806000,3.36180615234375,-0.0002583417808637023,0.0002970038913190365,-0.0005159804131835699
1783169559979874800,3.371874755859375,0.001293016946874559,-0.0020315577276051044,0.0009122057817876339
1783169559989944000,3.381944091796875,0.001040549366734922,0.002405801322311163,0.0002922220155596733
1783169560000013800,3.392013916015625,-0.0012896927073597908,0.0003013554960489273,-0.0007097860798239708
1783169560010083000,3.4020830078125,-0.0009410849306732416,-0.000046187080442905426,-0.00036330893635749817
1783169560020151800,3.41215185546875,0.0009481634479016066,-0.0005193236283957958,-0.00022953609004616737
1783169560030221800,3.422221923828125,0.001767884474247694,0.0011571361683309078,0.000890323193743825
1783169560040290800,3.432290771484375,-0.00008153903763741255,0.001729306299239397,-0.0020104795694351196
1783169560050360000,3.442360107421875,0.0004958342760801315,-0.0021368046291172504,0.001819678582251072
1783169560060429800,3.452429931640625,0.0006524086347781122,-0.00007378077134490013,0.0020297481678426266
1783169560070498800,3.462498779296875,-0.002804640680551529,0.000994679518043995,-0.0002911968622356653
1783169560080567800,3.47256787109375,0.0006712229805998504,0.0006533032283186913,0.00010532001033425331
1783169560090637800,3.482637939453125,0.0011897404910996556,0.0023619872517883778,-0.00008536223322153091
1783169560100706800,3.492706787109375,0.00029073702171444893,-0.00037437397986650467,0.0027449193876236677
1783169560110776000,3.502776123046875,0.0013858289457857609,0.001843772828578949,0.0006466147024184465
1783169560120845800,3.512845703125,0.0005939449183642864,0.000322035513818264,-0.0017742561176419258
1783169560130914800,3.522914794921875,0.0005231047980487347,-0.0013168738223612309,-0.0005822251550853252
1783169560140983800,3.53298388671875,0.0017482810653746128,0.0012125885114073753,0.0019193153129890561
1783169560151053800,3.5430537109375,-0.0011614885879680514,0.0024424362927675247,0.00038000824861228466
1783169560161122800,3.553122802734375,-0.00020734407007694244,0.00037083541974425316,0.0036495693493634462
1783169560171191800,3.56319189453125,-0.0008108164183795452,-0.0006608734838664532,-0.0010450512636452913
1783169560181261800,3.57326171875,0.0003980585024692118,0.001185770146548748,0.0010302152950316668
1783169560191330800,3.583330810546875,0.0017924895510077477,-0.0002970779314637184,-0.0025378880091011524
1783169560201399800,3.59339990234375,-0.0010738368146121502,-0.0016219443641602993,-0.002818870358169079
1783169560211469800,3.6034697265625,-0.0020650653168559074,0.0010350914672017097,-0.00042016152292490005
1783169560221538800,3.613538818359375,0.0007869373657740653,0.002102064900100231,-0.0016589395236223936
1783169560231607800,3.62360791015625,-0.0011313376016914845,-0.00030516646802425385,0.00016692373901605606
1783169560241678000,3.633677978515625,0.00041524256812408566,0.0009656772017478943,0.0015060922596603632
1783169560251746800,3.643746826171875,-0.00009049172513186932,0.00029828911647200584,0.0015423111617565155
1783169560261815800,3.65381591796875,-0.000011027557775378227,0.000696045346558094,0.000573714729398489
1783169560271885800,3.6638857421875,0.0009618251933716238,0.001761576160788536,0.0006847684271633625
1783169560281955000,3.673955078125,0.0013726799516007304,-0.00086624501273036,0.0017071864567697048
1783169560292023800,3.68402392578125,-0.0005575792165473104,-0.0013879579491913319,0.002995357383042574
1783169560302094000,3.694093994140625,-0.0009092852706089616,0.0011308621615171432,0.0016401391476392746
1783169560312162800,3.704162841796875,0.002046823501586914,-0.00044013652950525284,-0.0032126728910952806
1783169560322232000,3.714232177734375,-0.00026773358695209026,-0.00008748751133680344,-0.0006678749341517687
1783169560332301800,3.7243017578125,0.0008971330244094133,0.001659812405705452,0.00045677809976041317
1783169560342371000,3.73437109375,-0.0017016422934830189,-0.003310722764581442,0.0001391016412526369
1783169560352439800,3.744439697265625,0.0017146605532616377,-0.001348238904029131,-0.0007930046413093805
1783169560362510000,3.754510009765625,-0.0008270548423752189,-0.001299421302974224,0.001049768179655075
1783169560372578800,3.764578857421875,-0.0006712599424645305,-0.0025471122935414314,0.0016537730116397142
1783169560382648000,3.77464794921875,0.00004464678931981325,0.00041766325011849403,-0.00042727706022560596
1783169560392717800,3.7847177734375,0.0014177727280184627,0.0010898448526859283,0.0005439778324216604
1783169560402787000,3.794787109375,-0.000768012716434896,-0.0027877255342900753,-0.00046847504563629627
1783169560412855800,3.804855712890625,0.0002642284380272031,-0.00040153367444872856,0.0034058918245136738
1783169560422925800,3.81492578125,0.0006994320428930223,0.0006633824668824673,0.002928770612925291
1783169560432994800,3.824994873046875,-0.0004308135248720646,0.00032622646540403366,-0.00031495955772697926
1783169560443064000,3.83506396484375,-0.001963238697499037,-0.0012452341616153717,0.00015400745905935764
1783169560453133800,3.8451337890625,0.0009087143698707223,-0.0003994135186076164,0.0006975587457418442
1783169560463203000,3.855203125,0.000553273072000593,-0.0010416144505143166,0.00016549811698496342
1783169560473271800,3.865271728515625,-0.0020124162547290325,0.001199169084429741,0.0008230325765907764
1783169560483341800,3.875341796875,0.001177702215500176,-0.0005429843440651894,0.0005819152574986219
1783169560493410800,3.885410888671875,-0.0035036024637520313,-0.0012801475822925568,0.0009337188675999641
1783169560503480000,3.89547998046875,0.00004288007039576769,0.0006873980164527893,0.0013603768311440945
1783169560513549800,3.9055498046875,0.0001318296417593956,0.0013952665030956268,0.0011619713623076677
1783169560523618800,3.915618896484375,0.002611347706988454,0.001972437836229801,-0.00037128617987036705
1783169560533687800,3.925687744140625,-0.0003109389217570424,0.001236872747540474,-0.0015412131324410439
1783169560543757800,3.9357578125,-0.000496711116284132,-0.0020735575817525387,0.00044979644007980824
1783169560553826800,3.945826904296875,0.00009291269816458225,0.0024327770806849003,-0.0008373092859983444
1783169560563896000,3.95589599609375,0.001732096541672945,-0.0008331416174769402,0.001575463218614459
1783169560573964800,3.96596484375,0.0011941379634663463,0.002771446481347084,0.0001346929930150509
1783169560584034800,3.976034912109375,-0.0012895904947072268,0.0003385338932275772,-0.0031293972861021757
1783169560594103800,3.986103759765625,0.000887010945007205,-0.0005134111270308495,-0.0005437342915683985
1783169560604173000,3.996173095703125,0.00023046752903610468,0.0024099559523165226,0.0015490681398659945
1783169560614242800,4.006242919921875,-0.0012872678926214576,-0.0016891811974346638,0.0003482487518340349
1783169560624311800,4.016311767578125,-0.0007336578564718366,-0.00015932833775877953,-0.0009285910055041313
1783169560634380800,4.026380859375,0.0002887296723201871,-0.0018632183782756329,0.00014306511729955673
1783169560644450800,4.036450927734375,-0.0003501323517411947,-0.0008971141651272774,0.0008675626013427973
1783169560654519800,4.046519775390625,0.000485034950543195,-0.000013743061572313309,0.0026047425344586372
1783169560664589000,4.056589111328125,0.0008936369558796287,-0.0001621004194021225,0.0012429426424205303
1783169560674658800,4.066658935546875,0.0003961584297940135,0.00010101962834596634,0.00008766353130340576
1783169560684727800,4.076727783203125,0.0006940166349522769,0.00007235957309603691,-0.0010238259565085173
1783169560694796800,4.086796875,0.0002260992769151926,-0.00013510091230273247,0.00040149781852960587
1783169560704866800,4.09686669921875,0.0001511002192273736,-0.00006608199328184128,-0.001379876397550106
1783169560714935800,4.106935791015625,-0.0013338783755898476,-0.00015050452202558517,0.0006715566851198673
1783169560725004800,4.1170048828125,-0.0010388507507741451,-0.001703721471130848,-0.00003098277375102043
1783169560735075000,4.127074951171875,0.0015795693034306169,-0.0010054400190711021,0.0009764910209923983
1783169560745143800,4.137143798828125,0.0024072290398180485,0.0008722897619009018,-0.0001622997224330902
1783169560755212800,4.147212890625,0.0010170591995120049,-0.000011346768587827682,0.00007898267358541489
1783169560765282800,4.15728271484375,-0.0010110808070749044,0.00015173433348536491,0.002665590960532427
1783169560775352000,4.16735205078125,0.0012347628362476826,-0.0016216649673879147,0.0011569103226065636
1783169560785420800,4.1774208984375,-0.002417712938040495,-0.0024142307229340076,-0.0009104199707508087
1783169560795491000,4.187490966796875,0.0007069739513099194,-0.0006293798796832561,0.0010541938245296478
1783169560805559800,4.197559814453125,0.0004929119604639709,-0.0005384101532399654,0.0001857583411037922
1783169560815629000,4.207629150390625,0.0013017139863222837,0.0016440507024526596,-0.0015655364841222763
1783169560825698800,4.21769873046875,0.0012009807396680117,0.0016872398555278778,0.0018718256615102291
1783169560835768000,4.22776806640625,-0.0018304954282939434,-0.0027115028351545334,0.0008789992425590754
1783169560845836800,4.2378369140625,0.002733407076448202,-0.0024415231309831142,0.0015912135131657124
1783169560855907000,4.247906982421875,0.0013264591107144952,0.0005446793511509895,-0.00046075228601694107
1783169560865975800,4.257975830078125,-0.0010848011588677764,0.0011576074175536633,-0.0016227017622441053
1783169560876045000,4.268045166015625,-0.0013955921167507768,-0.0010221898555755615,-0.001775034936144948
1783169560886114800,4.27811474609375,-0.0013186386786401272,-0.0004975483752787113,0.001396833686158061
1783169560896184000,4.28818408203125,-0.000954850809648633,0.0006782370619475842,-0.002733196597546339
1783169560906252800,4.298252685546875,-0.00044128531590104103,0.00007674144580960274,-0.0012140246108174324
1783169560916323000,4.308322998046875,0.0002985408063977957,-0.0012521762400865555,0.00022647902369499207
1783169560926391800,4.318391845703125,0.0023822071962058544,0.00010221730917692184,-0.0011880425736308098
1783169560936461000,4.3284609375,0.0005757850594818592,-0.0006245588883757591,-0.0004415586590766907
1783169560946530800,4.33853076171875,-0.00001639930997043848,-0.0040848334319889545,0.0007838013116270304
1783169560956600000,4.34860009765625,-0.00027898699045181274,0.002508088480681181,-0.003216266632080078
1783169560966668800,4.358668701171875,0.000997863826341927,0.001525282859802246,0.0017241775058209896
1783169560976738800,4.36873876953125,0.0012471356894820929,-0.0007378719747066498,-0.0013227451127022505
1783169560986807800,4.378807861328125,0.0019147410057485104,0.0013674558140337467,0.0022476688027381897
1783169560996877000,4.388876953125,-0.000835239072330296,0.0004436052404344082,0.0005517678800970316
1783169561006946800,4.39894677734375,0.0014408041024580598,-0.0013953857123851776,-0.0004777300637215376
1783169561017015800,4.409015869140625,0.0015798211097717285,0.0008131740614771843,0.0015590556431561708
1783169561027084800,4.419084716796875,-0.00015773437917232513,0.00012448709458112717,0.0009245153050869703
1783169561037154800,4.42915478515625,-0.000336166238412261,0.000664043240249157,-0.0028638311196118593
1783169561047223800,4.439223876953125,0.0007266921456903219,-0.00044877780601382256,0.0012712108436971903
1783169561057293000,4.44929296875,-0.0011383196106180549,0.001059104222804308,0.0010744030587375164
1783169561067362800,4.45936279296875,0.0018466736655682325,-0.0018686354160308838,-0.00027298834174871445
1783169561077431800,4.469431884765625,-0.0008516411762684584,0.0014749630354344845,-0.00022691581398248672
1783169561087500800,4.479500732421875,-0.0007725235773250461,-0.0015277466736733913,-0.0011767847463488579
1783169561097570800,4.48957080078125,-0.001328591606579721,0.0025929627008736134,-0.0008534765802323818
1783169561107639800,4.499639892578125,0.0010771095985546708,-0.00046015018597245216,0.002920147031545639
1783169561117708800,4.509708740234375,-0.00044834904838353395,-0.0019667004235088825,0.004197399131953716
1783169561127779000,4.519779052734375,0.0011051420588046312,0.0006165029481053352,0.0016155557241290808
1783169561137847800,4.529847900390625,0.0003682453534565866,0.0007382095791399479,0.0025934684090316296
1783169561147916800,4.539916748046875,0.0013031131820753217,-0.002370661124587059,-0.0009504957124590874
1783169561157986800,4.54998681640625,0.00064051867229864,0.0009822589345276356,0.0034341327846050262
1783169561168056000,4.56005615234375,-0.002182378200814128,-0.0011234227567911148,0.0003345475997775793
1783169561178124800,4.570124755859375,0.0002112709917128086,0.0012907329946756363,-0.0002103352453559637
1783169561188195000,4.580195068359375,0.0009537807200103998,-0.001307760365307331,-0.00039591826498508453
1783169561198263800,4.590263916015625,0.0010664324508979917,0.0019450243562459946,-0.0021749096922576427
1783169561208332800,4.600332763671875,0.0021120710298419,0.001393251121044159,-0.0005244060885161161
1783169561218402800,4.61040283203125,0.0014502754202112556,0.0004795202985405922,-0.0020834205206483603
1783169561228472000,4.62047216796875,-0.0018909069476649165,0.0013120146468281746,0.0014339445624500513
1783169561238540800,4.630540771484375,0.00043829367496073246,-0.000975907314568758,0.0030041441787034273
1783169561248611000,4.640611083984375,0.0006666075205430388,0.0006641270592808723,-0.00038952194154262543
1783169561258679800,4.6506796875,-0.00029079895466566086,0.0005722483620047569,0.0014493907801806927
1783169561268749000,4.6607490234375,0.0003309830208308995,-0.0009517846629023552,0.0006608020048588514
1783169561278818800,4.67081884765625,0.000692373956553638,0.0007457141764461994,0.0026192907243967056
1783169561288888000,4.68088818359375,0.0004024012596346438,0.00037403497844934464,-0.0004481629002839327
1783169561298956800,4.690956787109375,-0.0003808344481512904,-0.0005380972288548946,0.0006767564918845892
1783169561309026000,4.701026123046875,-0.001339297741651535,0.002011137083172798,0.0012832393404096365
1783169561319095800,4.711095703125,-0.000848743598908186,-0.0002578762359917164,-0.000960473669692874
1783169561329165000,4.7211650390625,-0.0007400738541036844,0.0017145993188023567,0.0002118202392011881
1783169561339233800,4.73123388671875,0.0015158900059759617,-0.0030764276161789894,0.0016536556649953127
1783169561349304000,4.741303955078125,0.001497864257544279,-0.0002166368067264557,0.0014540357515215874
1783169561359372800,4.751372802734375,0.0015466001350432634,0.0004885680973529816,0.0004193976055830717
1783169561369442000,4.761442138671875,-0.0033786138519644737,0.0006703264079988003,0.0013483795337378979
1783169561379511800,4.77151171875,-0.0020395766478031874,0.002613635268062353,0.0005425068084150553
1783169561389581000,4.7815810546875,0.0005365870310924947,0.0016115522012114525,-0.0023348499089479446
1783169561399649800,4.79164990234375,0.0004503006348386407,0.0009415009990334511,0.0007450957782566547
1783169561409720000,4.801719970703125,-0.0012536122230812907,-0.0005404450930655003,-0.000756134046241641
1783169561419788800,4.811788818359375,0.0015325868735089898,0.000027074478566646576,0.0018473723903298378
1783169561429858000,4.821858154296875,0.002413766458630562,-0.0002628285437822342,-0.00045547797344624996
1783169561439927800,4.831927734375,-0.002384450752288103,-0.000047112349420785904,-0.0014411138836294413
1783169561449997000,4.8419970703125,0.000042486353777348995,0.001105590257793665,-0.0017452510073781013
1783169561460065800,4.852065673828125,0.0015338566154241562,-0.000314940232783556,-0.0011814599856734276
1783169561470135800,4.8621357421875,-0.0023456397466361523,0.0016387617215514183,-0.00007054232992231846
1783169561480204800,4.872204833984375,-0.00024520454462617636,-0.0007149404846131802,-0.00036109331995248795
1783169561490274000,4.882274169921875,-0.0014514776412397623,-0.0007209689356386662,0.0020117810927331448
1783169561500343800,4.89234375,0.0016148858703672886,0.0003783842548727989,-0.001534484326839447
1783169561510413000,4.9024130859375,-0.0014713109703734517,-0.0013936841860413551,-0.0015012412331998348
1783169561520481800,4.912481689453125,-0.000538139371201396,0.0005195308476686478,-0.0010748691856861115
1783169561530551800,4.9225517578125,-0.0023153149522840977,-0.000009981449693441391,0.0019252565689384937
1783169561540620800,4.932620849609375,0.00010922702495008707,-0.0008480777032673359,0.0013454863801598549
1783169561550690000,4.94268994140625,-0.0005840277299284935,0.002763346303254366,0.0005692546255886555
1783169561560759800,4.952759765625,-0.00042716762982308865,0.00031803175806999207,0.00044887978583574295
1783169561570828800,4.962828857421875,0.0011638653231784701,0.0005772770382463932,-0.0010329147335141897
1783169561580897800,4.972897705078125,-0.0011381711810827255,-0.0013439273461699486,-0.002558905864134431
1783169561590967800,4.9829677734375,0.0004655634402297437,0.00031508784741163254,-0.0011055737268179655
1783169561601036500,4.99303662109375,0.002391028916463256,-0.0000039585866034030914,-0.0001239327248185873
1783169561611105800,5.003105712890625,-0.001386173884384334,-0.0016537876799702644,0.0020423708483576775
1783169561621175600,5.013175537109375,-0.00000798795372247696,0.002773451153188944,0.001332904677838087
1783169561631244500,5.02324462890625,0.000602574145887047,-0.0009491108357906342,0.0010411979164928198
1783169561641313500,5.0333134765625,0.00009550829418003559,-0.0016391361132264137,-0.0004147521685808897
1783169561651383600,5.043383544921875,-0.0025444861967116594,0.0010561076924204826,-0.0007638467941433191
1783169561661452500,5.05345263671875,0.000253164442256093,0.0007924549281597137,0.00010913750156760216
1783169561671521500,5.063521484375,0.0006096227443777025,-0.0023518255911767483,0.001838027499616146
1783169561681591800,5.073591796875,-0.002182435244321823,-0.00040478864684700966,-0.0006696050986647606
1783169561691660500,5.08366064453125,-0.00034651043824851513,-0.0005710725672543049,0.0012969288509339094
1783169561701729500,5.0937294921875,0.0009081047610379755,-0.000696506816893816,0.0027025453746318817
1783169561711799600,5.103799560546875,0.001330121885985136,-0.0011022388935089111,-0.0015378729440271854
1783169561721868800,5.113868896484375,0.0005876325885765254,-0.001281202770769596,0.0007354014087468386
1783169561731937500,5.1239375,-0.00032998411916196346,0.00028612930327653885,0.0022065157536417246
1783169561742007800,5.1340078125,-0.0005036222282797098,-0.0014587733894586563,0.000485048396512866
1783169561752076500,5.14407666015625,-0.00041194260120391846,-0.003493264317512512,0.0005418313667178154
1783169561762145800,5.154145751953125,0.00031856249552220106,0.0024064360186457634,-0.0013463497161865234
1783169561772215600,5.164215576171875,0.002723078243434429,-0.00023059919476509094,-0.0017846699338406324
1783169561782284800,5.174284912109375,0.0008660561870783567,-0.0003352612257003784,0.00023081013932824135
1783169561792353500,5.184353515625,-0.00021990027744323015,-0.0004940018989145756,-0.003660475369542837
1783169561802423800,5.194423828125,-0.0006609198171645403,0.00017418526113033295,-0.0022002640180289745
1783169561812492500,5.204492431640625,-0.0015285639092326164,0.0021373736672103405,-0.000025969697162508965
1783169561822561800,5.214561767578125,0.0002698687603697181,-0.0022400636225938797,-0.0025977841578423977
1783169561832631600,5.224631591796875,-0.0004368473310023546,-0.0010422957129776478,0.0005843951366841793
1783169561842700800,5.23470068359375,-0.000479724258184433,0.0015662708319723606,-0.0008150958456099033
1783169561852769500,5.24476953125,0.0004506178665906191,-0.0004535266198217869,0.0007881897035986185
1783169561862839800,5.25483984375,0.001004022778943181,-0.00008095009252429008,-0.002577779348939657
1783169561872908500,5.264908447265625,-0.0012721618404611945,-0.00041574984788894653,-0.0013789371587336063
1783169561882977800,5.274977783203125,-0.00349164055660367,0.0013872100971639156,0.001713259145617485
1783169561893046500,5.285046630859375,0.0011452175676822662,-0.0011531715281307697,-0.0010075117461383343
1783169561903116800,5.29511669921875,-0.002077739918604493,0.0002809404395520687,-0.00186851155012846
1783169561913185500,5.305185546875,-0.003001050092279911,-0.0023846523836255074,0.001667675795033574
1783169561923254800,5.3152548828125,-0.0010343057801946998,0.0007874388247728348,-0.0004966750275343657
1783169561933324500,5.325324462890625,0.0009279478108510375,-0.0006886920891702175,-0.000416341470554471
1783169561943393800,5.335393798828125,-0.0002992368536069989,0.0011978917755186558,0.0005836756899952888
1783169561953462500,5.345462646484375,-0.0016512785805389285,-0.0008654529228806496,-0.00010185549035668373
1783169561963532800,5.35553271484375,0.0006219957140274346,-0.00017968891188502312,-0.00020065880380570889
1783169561973601500,5.3656015625,-0.0008481768891215324,-0.0023438269272446632,0.0005181243177503347
1783169561983670800,5.3756708984375,-0.00008651288226246834,-0.001085749827325344,-0.00031464616768062115
1783169561993740500,5.385740478515625,-0.000004932750016450882,0.0003556567244231701,-0.0008467428851872683
1783169562003809800,5.395809814453125,-0.0005458206869661808,-0.0009157368913292885,0.002093120478093624
1783169562013878500,5.40587841796875,0.00011107057798653841,0.0002151578664779663,0.0011768403928726912
1783169562023948500,5.415948486328125,-0.0005099786212667823,0.0013635125942528248,-0.0018538369331508875
1783169562034017500,5.426017578125,0.0017665480263531208,-0.0015597054734826088,-0.003276447532698512
1783169562044086800,5.436086669921875,-0.0024641496129333973,0.0014861519448459148,0.00013612722977995872
1783169562054156500,5.446156494140625,-0.0024457178078591824,-0.00005943514406681061,-0.002212416846305132
1783169562064225800,5.456225830078125,-0.0005511451745405793,0.00104178162291646,-0.001693100668489933
1783169562074294500,5.46629443359375,-0.00014457572251558304,0.0014346893876791,-0.00030344235710799694
1783169562084364500,5.476364501953125,-0.0007933218730613589,-0.0024077193811535835,-0.0010874771978706121
1783169562094433500,5.48643359375,-0.002385760424658656,-0.00042653828859329224,0.0013732954394072294
1783169562104502800,5.496502685546875,-0.000228599994443357,-0.0018790261819958687,-0.001725558890029788
1783169562114572500,5.506572509765625,-0.0007971021113917232,0.0013948436826467514,0.00161514594219625
1783169562124641500,5.5166416015625,-0.0006287903524935246,-0.002106947358697653,-0.0006014031823724508
1783169562134710500,5.52671044921875,-0.0003913614200428128,0.0003413013182580471,0.0009322976693511009
1783169562144780500,5.536780517578125,0.00023874244652688503,0.000918941106647253,0.0025882511399686337
1783169562154849500,5.546849609375,-0.0013215313665568829,-0.0004940517246723175,-0.000712354201823473
1783169562164918800,5.556918701171875,-0.0020096921361982822,-0.0004469137638807297,-0.0014284783974289894
1783169562174988800,5.56698876953125,0.0005301751662045717,-0.00132785364985466,0.0008294754661619663
1783169562185057500,5.5770576171875,0.0007456248858943582,-0.0017097517848014832,0.0006555709987878799
1783169562195126500,5.58712646484375,0.0026612896472215652,0.0018879049457609653,0.0009914473630487919
1783169562205196500,5.597196533203125,-0.0013670078478753567,-0.0019318670965731144,0.0019541799556463957
1783169562215265800,5.607265869140625,-0.002530640922486782,0.0003294362686574459,0.002075151540338993
1783169562225334500,5.61733447265625,-0.0005053069908171892,0.0009060106240212917,0.0005510242190212011
1783169562235404800,5.62740478515625,-0.00009132560808211565,0.00128116924315691,0.00288249715231359
1783169562245473500,5.6374736328125,-0.00029106263536959887,0.00033627962693572044,0.0002582182642072439
1783169562255542800,5.647542724609375,-0.001036616857163608,-0.0004385588690638542,-0.0002762561198323965
1783169562265612500,5.657612548828125,0.0012813984649255872,-0.0010620048269629478,0.000026278896257281303
1783169562275681800,5.667681884765625,-0.0008269400568678975,0.0020386739633977413,-0.00017523998394608498
1783169562285750500,5.67775048828125,-0.0010083013912662864,0.0025428105145692825,-0.00009294808842241764
1783169562295820800,5.68782080078125,-0.0004561346722766757,-0.0010129851289093494,0.0015760750975459814
1783169562305889500,5.6978896484375,0.0014115400845184922,-0.0023775887675583363,-0.0012053302489221096
1783169562315958800,5.707958740234375,-0.0007050122367218137,-0.0009397058747708797,-0.0017594397068023682
1783169562326028500,5.718028564453125,-0.0012096812715753913,0.00018867570906877518,-0.0015873992815613747
1783169562336097800,5.728097900390625,0.0028295419178903103,-0.00020988797768950462,0.00025940872728824615
1783169562346166500,5.73816650390625,-0.00014494266360998154,-0.0016479948535561562,0.0020607709884643555
1783169562356236800,5.74823681640625,0.0005406020791269839,-0.00040501169860363007,-0.001592117128893733
1783169562366305500,5.758305419921875,0.0013043966609984636,0.0001606438308954239,0.0006987340748310089
1783169562376374800,5.768374755859375,-0.00010068656411021948,0.0015067774802446365,-0.002833255100995302
1783169562386444500,5.778444580078125,0.0007477964973077178,0.0015416648238897324,0.0004679993726313114
1783169562396513800,5.788513671875,0.0015393940266221762,0.0024840799160301685,0.0005530859343707561
1783169562406582500,5.79858251953125,-0.0008547878824174404,0.0007112137973308563,-0.0007252311334013939
1783169562416652800,5.80865283203125,0.003656653920188546,0.0006203525699675083,-0.0009580245241522789
1783169562426721500,5.818721435546875,0.0007769779185764492,-0.00013758288696408272,-0.0010882532224059105
1783169562436790800,5.828790771484375,0.00180275016464293,0.0012033781968057156,-0.0032196168322116137
1783169562446859500,5.838859619140625,0.0015433583175763488,0.00008538318797945976,-0.0007972053717821836
1783169562456929800,5.8489296875,0.0011606664629653096,-0.0005804141983389854,0.000883196946233511
1783169562466998500,5.85899853515625,-0.0005919598042964935,-0.0016850940883159637,0.0007023683283478022
1783169562477067800,5.86906787109375,-0.0006515291752293706,0.001030758023262024,-0.0013090705033391714
1783169562487137500,5.879137451171875,0.0005287838284857571,-0.0004683355800807476,-0.00006750482134521008
1783169562497206800,5.889206787109375,0.001955243293195963,-0.0006881109438836575,0.002653158735483885
1783169562507275500,5.899275634765625,-0.0010922120418399572,-0.000768538098782301,-0.001791124464944005
1783169562517345800,5.909345703125,0.0006212070002220571,0.00017562881112098694,0.0005299374461174011
1783169562527414500,5.91941455078125,0.0005357195041142404,-0.0003641936928033829,-0.00014171190559864044
1783169562537483800,5.92948388671875,0.00026238616555929184,-0.0003819810226559639,-0.001537978183478117
1783169562547553500,5.939553466796875,0.0003217747434973717,-0.002001715824007988,-0.0015001613646745682
1783169562557622800,5.949622802734375,0.0007122604874894023,-0.000815174076706171,-0.002045649103820324
1783169562567691500,5.95969140625,0.0002821600064635277,0.0006397110410034657,0.000327227171510458
1783169562577761500,5.969761474609375,0.001827976549975574,0.0016476195305585861,0.003001485951244831
1783169562587830500,5.97983056640625,-0.0007212011842057109,-0.0006371061317622662,-0.00014770193956792355
1783169562597899800,5.989899658203125,0.0008714337018318474,-0.0004891031421720982,-0.0009480561129748821
1783169562607969800,5.9999697265625,0.00023973186034709215,0.0001601758413016796,0.0000200031790882349
1783169562618038500,6.01003857421875,0.001204444095492363,-0.0004585711285471916,0.0014655808918178082
1783169562628107500,6.020107421875,0.00032879679929465055,-0.002325446344912052,-0.001023941906169057
1783169562638177500,6.030177490234375,0.0009132213890552521,-0.0007136072963476181,0.000271419296041131
1783169562648246500,6.04024658203125,-0.00019705039449036121,0.0006776275113224983,0.0018978116568177938
1783169562658315800,6.050315673828125,-0.0006204297533258796,0.0005194228142499924,-0.00023080897517502308
1783169562668385800,6.0603857421875,-0.0017887585563585162,0.0009348760358989239,-0.002094489289447665
1783169562678454500,6.07045458984375,-0.0006545127835124731,-0.002103836741298437,-0.001611792715266347
1783169562688523500,6.0805234375,-0.00230540637858212,-0.002220483962446451,0.0003592129796743393
1783169562698593500,6.090593505859375,0.00020004308316856623,0.0006085699424147606,0.0010733201634138823
1783169562708662800,6.100662841796875,0.0002309357514604926,-0.0006111576221883297,0.0001350885722786188
1783169562718731500,6.1107314453125,0.0007184392306953669,0.002277177758514881,0.0007944423705339432
1783169562728801800,6.1208017578125,0.0017791762948036194,0.0004417272284626961,-0.0014900171663612127
1783169562738870500,6.13087060546875,0.002284540794789791,-0.0014093057252466679,0.0003009145148098469
1783169562748939800,6.140939697265625,0.0015385894803330302,0.0015952722169458866,0.000533408485352993
1783169562759009500,6.151009521484375,-0.0025579167995601892,-0.00019320333376526833,-0.0024171213153749704
1783169562769078800,6.161078857421875,-0.00008916668593883514,-0.00008774222806096077,0.0017981298733502626
1783169562779147500,6.1711474609375,-0.00034046568907797337,-0.0021917694248259068,0.0011829826980829239
1783169562789217800,6.1812177734375,-0.00047575426287949085,-0.001676181796938181,0.0005366336554288864
1783169562799286500,6.19128662109375,-0.001046306686475873,0.0011442359536886215,0.00047906627878546715
1783169562809355800,6.201355712890625,-0.001179730985313654,0.0006092069670557976,-0.0013079147320240736
1783169562819425500,6.211425537109375,0.0002634038683027029,-0.00042292941361665726,-0.0006505658384412527
1783169562829494800,6.221494873046875,-0.001532898168079555,-0.0005499618127942085,0.0011814229656010866
1783169562839563500,6.2315634765625,-0.000339905614964664,-0.0013888753019273281,-0.0017922127153724432
1783169562849633800,6.2416337890625,0.001402866910211742,-0.0009265509434044361,0.00016814004629850388
1783169562859702500,6.25170263671875,0.0010815782006829977,-0.002367118839174509,0.00009774276986718178
1783169562869771800,6.261771728515625,0.0011753214057534933,-0.0010749534703791142,-0.0017608774360269308
1783169562879841500,6.271841552734375,0.0013458942994475365,0.002679910510778427,-0.0020221888553351164
1783169562889910800,6.281910888671875,-0.00023122970014810562,-0.0018842145800590515,0.0019645632710307837
1783169562899979500,6.2919794921875,0.0007042778306640685,0.0005410932935774326,0.0027725996915251017
1783169562910048800,6.302048828125,0.00042224908247590065,0.0001394888386130333,-0.0021396006923168898
1783169562920118500,6.312118408203125,0.0006413212977349758,-0.0008342969231307507,-0.0009025908075273037
1783169562930187800,6.322187744140625,0.00036275468301028013,-0.001083569135516882,-0.00013054022565484047
1783169562940256500,6.332256591796875,-0.0019142471719533205,-0.0028337761759757996,-0.0011422259267419577
1783169562950326800,6.342326904296875,-0.0010319419670850039,-0.0009085768833756447,-0.000040209852159023285
1783169562960395500,6.3523955078125,-0.0002479029353708029,-0.001904941163957119,-0.0005665854550898075
1783169562970464800,6.36246484375,-0.0002420439850538969,0.00020508142188191414,-0.0021700747311115265
1783169562980534500,6.372534423828125,0.0016012918204069138,-0.0008413014002144337,0.0015893166419118643
1783169562990603800,6.382603759765625,-0.0012967600487172604,-0.0014996347017586231,0.0011528246104717255
1783169563000672500,6.392672607421875,0.0006950889364816248,0.000002636108547449112,0.0015259543433785439
1783169563010742800,6.40274267578125,-0.002223202958703041,-0.0016003204509615898,0.00287085073068738
1783169563020811500,6.4128115234375,-0.002353603718802333,-0.0010113539174199104,0.0014420419465750456
1783169563030880800,6.422880859375,0.0006986451335251331,0.0017237123101949692,0.002009295392781496
1783169563040950500,6.432950439453125,0.0013881283812224865,0.00010332278907299042,-0.00212264247238636
1783169563051019800,6.443019775390625,-0.0008942007552832365,0.0017611407674849033,-0.0017045261338353157
1783169563061088500,6.453088623046875,-0.000010660500265657902,-0.0019027083180844784,0.0027870277408510447
1783169563071158500,6.463158447265625,-0.001231187372468412,-0.0004307790659368038,0.0017188338097184896
1783169563081227500,6.4732275390625,-0.0004526684060692787,0.0008327099494636059,-0.0030593350529670715
1783169563091296800,6.483296875,0.0006416245014406741,0.0016945088282227516,-0.0013610371388494968
1783169563101366800,6.49336669921875,0.0000815496314316988,0.002567634917795658,-0.0004544199910014868
1783169563111435800,6.503435791015625,-0.001830866327509284,0.0005108756013214588,-0.0007913100998848677
1783169563121504500,6.51350439453125,0.0005832385504618287,-0.001984719652682543,0.002107519656419754
1783169563131574500,6.523574462890625,0.00000586523674428463,-0.0012353057973086834,0.0004544956609606743
1783169563141643800,6.533643798828125,-0.0018008440965786576,-0.00033742235973477364,0.0005094017833471298
1783169563151712800,6.543712646484375,-0.0016525060636922717,0.0008127973414957523,-0.000011246418580412865
1783169563161782800,6.55378271484375,0.0005166179034858942,-0.0009040101431310177,0.0009848198387771845
1783169563171851500,6.5638515625,-0.0022517379838973284,-0.0012571453116834164,0.000578954117372632
1783169563181920500,6.57392041015625,-0.0011388030834496021,-0.0020052273757755756,0.0020950916223227978
1783169563191990500,6.583990478515625,-0.00025356828700751066,-0.00004940200597047806,0.0010242345742881298
1783169563202059800,6.594059814453125,-0.00009723764378577471,-0.0012380951084196568,0.002467089332640171
1783169563212128500,6.60412841796875,0.0009174266597256064,0.00013689463958144188,-0.001136966748163104
1783169563222198800,6.61419873046875,-0.001007813960313797,-0.0002386118285357952,0.0016921991482377052
1783169563232267500,6.624267578125,-0.00035640469286590815,0.0007819114252924919,0.001182203646749258
1783169563242336800,6.634336669921875,-0.0022937124595046043,-0.0008332994766533375,-0.0023957521189004183
1783169563252406500,6.644406494140625,-0.0018628129037097096,-0.0011012139730155468,-0.003058879403397441
1783169563262475800,6.654475830078125,-0.00003797339741140604,-0.0011677914299070835,0.0004635956138372421
1783169563272544500,6.66454443359375,-0.0013013770803809166,-0.0010844352655112743,0.0016929106786847115
1783169563282614800,6.67461474609375,-0.0019348327768966556,0.0009362399578094482,-0.0009114339482039213
1783169563292683500,6.68468359375,-0.0010730336653068662,0.0004329024814069271,-0.00197243713773787
1783169563302752800,6.694752685546875,0.00025535235181450844,0.000005609821528196335,-0.00002616085112094879
1783169563312822500,6.704822509765625,-0.0011760967317968607,-0.0002391347661614418,0.00010832888074219227
1783169563322891800,6.714891845703125,-0.0005475715734064579,-0.001207323744893074,0.0027885427698493004
1783169563332960500,6.72496044921875,0.0025744521990418434,0.0008699414320290089,0.0017118267714977264
1783169563343030800,6.73503076171875,-0.0016481722705066204,0.00021773530170321465,-0.0003632174339145422
1783169563353099500,6.745099609375,-0.0016231385525316,-0.0004174280911684036,0.0002889907918870449
1783169563363168800,6.755168701171875,-0.0022565675899386406,0.0004190197214484215,0.002302419627085328
1783169563373237500,6.765237548828125,0.002085716463625431,0.0014981324784457684,-0.0026715663261711597
1783169563383307800,6.775307861328125,-0.0006516367429867387,0.002553302329033613,-0.0017517104279249907
1783169563393376500,6.78537646484375,-0.00009849818889051676,0.0007665874436497688,0.002498161979019642
1783169563403445800,6.79544580078125,-0.0008040363900363445,-0.0006154244765639305,-0.0009833499789237976
1783169563413515500,6.805515625,-0.0006114896386861801,-0.0022410182282328606,-0.0002613668330013752
1783169563423584800,6.815584716796875,-0.0001951161539182067,-0.0010144030675292015,0.002427578903734684
1783169563433653500,6.825653564453125,0.0005260678590275347,0.0034426632337272167,-0.0001301206648349762
1783169563443723800,6.835723876953125,-0.0013167639262974262,-0.0009227092377841473,-0.0009119368623942137
1783169563453792500,6.84579248046875,0.000541057379450649,-0.0010944833047688007,-0.00013083196245133877
1783169563463861800,6.85586181640625,0.0005852138274349272,-0.0021173739805817604,0.0026941162068396807
1783169563473931500,6.865931640625,0.0009559258469380438,-0.00021268147975206375,0.0010743816383183002
1783169563484000800,6.876000732421875,0.00027122138999402523,0.0005622529424726963,0.0000320998951792717
1783169563494069500,6.886069580078125,0.00013886229135096073,-0.00003083329647779465,0.0006853733211755753
1783169563504139800,6.896139892578125,-0.0012798459501937032,-0.00164688378572464,0.0005859814118593931
1783169563514208500,6.90620849609375,0.0008317745523527265,-0.0000015832483768463135,-0.0007911389693617821
1783169563524277800,6.91627783203125,-0.0006424348102882504,-0.0011894521303474903,0.0022187938448041677
1783169563534347500,6.926347412109375,0.0018063418101519346,0.0017722491174936295,-0.0012984429486095905
1783169563544416800,6.936416748046875,-0.0004385636420920491,-0.000156463123857975,-0.0008956943638622761
1783169563554485500,6.946485595703125,-0.000503278337419033,-0.001461944542825222,-0.001899173017591238
1783169563564555500,6.956555419921875,0.0018106895731762052,0.00027325842529535294,-0.00250703701749444
1783169563574624500,6.96662451171875,-0.0010197180090472102,-0.0015246416442096233,0.003268027678132057
1783169563584693800,6.97669384765625,-0.0021795635111629963,-0.0022142394445836544,0.0011358896736055613
1783169563594763800,6.986763671875,-0.001203515101224184,-0.00013457750901579857,0.002592905191704631
1783169563604832800,6.996832763671875,-0.0014551489148288965,0.00031295185908675194,0.0015295986086130142
1783169563614902000,7.006902099609375,-0.0014812478329986334,0.00019390834495425224,-0.0008845571428537369
1783169563624971800,7.0169716796875,-0.0010550545994192362,-0.0020598750561475754,0.0034299318213015795
1783169563635041000,7.027041015625,0.000483453506603837,-0.0006598513573408127,-0.003399478504434228
1783169563645110000,7.037110107421875,-0.0004370603710412979,-0.0014594700187444687,-0.0014499574899673462
1783169563655180000,7.047179931640625,-0.0007055070018395782,0.0010340474545955658,-0.0006499439477920532
1783169563665248800,7.057248779296875,-0.00047493295278400183,0.0006175925955176353,-0.0021155779249966145
1783169563675318000,7.067318115234375,0.0007613064371980727,0.001247430220246315,0.0007931266445666552
1783169563685387800,7.0773876953125,0.0011471097823232412,-0.0005568293854594231,-0.0007071830332279205
1783169563695457000,7.08745703125,0.00081581249833107,-0.0004337914288043976,0.00018630758859217167
1783169563705525800,7.09752587890625,0.0021871759090572596,-0.0024198307655751705,0.0004458860494196415
1783169563715596000,7.107595947265625,0.0000744903227314353,0.00011603115126490593,-0.0008305669762194157
1783169563725664800,7.117664794921875,0.0013910613488405943,-0.0010960279032588005,0.0007750533986836672
1783169563735734000,7.127734130859375,0.0015444594901055098,0.0015420997515320778,-0.001061462564393878
1783169563745803800,7.1378037109375,-0.00023042981047183275,0.0008673756383359432,0.0012688231654465199
1783169563755873000,7.147873046875,-0.0012086088536307216,-0.000014929566532373428,-0.0011141735594719648
1783169563765941800,7.157941650390625,-0.0003598149633035064,-0.001393985003232956,-0.0005350632127374411
1783169563776011000,7.168010986328125,0.003401367459446192,-0.0011702794581651688,0.0005363263189792633
1783169563786080800,7.178080810546875,0.001695089740678668,-0.00015765056014060974,0.0030584274791181087
1783169563796150000,7.18814990234375,-0.0019209504825994372,0.00015287427231669426,-0.000365598825737834
1783169563806218800,7.19821875,-0.001180195831693709,-0.0008285157382488251,-0.00360603048466146
1783169563816289000,7.2082890625,-0.000512008904479444,-0.00031106360256671906,-0.0011258285958319902
1783169563826357800,7.218357666015625,0.0002056154189631343,-0.00021500000730156898,-0.0009111375547945499
1783169563836427000,7.228427001953125,-0.0007328824140131474,-0.001377470325678587,-0.0020911842584609985
1783169563846496800,7.238496826171875,-0.00028337491676211357,0.0017370982095599174,0.0005403344985097647
1783169563856566000,7.24856591796875,0.0018285117112100124,0.0004894072189927101,-0.0023816856555640697
1783169563866634800,7.258634765625,-0.00010069820564240217,0.0016039889305830002,-0.00015426683239638805
1783169563876705000,7.268705078125,0.0013406046200543642,-0.0008256132714450359,-0.002275208244100213
1783169563886773800,7.278773681640625,0.000009827548637986183,-0.0015896037220954895,0.00034684082493185997
1783169563896843000,7.288843017578125,0.001805863343179226,-0.00004976382479071617,0.0008424550760537386
1783169563906913000,7.2989130859375,0.00030865566805005074,-0.0015980713069438934,-0.0005209604278206825
1783169563916982000,7.30898193359375,-0.000961139565333724,-0.0013993987813591957,0.00006200559437274933
1783169563927050800,7.31905078125,0.0029979373794049025,0.0004027038812637329,0.00048497598618268967
1783169563937121000,7.32912109375,-0.0011893508490175009,-0.0022790995426476,-0.0004588481970131397
1783169563947190000,7.33918994140625,-0.00033284362871199846,-0.0012147175148129463,0.002489659236744046
1783169563957259000,7.349259033203125,0.0015974155394360423,-0.001198471523821354,-0.0002872187178581953
1783169563967329000,7.3593291015625,0.000812688609585166,-0.0008793817833065987,-0.00011498644016683102
1783169563977398000,7.36939794921875,0.0007450443226844072,0.00032969284802675247,-0.0031627079006284475
1783169563987467000,7.379467041015625,0.00016173708718270063,-0.00015274947509169579,-0.0020222486928105354
1783169563997537000,7.389537109375,-0.00026064016856253147,-0.00029309792444109917,-0.0006885374896228313
1783169564007606000,7.39960595703125,0.0004547598073258996,0.0012844293378293514,-0.0021149301901459694
1783169564017675000,7.409675048828125,0.00009070569649338722,-0.0002676607109606266,0.0019234871724620461
1783169564027745000,7.4197451171875,0.00019672047346830368,0.0022661429829895496,-0.0018559566233307123
1783169564037814000,7.42981396484375,0.0023397663608193398,0.001051741186529398,-0.00026258709840476513
1783169564047883000,7.439883056640625,-0.0005206170026212931,-0.0001917332410812378,0.00046933116391301155
1783169564057952800,7.449952880859375,0.00019124592654407024,-0.00003620423376560211,-0.0017850345466285944
1783169564068022000,7.46002197265625,-0.0012425967724993825,0.00007878104224801064,0.002516917884349823
1783169564078091000,7.470091064453125,0.00043040094897150993,-0.000292197335511446,-0.0008016473148018122
1783169564088161000,7.4801611328125,0.0008171905064955354,-0.0008052317425608635,-0.001359161688014865
1783169564098229800,7.490229736328125,-0.00015433062799274921,-0.0011847317218780518,-0.0007397106382995844
1783169564108299000,7.500299072265625,0.0016638993984088302,-0.0000250241719186306,-0.0030456101521849632
1783169564118368800,7.51036865234375,0.00012858712580054998,0.0008341115899384022,0.0010977359488606453
1783169564128438000,7.52043798828125,-0.0008466111030429602,-0.0008102850988507271,-0.0006391364149749279
1783169564138507000,7.530507080078125,0.002450915053486824,0.00009385822340846062,-0.00008946005254983902
1783169564148576000,7.540575927734375,0.0012454170500859618,0.0018331711180508137,-0.0002515807282179594
1783169564158645800,7.550645751953125,0.0007114532636478543,0.0016177212819457054,0.0020733587443828583
1783169564168715000,7.560715087890625,-0.0006054829573258758,0.0006461655721068382,0.001851072534918785
1783169564178784000,7.570783935546875,0.0027602198533713818,0.0016658897511661053,0.0007402680348604918
1783169564188854000,7.58085400390625,-0.00019193650223314762,-0.0004552667960524559,-0.0013976367190480232
1783169564198922800,7.5909228515625,0.0003785125445574522,-0.00005792267620563507,-0.000653016846626997
1783169564208992000,7.600991943359375,-0.0005907145095989108,-0.002044376451522112,0.004228782840073109
1783169564219061800,7.611061767578125,0.0010782885365188122,0.0005117258988320827,-0.00017022667452692986
1783169564229131000,7.621131103515625,0.001082235248759389,0.0008373977616429329,0.0002420051023364067
1783169564239200000,7.631199951171875,-0.0007015499286353588,-0.00012826407328248024,-0.0013415105640888214
1783169564249270000,7.64127001953125,0.0007576575735583901,-0.0019528190605342388,0.002182967960834503
1783169564259338800,7.6513388671875,-0.0005957609973847866,0.0013348530046641827,-0.00012146495282649994
1783169564269408000,7.661407958984375,-0.0027976371347904205,-0.0011159321293234825,-0.00047927116975188255
1783169564279477800,7.671477783203125,-0.0017667271895334125,-0.0015609459951519966,-0.0008345367386937141
1783169564289547000,7.681547119140625,-0.0010138668585568666,0.00032135332003235817,-0.001678290544077754
1783169564299615700,7.69161572265625,-0.0012026848271489143,-0.00010102428495883942,0.00010948954150080681
1783169564309686000,7.70168603515625,-0.0009796158410608768,0.0017474470660090446,0.0013222333509474993
1783169564319754800,7.711754638671875,-0.0008488544262945652,-0.00038148369640111923,-0.0008109586779028177
1783169564329824000,7.721823974609375,-0.0009633195586502552,-0.0009471923112869263,0.0003367401659488678
1783169564339893800,7.731893798828125,-0.000269299722276628,0.002669380512088537,0.0005159708671271801
1783169564349963000,7.741962890625,0.0009104862692765892,0.0007573398761451244,-0.0022483649663627148
1783169564360031700,7.75203173828125,-0.00026210350915789604,0.0006582704372704029,0.00209658220410347
1783169564370102000,7.76210205078125,-0.0015267559792846441,0.00233649043366313,0.0015550784301012754
1783169564380170800,7.772170654296875,0.0026903594844043255,-0.0008800756186246872,-0.001962957438081503
1783169564390240000,7.782239990234375,0.00015387509483844042,-0.0019892523996531963,0.00010684528388082981
1783169564400310000,7.79231005859375,-0.0017795799067243934,-0.001024389173835516,0.0000996545422822237
1783169564410379000,7.80237890625,0.0010408833622932434,0.0007293843664228916,0.0010488657280802727
1783169564420447700,7.81244775390625,-0.0012773983180522919,-0.000028551556169986725,-0.002056912751868367
1783169564430518000,7.82251806640625,0.0008969766204245389,0.001599875744432211,0.0019918165635317564
1783169564440587000,7.8325869140625,0.00044051080476492643,0.0001620347611606121,-0.004108153749257326
1783169564450656000,7.842656005859375,0.00030837522353976965,-0.0006852741353213787,0.002609896706417203
1783169564460726000,7.85272607421875,0.0005693649873137474,0.0005935761146247387,0.0008165240287780762
1783169564470795000,7.862794921875,0.00046555750304833055,-0.0006822408176958561,0.004205117467790842
1783169564480864000,7.872864013671875,0.00018512667156755924,-0.000044947024434804916,0.00251534185372293
1783169564490933000,7.88293310546875,-0.000954879098571837,-0.0014266506768763065,-0.002274411730468273
1783169564501003000,7.8930029296875,0.0018313198816031218,-0.001717467326670885,0.0014414968900382519
1783169564511072000,7.903072021484375,-0.00003780238330364227,0.0007773833349347115,0.003653118619695306
1783169564521141000,7.91314111328125,0.0004428981337696314,-0.0008468781597912312,0.0032872003503143787
1783169564531211000,7.9232109375,0.0002719650510698557,-0.00013087783008813858,-0.0003354279324412346
1783169564541280000,7.933280029296875,-0.00018370174802839756,-0.0014046672731637955,0.000003858935087919235
1783169564551349000,7.943348876953125,0.0007557456847280264,-0.0007183789275586605,0.0029954088386148214
1783169564561419000,7.9534189453125,0.0017568279290571809,0.0008600763976573944,-0.0005508565809577703
1783169564571488000,7.963488037109375,-0.00014862266834825277,-0.001077617984265089,0.0017927156295627356
1783169564581557000,7.973556884765625,-0.0028416113927960396,-0.0020739068277180195,-0.0008973432704806328
1783169564591627000,7.983626953125,0.00007193535566329956,-0.0011135782115161419,-0.0009579951874911785
1783169564601695500,7.993695556640625,0.0038578850217163563,0.00013997172936797142,-0.0016120676882565022
1783169564611764700,8.0037646484375,-0.0030178765300661325,-0.00046415161341428757,-0.0006302723195403814
1783169564621834800,8.013834716796875,-0.0008290244732052088,-0.001017555594444275,0.0007095641922205687
1783169564631903700,8.02390380859375,0.0014398295897990465,-0.0000478038564324379,-0.0003335957881063223
1783169564641972500,8.033972412109375,0.00007575855124741793,-0.0022097574546933174,0.0009407270699739456
1783169564652042800,8.044042724609374,-0.0013316681142896414,-0.0008630859665572643,-0.001455175457522273
1783169564662111700,8.05411181640625,0.0024974248372018337,0.002596094273030758,-0.0005446404684334993
1783169564672180700,8.0641806640625,0.0017502964474260807,0.0022964072413742542,-0.0028695445507764816
1783169564682250800,8.074250732421875,0.0009321733377873898,0.0024647191166877747,0.0028264240827411413
1783169564692319700,8.08431982421875,0.00005240156315267086,-0.0008563711307942867,-0.0008912764023989439
1783169564702388500,8.094388427734375,-0.0006267044227570295,-0.0003671483136713505,0.003871787339448929
1783169564712458500,8.10445849609375,0.0006272512837313116,0.0015645427629351616,-0.0007149563170969486
1783169564722527700,8.11452783203125,0.00047571741743013263,0.0004963492974638939,-0.00034983688965439796
1783169564732596700,8.1245966796875,0.0006638059276156127,-0.0022720620036125183,-0.001150690484791994
1783169564742666800,8.134666748046875,0.0005950963823124766,-0.00018227938562631607,-0.0007679942063987255
1783169564752735500,8.144735595703125,-0.001646634889766574,-0.0011750957928597927,0.0019835284911096096
1783169564762804700,8.1548046875,0.001646630116738379,0.0012225485406816006,-0.00006444239988923073
1783169564772874500,8.16487451171875,-0.0013580041704699397,0.0023063095286488533,-0.0014679387677460909
1783169564782943700,8.17494384765625,0.0008883722475729883,-0.0010655191726982594,0.00014460505917668343
1783169564793012700,8.1850126953125,0.0005605719052255154,0.002182447351515293,-0.001493625110015273
1783169564803082800,8.195082763671875,0.0007310142391361296,0.001997890416532755,-0.004888356663286686
1783169564813151500,8.2051513671875,0.0012465543113648891,0.0006966851651668549,0.0014980575069785118
1783169564823220700,8.215220703125,-0.00024375063367187977,-0.0019425079226493835,0.0017614441458135843
1783169564833289700,8.225289794921874,-0.001208677189424634,-0.00016907276585698128,0.00044026575051248074
1783169564843359700,8.23535986328125,-0.0006747134029865265,0.0018227058462798595,-0.0010694803204387426
1783169564853428500,8.245428466796875,-0.0007474013837054372,0.0005999854765832424,0.0012258728966116905
1783169564863497700,8.255497802734375,0.0001881670905277133,0.0011669727973639965,-0.001681233523413539
1783169564873567500,8.2655673828125,-0.0010984193067997694,-0.004315263591706753,0.0011307974345982075
1783169564883636700,8.27563671875,-0.000803074799478054,0.0006006653420627117,0.00045302300713956356
1783169564893705700,8.285705810546874,-0.00199976097792387,-0.0017668833024799824,0.003212014678865671
1783169564903775700,8.295775634765626,-0.0009273060131818056,0.0011069336906075478,0.0026634037494659424
1783169564913844500,8.305844482421875,0.0007066914695315063,0.0026924582198262215,0.002758542075753212
1783169564923913700,8.315913818359375,-0.0011351506691426039,-0.0019198707304894924,0.0034712040796875954
1783169564933983500,8.3259833984375,0.00013147108256816864,0.0016340347938239574,-0.00013409974053502083
1783169564944052700,8.336052734375,0.000026276218704879284,0.00016343733295798302,0.0016851054970175028
1783169564954121500,8.34612158203125,0.0015987101942300797,0.0012478623539209366,-0.0009005493484437466
1783169564964191700,8.356191650390626,-0.0005696355365216732,-0.0011319378390908241,-0.0003727106377482414
1783169564974260500,8.366260498046875,0.0007426092633977532,-0.0010507027618587017,-0.0003462184686213732
1783169564984329700,8.376329833984375,0.0015767113072797656,-0.0009660148061811924,0.0029044360853731632
1783169564994399500,8.3863994140625,-0.00037117546889930964,0.0015304749831557274,-0.0005942417774349451
1783169565004468700,8.39646875,0.0017058239318430424,-0.0011225664056837559,0.0005956585519015789
1783169565014537500,8.406537353515626,-0.0012458227574825287,-0.0018592439591884613,-0.000824738061055541
1783169565024607700,8.416607666015626,0.0018311935709789395,-0.0021077170968055725,0.0031766612082719803
1783169565034676500,8.426676513671875,0.000029925024136900902,0.00004452653229236603,0.0008249112870544195
1783169565044745700,8.436745849609375,0.00017267046496272087,0.00008873501792550087,0.0015903038438409567
1783169565054815500,8.4468154296875,0.00035983941052109003,0.00009460886940360069,-0.001110094366595149
1783169565064884700,8.456884765625,0.00027142243925482035,0.0008940896950662136,0.0011586523614823818
1783169565074953500,8.466953369140626,-0.0005306509556248784,-0.0007887883111834526,0.0020328937098383904
1783169565085022700,8.477022705078125,0.0014049344463273883,-0.00041647814214229584,-0.0007493104785680771
1783169565095092500,8.487092529296875,0.0014929628232493997,-0.0011031301692128181,0.00019033649004995823
1783169565105161700,8.49716162109375,0.001053807558491826,-4.936009645462036e-8,0.0023735961876809597
1783169565115230500,8.50723046875,-0.0005017000949010253,-0.0012509208172559738,0.002260159933939576
1783169565125300700,8.51730078125,0.0015859518898651004,-0.0005648909136652946,0.002500643488019705
1783169565135369500,8.527369384765626,-0.0006581180496141315,0.0005409885197877884,0.0002351147122681141
1783169565145438700,8.537438720703125,-0.0004208303289487958,-0.000009221024811267853,-0.0014871517196297646
1783169565155508700,8.5475087890625,-0.0005442810943350196,0.0009267418645322323,-0.0002817641943693161
1783169565165577700,8.55757763671875,-0.0019467017846181989,-0.0001798016019165516,0.001669001067057252
1783169565175646500,8.567646484375,0.0002408778527751565,0.00010312860831618309,0.0015111688990145922
1783169565185716700,8.577716796875,-0.00021665322128683329,0.0015343111008405685,0.001914903987199068
1783169565195785700,8.58778564453125,0.000721959862858057,-0.0005581183359026909,0.0009172530844807625
1783169565205854700,8.597854736328125,0.0014189090579748154,-0.0010848920792341232,0.0025303298607468605
1783169565215924700,8.6079248046875,0.0001334192929789424,0.0003188098780810833,-0.002821007277816534
1783169565225993700,8.61799365234375,-0.0037185768596827984,0.0019803564064204693,-0.0011472105979919434
1783169565236062500,8.6280625,-0.00043551146518439054,-0.0030418075621128082,0.003088274970650673
1783169565246132700,8.6381328125,-0.0014768074033781886,-0.0016005048528313637,0.00027544423937797546
1783169565256201700,8.64820166015625,0.0013572510797530413,-0.0018335492350161076,0.0028810915537178516
1783169565266270700,8.658270751953125,0.0006001144065521657,-0.0007642903365194798,-0.00288385315798223
1783169565276340700,8.6683408203125,-0.0016749182250350714,-0.0006780871190130711,0.0020275800488889217
1783169565286409700,8.67840966796875,0.00174404785502702,0.0012082294560968876,0.0008954703807830811
1783169565296478700,8.688478759765625,-0.000014127232134342194,-0.0014497395604848862,-0.00014412379823625088
1783169565306548500,8.698548583984374,0.0002380741061642766,-0.0001751510426402092,0.0005898436065763235
1783169565316617700,8.70861767578125,-0.000850670738145709,-0.0005356264300644398,0.0007646938320249319
1783169565326686700,8.718686767578125,0.0006990227266214788,-0.00007223570719361305,0.0017197034321725368
1783169565336756700,8.7287568359375,-0.0008857594802975655,0.0007327301427721977,-0.0005163159221410751
1783169565346825500,8.738825439453125,-0.0015022812876850367,-0.0004132278263568878,0.0022222124971449375
1783169565356894700,8.748894775390625,0.0021696025505661964,-0.0005878699012100697,0.0011530900374054909
1783169565366964500,8.758964599609374,-0.001011010492220521,-0.0008432674221694469,0.0009762563277035952
1783169565377033700,8.76903369140625,0.001538184704259038,-0.0017912015318870544,0.00025240215472877026
1783169565387102700,8.779102783203125,0.0002918252721428871,0.001873841043561697,-0.0004059311468154192
1783169565397171700,8.789171630859375,0.00005383114330470562,-0.0011173654347658157,0.003265238832682371
1783169565407241500,8.799241455078125,-0.00034724094439297915,0.00015029869973659515,0.00016531930305063725
1783169565417310700,8.809310791015625,-0.000015555880963802338,-0.0016919979825615883,0.00022076955065131187
1783169565427379700,8.819379638671874,-0.0017261041793972254,0.0008103083819150925,-0.001169667113572359
1783169565437449700,8.82944970703125,-0.0019278567051514983,-0.00041472911834716797,0.00011192238889634609
1783169565447518500,8.8395185546875,0.0023321358021348715,0.0012814379297196865,-0.0031075729057192802
1783169565457587700,8.849587646484375,-0.00022950302809476852,-0.0018213149160146713,0.0011015923228114843
1783169565467657500,8.859657470703125,0.0002562575973570347,0.0019529173150658607,-0.000453694025054574
1783169565477726700,8.869726806640625,0.000037408783100545406,-0.00002787914127111435,0.0014891368336975574
1783169565487795700,8.879795654296874,-0.0014259981689974666,-0.0017802398651838303,0.0020398786291480064
1783169565497865700,8.88986572265625,-0.0020457725040614605,-0.00024672411382198334,0.0011087609454989433
1783169565507934500,8.8999345703125,-0.00017303763888776302,-0.0018829703330993652,-0.002346956869587302
1783169565518003700,8.910003662109375,0.0007447853568010032,0.0004334626719355583,0.00014245021156966686
1783169565528073500,8.920073486328125,-0.0032283845357596874,-0.0014677681028842926,0.000898787984624505
1783169565538142700,8.930142822265625,-0.0011886884458363056,-0.0007905103266239166,0.0023077093064785004
1783169565548211500,8.94021142578125,0.0025469274260103703,0.004223955795168877,0.004993240814656019
1783169565558281700,8.95028173828125,-0.0063001783564686775,0.34471914172172546,0.16279488801956177
1783169565568350500,8.9603505859375,-0.0011770551791414618,0.37549570202827454,0.17752163112163544
1783169565578419700,8.970419677734375,0.003674775594845414,-0.29233747720718384,-0.1359652727842331
1783169565588489500,8.980489501953125,0.005332060623914003,-0.43798282742500305,-0.20034478604793549
1783169565598558700,8.990558837890624,0.0004885488888248801,0.13592186570167542,0.051460593938827515
1783169565608627700,9.000627685546876,0.0014917616499587893,-0.11295026540756226,-0.04123152419924736
1783169565618698000,9.010697998046876,-0.00048750697169452906,0.04932558164000511,0.020228669047355652
1783169565628766700,9.0207666015625,0.0004768236540257931,-0.0275750569999218,-0.013396935537457466
1783169565638835700,9.030835693359375,-0.0006621889770030975,0.016405049711465836,0.0026783952489495277
