time,seconds_elapsed,z,y,x
1783174240048162800,0.080162841796875,0.020502689802646634,-0.3513715977206826,-0.44603791343010957
1783174240058230500,0.09023046875,0.07952537213563919,-0.23712752503380177,-0.3941494303585961
1783174240068299500,0.100299560546875,0.2027069306463003,-0.22028072739019988,-0.26157318030856547
1783174240078368800,0.11036865234375,0.2596791101902723,-0.17249854712635276,-0.18706145335016772
1783174240088436500,0.1204365234375,0.2602589559048414,-0.15407500168532132,-0.16593369045173748
1783174240098505500,0.13050537109375,0.23629297390580176,-0.13948504305779932,-0.08506176254535093
1783174240108573700,0.14057373046875,0.23967034138441085,-0.13091712119877338,-0.07049355909191071
1783174240118642700,0.150642578125,0.29574469530582426,-0.10203677141219376,-0.07478437902047298
1783174240128711700,0.160711669921875,0.3323644071727991,-0.06226064134091139,-0.04159848666023463
1783174240138779600,0.170779541015625,0.15140110630095005,-0.04037891827002167,-0.03691292265988886
1783174240148848600,0.1808486328125,-0.012560790887475012,0.012225129192322493,-0.08472561679300851
1783174240158917600,0.190917724609375,-0.22774843292236327,0.05012070621401071,-0.1278280691422522
1783174240168983000,0.200983154296875,-0.43394203664064407,0.06239625041931867,-0.16299931750027463
1783174240179051800,0.2110517578125,-0.4573877941578626,0.01645604476034641,-0.20935796776702625
1783174240189120000,0.2211201171875,-0.3999193555295467,-0.018903145651519297,-0.2477789569023065
1783174240199189000,0.23118896484375,-0.3692290337115526,-0.037422114291042086,-0.2776022500948049
1783174240209258000,0.241258056640625,-0.31309564307928084,-0.004475245717912912,-0.23515213330760598
1783174240219326000,0.251325927734375,-0.21001871496438979,0.0727846657037735,-0.11412715004263445
1783174240229395000,0.26139501953125,-0.14727496628165243,0.11013502993285655,0.022381854612752793
1783174240239464000,0.2714638671875,-0.13852058193981648,0.11927315289527177,0.14880418514292687
1783174240249532000,0.281531982421875,-0.15530454348027706,0.08785831619501114,0.1332942255936563
1783174240259601000,0.291600830078125,-0.07418810276091098,0.07910173989608883,0.15622713821791112
1783174240269669000,0.301669189453125,0.14138123206794262,0.046407677040249104,0.18036120679285375
1783174240279737900,0.31173779296875,0.3374649451822042,-0.018432751660794017,0.1216408318746835
1783174240289807000,0.32180712890625,0.3098258276283741,-0.11346081335470079,0.045874958403035994
1783174240299875000,0.331875,0.08497896136641502,-0.15139263073354958,0.014719941682741045
1783174240309943800,0.34194384765625,-0.15223346547186373,-0.17411168141141534,0.00947846083268523
1783174240320013000,0.352012939453125,-0.23425006990134714,-0.09134908092021941,0.0926970614630729
1783174240330081000,0.3620810546875,-0.18697277041971683,-0.09420344743803143,0.09280680544786155
1783174240340149800,0.372149658203125,-0.026440847679972648,-0.1660717289492488,0.03502973926179111
1783174240350218000,0.382218017578125,0.07598901470303535,-0.23879662728980183,-0.03847410756200552
1783174240360287000,0.392286865234375,0.1601911464780569,-0.30773090117573737,-0.16097053335271774
1783174240370356000,0.40235595703125,0.29846447565853595,-0.3069919193767011,-0.2041691852185875
1783174240380424000,0.412423828125,0.3693897772312164,-0.3372968951389193,-0.2614247848138213
1783174240390493000,0.422492919921875,0.4646610000312328,-0.39687355809286234,-0.24085728614665566
1783174240400561000,0.432560791015625,0.5443962155252695,-0.4689584049642086,-0.25100648584775626
1783174240410630000,0.4426298828125,0.6229752467215061,-0.4864220193319022,-0.31300182731598614
1783174240420699000,0.452698974609375,0.8158797452777624,-0.4610812418483197,-0.3263756881520152
1783174240430767000,0.46276708984375,1.254289282721281,-0.3572685468047857,-0.19704203675240278
1783174240440835800,0.4728359375,2.4051871645510197,-0.34515915294662114,0.4320918787293136
1783174240450904800,0.48290478515625,2.0709096172332764,-0.7356373109139501,0.2199485728263855
1783174240460973000,0.49297314453125,1.7446856125116348,-1.1095789062306285,-0.3675213530108332
1783174240471041800,0.503041748046875,1.5247440539479256,-1.0571855789095164,-0.9890199513085186
1783174240481109800,0.51310986328125,1.2524468697249889,-0.6624040246598422,-0.9484173072852193
1783174240491179000,0.523178955078125,1.2766688723117112,-0.5255955073349178,-0.5299297371469438
1783174240501248000,0.533248046875,1.6353648215711116,-0.22177257338315248,-0.27169541893750426
1783174240511316000,0.54331591796875,2.0457108785688876,0.17337591448277234,-0.14430742171294986
1783174240521385000,0.553385009765625,2.0825895336329934,0.4480092865683138,-0.27823000833801925
1783174240531454000,0.563453857421875,1.725299944040179,0.5668782425768674,-0.5537052380751818
1783174240541522000,0.57352197265625,1.327539227849245,0.6123815181232989,-0.7948528854705393
1783174240551591000,0.5835908203125,1.1533078655809164,0.6551674975350499,-0.8085315014068036
1783174240561659000,0.593658935546875,1.1557172648102045,0.659039078271389,-0.8182701475456357
1783174240571728000,0.603727783203125,1.3281968149751424,0.6276299406595528,-0.9480740468055009
1783174240581796900,0.613796875,1.638357573646307,0.6099272568389773,-1.0779777531780301
1783174240591865000,0.623864990234375,1.7141648020416498,0.4573096143551171,-1.1846113508611917
1783174240601934000,0.63393408203125,1.3760042758107185,0.2937441691383719,-1.1214867861673234
1783174240612001800,0.644001708984375,0.7469500014364719,0.26185192418470976,-0.3681666651770472
1783174240622071000,0.654071044921875,-0.207657246530056,0.19242782095521688,0.7061771154128015
1783174240632140000,0.66414013671875,-1.2478817537665365,-0.1125055584564805,1.7272345653645693
1783174240642207700,0.674207763671875,-2.562681911551952,-0.5612796919174492,2.676921746455133
1783174240652277000,0.684277099609375,-4.124492836612463,-1.0079758500605822,3.086451810894906
1783174240662346000,0.694345947265625,-5.673974441453814,-1.499734261984378,2.56316151176244
1783174240672414000,0.7044140625,-6.865732741460204,-2.0252613802582022,1.3263389121487736
1783174240682483000,0.71448291015625,-7.995735134777426,-2.662238264325261,-0.09482406355440616
1783174240692551000,0.724551025390625,-9.582601006117462,-2.8383634775161743,-1.145311313869059
1783174240702620000,0.734619873046875,-11.353469107633828,-2.2359781604893505,-1.6556697968445717
1783174240712689000,0.74468896484375,-12.637169193756579,-0.826805628439784,-1.3724394229359924
1783174240722756900,0.7547568359375,-12.633491382026671,0.6716350866027176,-0.1747923388856463
1783174240732826000,0.764826171875,-11.319420707559585,1.6746496609941124,1.0988784293223173
1783174240742894800,0.774894775390625,-9.650891283011436,1.888974402589351,1.2179543060798197
1783174240752963000,0.784963134765625,-8.462050916278361,1.241028819131851,0.44685642673876136
1783174240763032000,0.795031982421875,-7.440296131712198,0.564827447526902,-0.2860987689517438
1783174240773099800,0.805099853515625,-6.083250823393464,0.367093263791874,-0.5828077061798423
1783174240783169000,0.8151689453125,-4.6777328683286905,0.4580742420520633,-0.22125256809704005
1783174240793238000,0.825238037109375,-3.2216613685905933,0.599227802843973,0.2558378515269607
1783174240803306000,0.835305908203125,-1.8873276582956313,0.6667468761697412,0.6675636724453419
1783174240813375000,0.845375,-0.41007659240663047,0.6751945326499641,0.9739314685743301
1783174240823444000,0.85544384765625,1.2530343142241238,0.7704499002937227,1.1055394215814769
1783174240833512200,0.86551220703125,2.9441993489503857,1.0482856486171483,1.107504218848422
1783174240843581000,0.875580810546875,4.450474264749884,1.3932362733796237,1.2217628315173088
1783174240853649000,0.88564892578125,5.674962867969274,1.5234069601252673,1.5097117583803832
1783174240863718100,0.89571826171875,6.7519590627640484,1.2831699247688055,1.6979487035170195
1783174240873787000,0.905786865234375,7.770399608215689,0.8541068923413753,1.5366116018742322
1783174240883854800,0.915854736328125,8.643540871372819,0.37933819366320964,1.2196185860302298
1783174240893924000,0.925924072265625,9.281105784460902,0.05162256214432418,1.0177448182724416
1783174240903992000,0.935991943359375,9.705705407738686,-0.2288401006165892,0.9949002415187657
1783174240914061000,0.94606103515625,9.971824195587635,-0.45406091475747523,1.0410883575242011
1783174240924130000,0.956130126953125,10.057917255675791,-0.6170672647867351,1.0377506644688546
1783174240934198000,0.966197998046875,9.922421574515104,-0.6787663267221301,0.9473057658467441
1783174240944267000,0.97626708984375,9.66151263026893,-0.5586508047185837,0.9076233784735203
1783174240954336000,0.9863359375,9.415653955638408,-0.48813729881718754,0.873565041527152
1783174240964404000,0.996404052734375,9.331256593552231,-0.6207780289381742,0.7658708288751542
1783174240974473000,1.006472900390625,9.361088252714275,-0.7571173213161527,0.4240874359719455
1783174240984541000,1.016541015625,9.403897466871141,-0.8046683231726288,-0.1438424345497042
1783174240994610200,1.026610107421875,9.548440962362289,-0.7648859094910323,-0.6465238800913095
1783174241004679000,1.036678955078125,9.530354686051606,-0.5961889466047287,-0.9970843806248157
1783174241014747000,1.046746826171875,9.370084629118441,-0.29259923688694833,-1.24628104057163
1783174241024816000,1.056816162109375,9.092498106315732,0.1330095634333789,-0.8766771091330796
1783174241034884900,1.066884765625,8.756751070967317,0.3657059741519391,-1.2062044662490485
1783174241044952800,1.076952880859375,8.11781194691658,0.4897654845409095,-1.345152333690226
1783174241055022000,1.08702197265625,7.914212451344728,0.8715065015621483,-0.5514741180222481
1783174241065090000,1.097090087890625,7.756935731008649,1.3648738099873066,-0.009903006387688219
1783174241075159000,1.107158935546875,6.834585908046364,1.3789463206119834,-0.26226846909634766
1783174241085228000,1.11722802734375,5.739213514083623,1.0739666178405285,-0.5389805471520871
1783174241095296000,1.1272958984375,4.730128825998306,1.1222304441414772,-0.23659020328670738
1783174241105365000,1.137364990234375,3.72443553391695,1.294765377755463,0.17121508318707346
1783174241115433000,1.147432861328125,2.850857632908225,1.0441093858458101,0.38974597123526034
1783174241125502000,1.157501953125,1.9482687414705753,0.39267245314121246,0.38873715951889753
1783174241135571000,1.167571044921875,0.34908056417405603,-0.15242928030490874,0.1070157288685441
1783174241145639000,1.177638916015625,-1.4117735083281993,-0.2001218825891614,0.8354055528722703
1783174241155708200,1.187708251953125,-2.975838934317231,-0.24913521208316086,1.9496805079646407
1783174241165776600,1.197776611328125,-4.971680743345618,-0.3157181005373597,2.5200083064734935
1783174241175844600,1.2078447265625,-7.570216058567166,-0.1523755042910576,2.3305472263693807
1783174241185913600,1.21791357421875,-10.169417144221066,-0.3622432664774358,1.5576508827716111
1783174241195981800,1.22798193359375,-12.172768890488147,-0.9534479949288069,0.9170695444718002
1783174241206050600,1.238050537109375,-13.000029861479996,-1.6131329698882997,0.4241287908956408
1783174241216119800,1.248119873046875,-13.265518534731864,-2.0485877491794526,-0.19427344882190226
1783174241226187800,1.258187744140625,-14.564330849790572,-2.3215847522348163,-0.7249756316460668
1783174241236256500,1.268256591796875,-16.968368844306468,-2.3493103790283203,-0.8751943232294171
1783174241246325800,1.27832568359375,-19.72102037000656,-1.989969555994123,-0.43105654433220625
1783174241256393700,1.288393798828125,-21.8744691542387,-0.8033753607526422,0.5524039827508852
1783174241266462500,1.29846240234375,-23.110136738598346,0.5067246565178036,1.5655249771475792
1783174241276530700,1.30853076171875,-23.077758902084827,1.6869941787824034,1.905532300288975
1783174241286599700,1.318599609375,-21.85602631957531,2.4499032352425156,2.0298055995590985
1783174241296668700,1.328668701171875,-19.97908444621563,2.4491908491894603,1.9710988513074814
1783174241306736600,1.338736572265625,-16.919021168291568,1.659756627766788,1.410281077813357
1783174241316805600,1.3488056640625,-13.004003441286086,0.5413264526911079,0.2906981525059789
1783174241326873900,1.358873779296875,-8.592051507154107,-0.5739407283090054,-0.6975957495503127
1783174241336942600,1.368942626953125,-4.28660530654192,-1.457835148409754,-1.1436183923460543
1783174241347011600,1.379011474609375,-0.6737099931806325,-1.8152137314602732,-1.2299670346304774
1783174241357079800,1.389079833984375,1.972148798751831,-1.5681278531223535,-1.0542885422937571
1783174241367148500,1.3991484375,3.949083078214526,-0.9079010263711214,-0.8208479621443897
1783174241377217800,1.4092177734375,5.285939000463485,-0.2568373839583248,-1.2745569947242736
1783174241387285800,1.41928564453125,6.286929813942312,0.23801314876191318,-1.1219595913108438
1783174241397354500,1.4293544921875,6.823961638179421,0.3774834326419979,-0.7267387688610703
1783174241407422700,1.439422607421875,6.599218816813826,0.35426699036862697,-0.3696313309021294
1783174241417491700,1.44949169921875,5.849712701153755,0.2550559073690325,0.11426734396461397
1783174241427560400,1.459560546875,4.932504917255043,0.25379218930983916,0.40340164468735457
1783174241437628700,1.469628662109375,4.681489005991816,0.17580909644644707,0.3008994842531159
1783174241447697700,1.47969775390625,5.581241797220707,-0.15311784709095955,0.13246763857640326
1783174241457766700,1.4897666015625,6.984328725746273,-0.4583056031225249,-0.2477528908792883
1783174241467834600,1.499834716796875,8.369147007131575,-0.48283068030904974,-1.2158791803061961
1783174241477903600,1.509903564453125,9.172800308042763,-1.5020859396770596,-1.1506998750396071
1783174241487971800,1.519971923828125,9.848237563407421,-2.4103064072608946,-0.4120344484761357
1783174241498040600,1.53004052734375,10.436593916690349,-1.9005377068720757,-0.3128335215443745
1783174241508109600,1.540109619140625,10.77009171180725,-1.3908850340783596,-0.022540954164601862
1783174241518177800,1.550177734375,10.84254670716524,-1.231873745034635,0.6606425679452717
1783174241528246500,1.56024658203125,10.866743575310707,-0.9700883102148771,1.0798478578988462
1783174241538314500,1.570314453125,10.955396841275691,-0.8577176301844418,0.9715710961185395
1783174241548383700,1.5803837890625,10.967056883931159,-1.1414468935258686,0.6934441097635775
1783174241558452500,1.590452392578125,10.666937626802921,-1.479853941863775,0.2413078429257497
1783174241568520700,1.600520751953125,10.035940401667355,-1.6644249118387697,-0.19797946373298764
1783174241578589700,1.610589599609375,9.213002554571627,-1.5931547423511743,-0.5134390959972516
1783174241588658700,1.62065869140625,8.595399648538232,-1.3276611006632446,-0.614459274245426
1783174241598726700,1.6307265625,8.307012914779781,-0.9524008239634334,-0.5116428967628628
1783174241608795600,1.640795654296875,8.398861177393794,-0.7051363011229783,-0.35149811017718163
1783174241618863600,1.650863525390625,8.7008468129158,-0.5468214699108154,-0.45780569077637046
1783174241628932600,1.6609326171875,8.926506749126315,-0.3640746466230601,-0.5827226582448929
1783174241639001600,1.671001708984375,8.549436354264616,-0.1751842790789902,-0.5607506630746647
1783174241649069800,1.68106982421875,7.409837865084409,0.03029116643257439,-0.5798686935858801
1783174241659138600,1.691138671875,5.623256646129489,0.22792108607552944,-0.7577451708909124
1783174241669206500,1.70120654296875,3.7206449094623326,0.6777419521104544,-0.7150917318176477
1783174241679275800,1.71127587890625,2.2619477373957633,1.2554583265006543,-0.28485695219710466
1783174241689344800,1.7213447265625,1.5648820030689239,1.2784531253799796,0.017745207788050173
1783174241699412500,1.73141259765625,1.190149695765972,0.6986723658058792,0.004069076069816947
1783174241709481700,1.741481689453125,0.8288543776631355,-0.043381168825924396,0.44959114893227814
1783174241719550700,1.75155078125,0.2228326038300991,-0.8599712543301283,1.4262420325331389
1783174241729618700,1.76161865234375,-1.7040747851818798,-1.656636157658696,2.4249697233855723
1783174241739687700,1.771687744140625,-4.4305648646652696,-1.9970453395992516,2.880098924961686
1783174241749755600,1.781755615234375,-7.612517907723784,-1.8645020785033701,3.1458155617505312
1783174241759824600,1.79182470703125,-11.263047078430652,-1.9476698987945913,3.286436915361881
1783174241769893600,1.8018935546875,-14.149506186074017,-1.8745752903588115,2.903252421534061
1783174241779961600,1.811961669921875,-16.724230417597294,-1.6563881742469966,2.102618176183104
1783174241790030600,1.822030517578125,-19.834202512550352,-1.813037848725915,0.32538236626572903
1783174241800099600,1.832099609375,-23.608813405478,-2.2302726423241195,-0.9618467707660049
1783174241810167800,1.842167724609375,-27.52829220354557,-1.945146079405397,-1.3628420118987559
1783174241820236800,1.85223681640625,-30.5492509670496,-0.13306100135967136,-1.5578659868270157
1783174241830304500,1.862304443359375,-31.369255683302878,1.863193041731417,-1.1299801814854145
1783174241840373800,1.872373779296875,-28.830130003905296,2.900546377445757,-0.26954421398667616
1783174241850442800,1.88244287109375,-24.661051006591318,3.1172967387527226,0.08096156068490817
1783174241860510500,1.892510498046875,-20.423564243483543,3.2056773252561688,0.39805315979886796
1783174241870579700,1.902579833984375,-15.355715036237239,3.2111139633521435,1.11064828902781
1783174241880647700,1.912647705078125,-10.106042111897468,2.9910467325821517,1.1185104007050395
1783174241890716700,1.922716552734375,-5.578002961429953,2.0796669241845605,0.2971940903965384
1783174241900785700,1.93278564453125,-1.0620160678058863,0.9453354886870831,-0.7532446446012705
1783174241910853600,1.942853515625,3.356766589128971,0.20985563335716723,-1.5036398911207913
1783174241920923000,1.9529228515625,6.6884355618804685,-0.016217413698881862,-1.8193894097097216
1783174241930991600,1.96299169921875,8.5558643414855,-0.06171878954917192,-2.1017884473606943
1783174241941059600,1.9730595703125,9.80989409648776,0.4159485531799495,-1.9641098692029713
1783174241951128800,1.98312890625,10.380946263748406,1.0041744119510054,-1.2797129161827265
1783174241961196500,1.993196533203125,10.88253268059492,1.0288521954812109,-0.9066458386782557
1783174241971265500,2.003265625,11.556161425232887,0.5675235547430812,-1.1645011675074697
1783174241981334800,2.013334716796875,11.516066730731724,-0.04336728643104434,-1.6658309792444108
1783174241991402800,2.02340283203125,10.922945355004071,-0.5592011320777237,-2.489215693324804
1783174242001471700,2.0334716796875,11.359022065585851,-1.0998895791262389,-2.920299417924881
1783174242011539700,2.043539794921875,12.224157716941832,-1.3270173959322273,-2.647314251437783
1783174242021608700,2.053608642578125,12.596804450142383,-0.9538185818068683,-1.9837251086466012
1783174242031677700,2.063677734375,12.29410160626173,-0.45132615603134035,-1.2495466182388364
1783174242041745700,2.07374560546875,11.45307514476776,-0.0008878887504339218,-0.6576471855215728
1783174242051814700,2.083814697265625,10.534669675517081,0.17112930459976194,-0.4584676983490586
1783174242061883600,2.093883544921875,9.873103124594687,0.2745126683153212,-0.37561639666110275
1783174242071951600,2.10395166015625,9.48720937180817,0.38473756848871704,-0.48012744923233985
1783174242082020900,2.114020751953125,9.362429730451106,0.46937283098399635,-0.8314800499916076
1783174242092088600,2.124088623046875,9.431568733128906,0.3713023328542709,-1.0785783494196832
1783174242102157600,2.134157470703125,9.33088542215228,0.23033114289194345,-1.209627718695998
1783174242112226800,2.144226806640625,9.412215797883272,0.3650805357299745,-1.289255966684222
1783174242122294800,2.154294677734375,9.683948333960771,0.5123400121815502,-1.3138883036375044
1783174242132363500,2.164363525390625,9.785660403463243,0.4797067396022379,-1.4138428619481622
1783174242142431700,2.174431640625,9.553068622162938,0.3712542559288442,-1.658453874605149
1783174242152500700,2.184500732421875,8.970855009418726,0.4626654422998428,-1.8139761524893343
1783174242162569700,2.19456982421875,8.622458920377493,0.933107363820076,-1.7987487727411091
1783174242172637700,2.2046376953125,8.480363402560354,1.1131837988547981,-1.7045632993511854
1783174242182706700,2.214706787109375,8.074740282431245,0.6972910675153136,-1.9009495025433598
1783174242192775700,2.224775634765625,7.870539898356795,0.872104905846715,-2.225100938774645
1783174242202843600,2.23484375,7.057096440315246,0.6127241940811277,-2.1977223718531427
1783174242212913000,2.244912841796875,5.595342803287505,0.10689590188115834,-1.8881287455454467
1783174242222980900,2.25498095703125,4.056290238001942,-0.16432912306562064,-1.1639938025072216
1783174242233049600,2.265049560546875,2.2132073796242473,-0.5889607489168643,0.09653452073410153
1783174242243118800,2.275118896484375,0.04246025458872318,-1.088922048779577,1.6671489299751818
1783174242253186800,2.285186767578125,-2.1972335654228923,-1.5777362239450214,2.792889428064227
1783174242263255600,2.295255615234375,-4.787260580018162,-2.0516199564822015,3.0250778892606496
1783174242273323800,2.30532373046875,-7.289283147946,-3.023886633649468,2.1105023535616696
1783174242283392800,2.315392822265625,-10.275387455689906,-4.072432394507527,1.4652619374096392
1783174242293461800,2.325461669921875,-13.755342033070326,-4.357762663304806,1.9438623232051728
1783174242303529700,2.33552978515625,-17.681408392834662,-3.0064918467342854,3.633956806090474
1783174242313598700,2.3455986328125,-20.967043344163894,-0.5175749902255833,4.0654689852356904
1783174242323667700,2.355667724609375,-24.844060134077072,1.0117226353734732,3.167248225879669
1783174242333735700,2.365735595703125,-28.935278477597237,0.8130185106277465,1.2733613551989198
1783174242343804700,2.3758046875,-30.869627414786812,0.563220450721681,-0.4234898719375953
1783174242353873000,2.385872802734375,-29.019732538306712,0.5760651731170714,-0.2987990048425272
1783174242363941600,2.395941650390625,-23.43676289438009,0.27740824362635613,0.08675612710677087
1783174242374011000,2.406010986328125,-17.28752481033802,-0.4044897321850061,-0.9552082095343619
1783174242384078800,2.416078857421875,-12.585764000689982,-1.116147324835509,-1.7152546431049704
1783174242394147600,2.426147705078125,-9.02742971407771,-0.5495587128549814,-2.0408885729789734
1783174242404216800,2.436216796875,-6.068066698265075,0.40836467392221093,-1.1874369296759366
1783174242414284800,2.446284912109375,-3.020149200686812,1.3530065543219447,-0.05252855280702933
1783174242424353500,2.456353515625,0.06931728185415267,1.7488329414494335,0.5529224901996552
1783174242434421800,2.466421875,2.539574592208862,1.518586700361967,0.7083662960201501
1783174242444490800,2.47649072265625,4.21262003287673,0.7965555977351964,0.563442569039762
1783174242454559700,2.486559814453125,5.41985647252202,0.39485096622407434,0.37429574251659214
1783174242464627700,2.496627685546875,6.04297375806272,0.4771751752980053,0.513624352903664
1783174242474696700,2.50669677734375,6.746774353602528,0.4287534550216049,0.7183125935602933
1783174242484765000,2.516764892578125,7.483085472124815,0.037989027458801866,0.6322448140438646
1783174242494833700,2.526833740234375,7.837498044976591,-0.5079501066595316,0.2872177082453854
1783174242504902700,2.536902587890625,8.324336390024422,-1.5714771635502576,-0.09053675989033654
1783174242514971000,2.546970947265625,9.142939422786235,-2.133035526278615,-0.22279134023794903
1783174242525039600,2.55703955078125,9.724119600829482,-1.9899920600868761,-0.1553689504859969
1783174242535108900,2.56710888671875,10.088144051635265,-1.7017475112780927,0.006635638622194528
1783174242545176800,2.5771767578125,10.20699021129012,-1.6315214440159498,-0.18687990450449288
1783174242555245600,2.58724560546875,9.850816473984718,-1.645526734623313,-0.45266756070293485
1783174242565313800,2.597313720703125,9.57742272669673,-1.4547330907411873,-0.5283626704933122
1783174242575382800,2.6073828125,9.810335995036363,-1.167637127445638,-0.48919882710147644
1783174242585451500,2.617451416015625,10.021286437892913,-0.9330664472877979,-0.33994613100606946
1783174242595519700,2.627519775390625,9.943679466599225,-0.7355133922733366,-0.2109605258591473
1783174242605588700,2.637588623046875,9.558280219331383,-0.5562938663288951,-0.23851338990163057
1783174242615656700,2.64765673828125,9.070893008229136,-0.4602338312387466,-0.2562636391909793
1783174242625725700,2.6577255859375,8.86230286476314,-0.30646497289314867,-0.26761667999019845
1783174242635794700,2.667794677734375,8.73041193009615,-0.1397771578721702,-0.15152060449477284
1783174242645863000,2.67786279296875,8.546188750645518,0.08673924903720617,0.007788571516983211
1783174242655931600,2.687931640625,8.309896945783496,0.4082403168901801,0.016990407365374265
1783174242666000600,2.698000732421875,7.979265061491727,0.6947606722548604,-0.12545293750874698
1783174242676068900,2.70806884765625,7.7855358025491235,1.0485182883292437,-0.21149638630151749
1783174242686137600,2.7181376953125,7.6577844519048925,1.215682634820789,-0.1195157294794917
1783174242696205600,2.72820556640625,7.082004671600461,1.143852931754291,-0.3187540341671556
1783174242706274800,2.73827490234375,6.014024142432213,1.214825871860981,-0.6331451969496905
1783174242716343600,2.748343505859375,5.047665666395425,1.3571373705163596,-0.9283891761917621
1783174242726411800,2.758411865234375,4.6473120111018416,1.436598299113661,-1.368511581967771
1783174242736480800,2.768480712890625,4.3775954910218715,1.4314920620158313,-1.5669187695935367
1783174242746548700,2.778548828125,3.8954064330846068,1.4035403713814913,-1.260934419824183
1783174242756617700,2.78861767578125,3.138760382542014,1.0993310684606432,-0.565872061209008
1783174242766686700,2.798686767578125,1.6902748078882692,0.3886431976251304,0.5862703407891094
1783174242776754700,2.808754638671875,-0.7118178977787494,-0.6535027791932225,2.032268628671765
1783174242786823700,2.81882373046875,-3.537645718848705,-1.5037984426833688,2.6385446695268153
1783174242796892700,2.828892578125,-6.295305428099632,-2.468580024792254,2.044611392894387
1783174242806961000,2.8389609375,-9.614684828120469,-3.166770671495795,0.7224705169573425
1783174242817029600,2.849029541015625,-14.925517446821926,-2.9516435274764894,0.8156846610970795
1783174242827097600,2.85909765625,-21.067008277738093,-1.933522423237562,1.7978332653313873
1783174242837166800,2.869166748046875,-25.356442670226095,-0.9301723332814872,2.644063725209236
1783174242847235600,2.879235595703125,-26.374254270124435,-0.7515833603255451,3.32760011587739
1783174242857303600,2.889303466796875,-24.6481751584053,-1.2947225615270435,3.373376363146305
1783174242867372800,2.899372802734375,-21.215755070137977,-1.9255365390501915,2.813775564226508
1783174242877441500,2.909441650390625,-16.90004758775234,-2.4891829600989817,1.6735224105298518
1783174242887509800,2.919509765625,-13.002068673831223,-2.884190578189492,0.11993395489156246
1783174242897578800,2.929578857421875,-10.91871692365408,-2.432175563111156,-0.7250562226016074
1783174242907646700,2.939646728515625,-10.33546929168701,-0.6492473137058318,-0.6816388864837587
1783174242917715700,2.9497158203125,-9.484811078494786,1.3005901383861898,-0.6100818628787994
1783174242927784700,2.95978466796875,-7.736665096396207,2.3270564616441725,-0.8126720352776348
1783174242937852700,2.969852783203125,-4.603196975043415,2.4791247996821997,-1.006542748517543
1783174242947921700,2.979921630859375,-0.8435486734479666,2.1732840961672366,-1.225744959956035
1783174242957989600,2.98998974609375,2.130039851593971,1.8507579230502247,-1.2768565038383006
1783174242968059000,3.000058837890625,4.037683737209439,1.5919646557837723,-1.2662731505036353
1783174242978127600,3.010127685546875,5.648427912265062,0.9536721590735018,-1.6256111970588565
1783174242988195600,3.020195556640625,7.6643234982848165,0.11638503023833036,-1.8934673300944267
1783174242998264800,3.030264892578125,9.009673692634701,-0.43889264478534457,-1.3991050192825496
1783174243008333600,3.04033349609375,8.664300750806927,-0.217625682836771,-0.6134373838517815
1783174243018401500,3.050401611328125,7.608883350613713,0.20086554056331515,-0.14940299128629267
1783174243028470800,3.060470703125,6.604606939592957,0.11139525912702083,0.08750475351698696
1783174243038538800,3.070538818359375,5.91251607106924,-0.12584990093708037,0.1960086020514369
1783174243048607700,3.080607666015625,6.0882753735572095,-0.4483690597914159,0.24971082001402972
1783174243058676700,3.0906767578125,6.869056332924962,-0.8877405741348862,0.18841639335677027
1783174243068744700,3.10074462890625,7.780062924095988,-1.429104436226934,0.07473748027198016
1783174243078813700,3.110813720703125,8.782176604124903,-1.7776618533097206,-0.2236190780326724
1783174243088881700,3.120881591796875,9.557029342487454,-1.9970143599390981,-0.4001826826408505
1783174243098950700,3.13095068359375,9.78507295896411,-1.9806062459737062,-0.5078485459811986
1783174243109019600,3.14101953125,9.491067800801991,-1.7546828365214169,-0.43061815291494127
1783174243119087600,3.151087646484375,8.933793983525037,-1.3976812700897454,0.0360240840613842
1783174243129156900,3.161156982421875,8.177432010620832,-0.8937643644690513,0.4828511020425707
1783174243139225600,3.1712255859375,7.4332643333792685,-0.28128654636442657,0.7924420249365269
1783174243149293600,3.18129345703125,7.004553183129429,0.006760434045642614,0.8623677940778434
1783174243159362800,3.19136279296875,6.786841575574875,0.0524956186518073,0.4828679070468992
1783174243169430300,3.20143017578125,6.8412173088848585,-0.11133724532946944,-0.21119185039699076
1783174243179499300,3.211499267578125,6.990979415807128,-0.32487945824488995,-0.831764712151885
1783174243189568300,3.221568359375,7.076687860491871,-0.26974355421736834,-1.13440157812424
1783174243199636200,3.23163623046875,7.037778576382994,0.07161284544542432,-1.0899519763492047
1783174243209705500,3.24170556640625,7.008129288050532,0.6616086364984511,-0.9299334099590778
1783174243219774200,3.251774169921875,6.92737817351222,1.272987115059048,-0.8187644338686019
1783174243229842200,3.26184228515625,6.740317140287161,1.5794653858251868,-0.8078697495624423
1783174243239911400,3.271911376953125,6.3979340279251335,1.5539469136871396,-0.9198734959766268
1783174243249979100,3.281979248046875,5.653025761449337,1.4655746566206216,-1.1863147937782108
1783174243260048400,3.29204833984375,4.936290281012654,1.4387529929295182,-1.0940698599968104
1783174243270117400,3.302117431640625,4.549312824642658,1.4990638153769076,-0.6147602299533784
1783174243280185300,3.312185302734375,3.8686534507155415,1.0597250342592597,0.3055887745805084
1783174243290254300,3.32225439453125,2.39136672899127,0.1030550085440278,1.0538969856929032
1783174243300322300,3.332322265625,0.6173509770989418,-0.9558800443813205,0.8651861394342034
1783174243310391300,3.342391357421875,-1.2369628848671912,-2.2443305399015543,0.2323184442516416
1783174243320460300,3.352460205078125,-3.0959985146582123,-3.602794775107503,-0.4608416609387844
1783174243330528300,3.3625283203125,-6.628907268112897,-4.659880400773883,-0.941280587273091
1783174243340597500,3.372597412109375,-12.369534156125782,-4.19657958317995,-0.47907691726610063
1783174243350666200,3.382666259765625,-18.971893609052895,-2.2996977684669195,0.48236024978570635
1783174243360734200,3.392734130859375,-23.531609754288194,-0.3491377011887729,1.1820547251809388
1783174243370803500,3.402803466796875,-24.008895258092878,0.3979195600144565,0.9677160281255841
1783174243380871200,3.41287109375,-21.33013431351185,-0.6363052684158086,0.1480597599837929
1783174243390940200,3.422940185546875,-18.669229343616962,-1.898865974267572,-1.216528949451819
1783174243401009400,3.433009521484375,-17.38991434071064,-2.3828446921005844,-1.5179437262833118
1783174243411077400,3.443077392578125,-17.38079112305641,-2.0244488948315382,-0.5394728607136756
1783174243421146400,3.453146484375,-17.851120816373825,-1.1764426574528217,0.3458293438257649
1783174243431214300,3.46321435546875,-17.739916695904732,-0.16366072228476405,0.6727215666651726
1783174243441283300,3.473283447265625,-16.252387981629372,0.3226082984425127,0.788755226182565
1783174243451352300,3.483352294921875,-13.520657663404942,0.5859861170202494,0.6210296656116843
1783174243461420300,3.493420166015625,-10.257779318284987,0.7536535907283425,0.4599727326171472
1783174243471489300,3.5034892578125,-6.797082983604073,0.6922229704707861,0.30436853033686057
1783174243481558300,3.513558349609375,-3.174811354610324,0.40846842655763027,0.2143505518899299
1783174243491626200,3.523626220703125,0.360436655446887,0.1370584004327655,0.20850480327010154
1783174243501695500,3.533695556640625,3.7538703027158973,-0.2976230563983321,0.0027542671442031858
1783174243511763500,3.543763427734375,6.383485231333971,-0.5577433344848454,-0.22002945604287086
1783174243521832200,3.553832275390625,7.331340666952729,-0.2548006904989481,-0.06426212192301173
1783174243531901400,3.5639013671875,7.259660163098573,0.31626945080980656,0.709812476240471
1783174243541969400,3.573969482421875,6.911364027300476,0.8136020826693624,1.7862173540785908
1783174243552038100,3.5840380859375,6.766438839015365,1.0266844960533081,2.1700506672039626
1783174243562107400,3.594107421875,7.3291083778560155,0.687253803756088,1.8602702861525118
1783174243572175400,3.60417529296875,8.244692944467067,0.0730871557816863,1.1261056781396268
1783174243582244400,3.614244384765625,9.54668564312756,-0.4280797935437411,0.20563567757457493
1783174243592312300,3.624312255859375,11.063030702042578,-0.9053146631397306,-0.5702872107701376
1783174243602381300,3.63438134765625,12.882149331986904,-1.3656339807048439,-1.3413766145437955
1783174243612450300,3.6444501953125,14.604085352551936,-1.5833569864362478,-1.5256822115808724
1783174243622518300,3.654518310546875,14.684294615298509,-1.3528719681568444,-1.1451361034326255
1783174243632587300,3.664587158203125,12.930269512033462,-0.957923971299082,-0.8594811327256262
1783174243642655500,3.674655517578125,10.948726277470588,0.05699672946333885,-0.6486033167138695
1783174243652724200,3.68472412109375,9.93859997137785,0.401490111977607,-0.2936915621683001
1783174243662793500,3.69479345703125,9.23685046314895,0.5099406959548592,-0.43380631796438246
1783174243672861400,3.704861328125,8.625629951629042,0.6928342342369258,-0.7439737621046603
1783174243682930200,3.71493017578125,8.59963684771657,0.5788422366149724,-0.7089248066857456
1783174243692999400,3.72499951171875,8.954143528592587,0.14707520592585205,-0.45862880719490345
1783174243703067400,3.7350673828125,9.302297041049599,-0.05853636012077331,-0.24071203245706854
1783174243713136000,3.74513623046875,9.208954155963658,0.10091419712305068,0.1231855040334165
1783174243723204400,3.755204345703125,8.73761031716764,0.47505409149080513,0.39646380824819205
1783174243733273300,3.7652734375,8.163296517762541,0.920877558452636,0.5800436482939869
1783174243743342300,3.77534228515625,7.626315546929836,0.9831687410622835,0.669836147421971
1783174243753410300,3.785410400390625,7.01926676813662,0.8958407323516905,0.050703620668500655
1783174243763479300,3.795479248046875,6.646226067182421,0.5732696971796453,-0.9037670683715492
1783174243773548300,3.80554833984375,6.963400504007935,0.23954569209143517,-1.5346952468588948
1783174243783616300,3.8156162109375,6.275639189121127,0.2716984876774251,-1.9426973710790276
1783174243793685200,3.825685302734375,4.530885187548399,0.44707098280489443,-2.029104027161002
1783174243803753500,3.83575341796875,3.1987633080840108,0.5397178484506905,-1.7725681834325193
1783174243813822200,3.845822265625,2.4471125816106793,0.5954350594975054,-1.6251887338630855
1783174243823891500,3.855891357421875,2.364800209105015,0.2736895153641701,-1.0439636937648058
1783174243833959400,3.86595947265625,2.507112584543228,-0.780717538742721,-0.8823227868698537
1783174243844028200,3.876028076171875,0.6675561467260122,-1.8575602965414524,-0.750097944073379
1783174243854097400,3.886097412109375,-4.331331752496958,-2.6673864408686754,-0.5235469042420386
1783174243864165400,3.896165283203125,-11.486481739807129,-3.27213483376503,-0.2592971251353621
1783174243874234000,3.906234130859375,-18.07231792795658,-2.6193986550301314,0.24254618908166883
1783174243884302300,3.91630224609375,-22.534095092487334,-1.8455179765701293,0.9891131094846873
1783174243894371300,3.926371337890625,-24.42339142050743,-0.9306751682370901,1.047609356790781
1783174243904440300,3.9364404296875,-22.86383558089733,-1.1337100156635045,1.3995833043187855
1783174243914508300,3.94650830078125,-19.23669371551871,-2.0398937167227267,1.2299924613326787
1783174243924577300,3.956577392578125,-17.423582801556588,-3.009737112265825,-0.15530125554464758
1783174243934645500,3.9666455078125,-17.607931653213498,-3.1003140397697684,-0.6842356980439275
1783174243944714200,3.97671435546875,-19.23752139851451,-2.1365230761334297,0.2483180139487609
1783174243954783200,3.986783203125,-20.608025323343277,-0.5538510032214224,1.7965774200513958
1783174243964851500,3.9968515625,-20.2678382597208,0.7285187110804021,2.3737673594146966
1783174243974920200,4.006920166015625,-17.889970479249953,1.1464416330732405,1.577226520857215
1783174243984989400,4.016989501953125,-15.294157866990565,0.6636706835947931,0.10097920691696927
1783174243995057400,4.027057373046875,-13.113795356869696,0.2937824553221464,-0.7777958060771226
1783174244005126100,4.037126220703125,-9.974308413618802,0.6331180166818201,-0.4634911525342613
1783174244015194000,4.047194091796875,-5.752961468929052,1.0548602047018707,0.22960790665131062
1783174244025263400,4.057263427734375,-1.3320745331913233,1.269353726992756,0.8011714209675789
1783174244035332000,4.06733203125,2.439847559043765,1.258245034609735,0.8894392678115517
1783174244045400300,4.077400390625,5.0089393376380205,1.1546658560611307,0.4371661497863009
1783174244055469300,4.08746923828125,6.697373486095667,0.9506295765072107,-0.1001028442075476
1783174244065538300,4.097538330078125,7.73977416832745,0.981235434912145,-0.24178013661261646
1783174244075606300,4.107606201171875,8.315399050331115,1.0529096551559864,-0.017891192129999397
1783174244085675300,4.11767529296875,8.775034915676713,0.7814177959665656,-0.10183997019845992
1783174244095743200,4.1277431640625,9.192434982839226,0.30190891702398653,-0.30881825802102686
1783174244105812200,4.137812255859375,9.848487738776207,0.10911182436496018,-0.5286730150841176
1783174244115881200,4.147881103515625,10.975943954741954,0.069566580440104,-0.5489976449061185
1783174244125949400,4.157949462890625,12.162516376543044,-0.057967181930691,-0.7057619587406516
1783174244136018200,4.16801806640625,13.049039683842658,-0.13367080382108687,-0.9097184510566294
1783174244146086100,4.178086181640625,13.429130887830256,0.006086188045889139,-0.9552315173447131
1783174244156155400,4.1881552734375,12.993381509506701,-0.11005246621593832,-1.024038365458697
1783174244166224600,4.198224609375,12.078870125085114,-0.1849102849319577,-1.2930053823456167
1783174244176292600,4.208292724609375,11.634432413393258,-0.044442514447122806,-1.0843784870658069
1783174244186361900,4.21836181640625,11.278857226502895,0.2771824720464647,-0.7485589710030705
1783174244196430600,4.2284306640625,10.94419272569418,0.345449514195323,-0.6461903372880071
1783174244206498600,4.23849853515625,10.455230812621116,0.4174811695747077,-0.6305391791697591
1783174244216567800,4.24856787109375,9.778500010314584,0.6009769115336239,-0.5026324187681078
1783174244226635800,4.2586357421875,9.473268524739145,0.8076645823791623,-0.1926305769857019
1783174244236704500,4.26870458984375,9.396893141067027,1.1664140153914688,0.21757614460662006
1783174244246773800,4.278773681640625,9.021719519737362,1.443312117538601,0.5490895609732717
1783174244256841700,4.288841796875,8.388578268310427,1.5006040305562316,0.47999724698141216
1783174244266910500,4.298910400390625,7.78943982425034,1.3821072688609362,0.17663747356198728
1783174244276979700,4.308979736328125,7.120421788278222,1.0732343580432235,-0.26945998803563415
1783174244287047700,4.319047607421875,6.642999506351352,0.9197655055575072,-0.5988585311401635
1783174244297116700,4.32911669921875,6.007735271421074,0.8989612024597823,-0.612942659137398
1783174244307184600,4.3391845703125,5.041272165966034,1.1251629904620348,-0.5072850668795407
1783174244317253600,4.349253662109375,4.299443160805106,1.3285209323629736,-0.2265113654080778
1783174244327322600,4.359322509765625,4.2407226762890815,1.100825398671627,-0.3928429874025285
1783174244337390600,4.369390625,4.292912297731638,0.43327129777222867,-0.5078535144172609
1783174244347459600,4.37945947265625,3.393326679763198,-0.4343712218381464,-0.05312295676991343
1783174244357527800,4.38952783203125,1.9260598322719333,-1.3631363186702132,1.0428928496629
1783174244367596500,4.399596435546875,-0.7836369333207607,-2.191127211371809,2.9084570044398306
1783174244377665800,4.409665771484375,-4.144806725844741,-2.479481065773964,4.666045060883462
1783174244387733800,4.419733642578125,-8.696893106853961,-2.787700919510424,5.197206824043393
1783174244397802500,4.429802490234375,-14.827870727062225,-3.4532439728483557,3.537737196524441
1783174244407871700,4.439871826171875,-20.524321788740156,-4.502898279470205,0.480616876717098
1783174244417939700,4.449939697265625,-22.887527422130105,-5.210274979931116,-2.231458344977349
1783174244428008400,4.460008544921875,-21.8219136220932,-5.648381735035777,-3.599798808161914
1783174244438076700,4.47007666015625,-21.233232274639604,-5.660086785876751,-3.891243760447204
1783174244448145700,4.480145751953125,-23.119203842151165,-5.15498739247322,-3.9673628312706946
1783174244458214700,4.490214599609375,-23.874901798188684,-4.147737518599629,-3.4427366073593495
1783174244468282600,4.50028271484375,-21.79977193291187,-2.489250180116296,-1.8263674320288001
1783174244478351600,4.5103515625,-18.156510122859476,-1.210943623600155,-0.2786698610600084
1783174244488420600,4.520420654296875,-14.414763388657569,-0.40208720108792184,0.7578187475837767
1783174244498487800,4.53048779296875,-12.158047122174501,0.3226161894880235,0.6948712930224835
1783174244508556500,4.540556640625,-10.786994915813207,0.5186844127722084,0.24937208957895635
1783174244518624800,4.550624755859375,-9.010452860313654,1.2857447436928748,0.2881060719198547
1783174244528693800,4.56069384765625,-7.280095048362016,2.153443815796077,0.5354984406573697
1783174244538761700,4.57076171875,-5.807818848276138,2.2709330078840253,0.6821253548264503
1783174244548830700,4.580830810546875,-4.867939798364043,2.238205481150001,0.5528532243557274
1783174244558899700,4.590899658203125,-3.1852877404391764,2.2191747635960577,0.3005818696713075
1783174244568967700,4.6009677734375,-0.5998053835362196,2.0678731721468266,0.34645719340052455
1783174244579036700,4.61103662109375,1.9285089789897203,1.8528205546684562,0.5149431804172694
1783174244589105700,4.621105712890625,4.846719900202751,1.5234261032171545,0.3308833017695695
1783174244599174000,4.631173828125,7.699177369523048,1.3104327563561498,0.03860146026872098
1783174244609242600,4.64124267578125,9.919439343833922,1.2510896098971367,0.04704210248626768
1783174244619310600,4.651310546875,11.229521240925788,0.891979746074602,0.2215377417139709
1783174244629379800,4.6613798828125,11.674576207733153,0.6019060090772808,0.24613939126804468
1783174244639448600,4.671448486328125,11.357201864421366,0.29668358359113334,0.21901472604237496
1783174244649516500,4.6815166015625,11.272751310843228,-0.1462134745299816,0.06049312021173536
1783174244659585800,4.691585693359375,11.382846008765696,-0.5024873112089931,-0.19343918995484707
1783174244669654500,4.701654541015625,11.413470279610156,-0.8487083942987024,-0.8300313124880194
1783174244679722800,4.71172265625,11.698730990302561,-1.3482824484094977,-1.6475851284578442
1783174244689791700,4.721791748046875,12.118022570300102,-1.8523479687206446,-2.4750822462931272
1783174244699859700,4.731859619140625,12.276514511644839,-1.9708853546872733,-2.870833083966374
1783174244709928700,4.7419287109375,11.476751788431406,-1.6933533385507762,-2.5574831738650796
1783174244719997700,4.751997802734375,9.966067824018001,-1.0292297966219484,-1.8175436357125638
1783174244730065700,4.762065673828125,9.008386575433612,-0.24494974309206008,-0.9437121983341872
1783174244740134700,4.772134765625,8.585084590750933,0.2525615332700312,-0.3560780949112028
1783174244750203600,4.78220361328125,8.591414962816238,0.5595473151668906,-0.2437954584904015
1783174244760272000,4.79227197265625,8.42956494321525,0.5670350405737757,-0.6668211104497314
1783174244770340600,4.802340576171875,8.33407627827227,0.29513489284440875,-1.3487709625788031
1783174244780408600,4.81240869140625,8.997859336200356,0.23018559694141147,-1.5795235457532106
1783174244790477800,4.822477783203125,9.602032267296314,0.4381402189828455,-1.2947240228317678
1783174244800546600,4.832546630859375,9.185551653066277,0.7974442171379923,-1.0028703436151147
1783174244810614500,4.842614501953125,8.264011977443099,0.9968734412878751,-1.0893789987668394
1783174244820683800,4.852683837890625,7.485212547281384,1.1348412116505204,-1.1894085220098496
1783174244830751700,4.862751708984375,6.669963501122593,1.2771440886080265,-1.2950149686023593
1783174244840820700,4.87282080078125,6.048760524770617,1.3772152590356765,-1.3997506237097084
1783174244850890800,4.882890869140625,4.978430217605829,1.555136415732652,-1.3751115647546945
1783174244860959700,4.892959716796875,3.8984576373487707,1.4006710995554923,-1.467901638263464
1783174244871028700,4.90302880859375,3.126108406239748,0.9381079485863446,-1.3652677777409552
1783174244881096700,4.9130966796875,1.4239175351083277,0.6570863367684185,-0.5992191080808639
1783174244891165700,4.923165771484375,-1.1628911019623278,0.6118713766440749,0.9273511383809149
1783174244901234700,4.933234619140625,-3.5813323003619906,0.27557649815455076,2.5423022636070844
1783174244911302700,4.943302734375,-5.585903943812847,-0.695615535518527,2.990128156432509
1783174244921371600,4.95337158203125,-7.288800917387008,-1.889151220460981,1.6291668437138198
1783174244931439600,4.963439697265625,-9.045112670284508,-3.0611057727143165,-0.4109582706119865
1783174244941508900,4.9735087890625,-11.654594911456108,-3.9756279707908626,-1.46967127828449
1783174244951577600,4.98357763671875,-14.905983894312381,-4.021960975159704,-1.2049373689226806
1783174244961645600,4.9936455078125,-16.51832206056118,-3.465947094815969,-0.41176659132018684
1783174244971714800,5.00371484375,-15.924143869256973,-3.1538617978230117,0.3677373338490724
1783174244981783600,5.013783447265625,-15.4523949567914,-3.2194252801015972,0.30330840855836866
1783174244991851500,5.0238515625,-15.990005457699297,-3.0162171219348908,-0.4849655369132757
1783174245001920800,5.033920654296875,-17.660701120370625,-2.441386459048837,-0.259216680310294
1783174245011988700,5.04398876953125,-20.77931361789703,-1.3635986754849552,1.3177771277695893
1783174245022057700,5.0540576171875,-22.28210536775589,0.4289082802571356,2.431537265207618
1783174245032126700,5.064126708984375,-20.664780060744285,1.341438135472685,2.3516009741835293
1783174245042194700,5.074194580078125,-17.2998699126482,0.9521620467714965,1.4815049239411948
1783174245052263700,5.084263671875,-13.303568571662902,0.32465792444869873,0.39458219575267284
1783174245062332700,5.094332763671875,-8.592087747511266,0.060828124319761985,-0.4551550666697323
1783174245072400600,5.104400634765625,-4.266673110103607,0.04755333994403481,-0.7940911803830415
1783174245082469600,5.1144697265625,-0.975709657227993,0.2728939810723066,-0.45617527656294404
1783174245092537600,5.12453759765625,0.7744020719856023,0.40855471660159526,0.40752456983625884
1783174245102606800,5.13460693359375,1.1800929966539144,0.568892431943491,1.3275329442389308
1783174245112675600,5.144675537109375,1.1588099701285361,0.9033048576872795,2.0718946827478706
1783174245122743600,5.15474365234375,1.5885481253385543,1.2809826438575982,2.658144565270841
1783174245132812800,5.164812744140625,3.1521903574794528,1.2224717104390264,2.397663491047919
1783174245142881500,5.174881591796875,5.354019433999062,0.48967473751753565,1.732558829127252
1783174245152949500,5.184949462890625,7.723347349661588,-0.13272468207739294,0.9972698932595551
1783174245163018800,5.195018798828125,9.49989349681437,-0.5739950157795101,0.4032525916054845
1783174245173087200,5.205087158203125,11.220421404147148,-0.8975994856525212,0.12501195227559656
1783174245183156000,5.215156005859375,11.566275992012024,-1.1726935340523719,-0.22606084516160188
1783174245193225200,5.22522509765625,10.581646530747413,-1.34486533344239,-0.6653695234019309
1783174245203293200,5.235293212890625,10.093610500347614,-1.4227408925443887,-0.8896989416610449
1783174245213362000,5.24536181640625,9.81489292768836,-1.2070054804336279,-0.9243765064842998
1783174245223430100,5.25543017578125,9.868197816896439,-1.0270029874179512,-0.9820810919560492
1783174245233499100,5.2654990234375,10.07382911055684,-0.9627937692925334,-1.2392382824532686
1783174245243568000,5.275568115234375,10.193259792101383,-0.9120733436197042,-1.4414081836134194
1783174245253636000,5.285635986328125,10.200479806482791,-0.8090249109469354,-1.5698801036171615
1783174245263705000,5.295705078125,10.067958172696828,-0.5797314405396581,-1.4779980848640202
1783174245273774000,5.305774169921875,9.718525726345181,-0.31402013751305635,-1.221480726640299
1783174245283842000,5.315842041015625,9.32887057519853,-0.018205372645705938,-0.9544334988348185
1783174245293911000,5.3259111328125,9.229514713433383,0.24399156558439133,-0.6843292946115136
1783174245303980000,5.33597998046875,8.970371025294066,0.45811486632339654,-0.6413619672834873
1783174245314048000,5.346048095703125,8.978788140505552,0.4617641095459461,-0.8137998702637851
1783174245324117200,5.3561171875,9.132381788414715,0.5561083536941558,-0.804488509626314
1783174245334185200,5.366185302734375,8.98902954853475,0.6595841449335217,-0.7560566332820803
1783174245344254000,5.37625390625,8.404292554792761,0.6404022554058582,-0.7081291262634098
1783174245354323200,5.3863232421875,7.91346192523837,0.8507893652912228,-0.4384850868977606
1783174245364391200,5.39639111328125,7.759129441660642,1.2926993851363657,-0.07108436459191143
1783174245374460000,5.4064599609375,7.910103262460232,1.3966113027706741,-0.1466858412820846
1783174245384528100,5.416528076171875,7.7151751491218805,1.3821658671803772,-0.41952743458002806
1783174245394597000,5.42659716796875,7.105671378391981,1.3261708621054886,-0.822895615389198
1783174245404666000,5.436666015625,6.099426297646761,1.1824794533990324,-1.2126727854803203
1783174245414734000,5.446734130859375,5.097945654824376,1.116507828710973,-1.301964057087898
1783174245424803000,5.456802978515625,4.033520187789201,0.9763234052121639,-0.7882941845420748
1783174245434872000,5.4668720703125,2.2278180887788532,0.6131780753284692,0.4765764056872576
1783174245444940000,5.47693994140625,0.6100128892958164,0.14653554609119893,2.3056594533503056
1783174245455009000,5.487009033203125,-1.402926769527793,-0.3732537591829896,3.352536988735199
1783174245465077200,5.4970771484375,-6.370264515233039,-1.3415968331657349,3.1953216431975364
1783174245475146000,5.50714599609375,-12.482158664786814,-1.9989188783861696,2.2815692604497073
1783174245485215200,5.51721533203125,-18.28658728610277,-2.405717910426855,0.8808145742639899
1783174245495283200,5.527283203125,-21.719519415545463,-3.3820866160854695,-0.25911975927446035
1783174245505352000,5.53735205078125,-21.211951001679896,-4.002477399271727,-1.1954122194040566
1783174245515421200,5.547421142578125,-18.076690151691437,-4.086501836392284,-1.589080040258169
1783174245525489200,5.5574892578125,-15.81950392960906,-4.013412050262093,-1.672794680777192
1783174245535558000,5.567557861328125,-17.631102100920675,-3.8537978268891573,-1.778863191923499
1783174245545626000,5.577626220703125,-20.96494374153614,-3.1854367935210464,-1.4371508184298871
1783174245555695000,5.587695068359375,-24.11863105957508,-1.7141750311747193,0.7184747983846813
1783174245565764000,5.59776416015625,-27.614497491836545,-0.0742374217953533,2.9696652141183613
1783174245575832000,5.60783203125,-29.07087118939161,1.0005546140186488,3.4545383965730667
1783174245585901000,5.617901123046875,-28.314174869966504,0.7878650724098086,1.7392042584910987
1783174245595970000,5.627969970703125,-24.517955371820925,-0.785758382454142,-1.0305127491045742
1783174245606038000,5.6380380859375,-17.828548919081687,-1.9647756396353244,-2.809717813268304
1783174245616107000,5.64810693359375,-10.574536406481265,-2.1595630293287336,-2.749831792104244
1783174245626175200,5.65817529296875,-4.876406013414264,-0.909709683228284,0.06836093097738921
1783174245636244000,5.668243896484375,-0.8587275378793477,0.6718576433122158,3.2108082584038375
1783174245646313200,5.678313232421875,1.4895792170643805,1.191152296937257,3.902698343658447
1783174245656381200,5.688381103515625,2.9761732808381316,0.7291372813701629,2.3070453547507523
1783174245666450000,5.698449951171875,4.749417463836074,0.1544258609496057,1.2853851166002452
1783174245676519200,5.708519287109375,7.153461888092756,1.0433043530732393,1.273684157412499
1783174245686587100,5.718587158203125,9.484642151668668,1.6802517187848687,1.159691209942475
1783174245696656000,5.72865576171875,11.836016477489471,1.3007635952569543,0.71760999824889
1783174245706724000,5.73872412109375,13.87501119954586,0.8977759381979703,0.5970312061151489
1783174245716793000,5.74879296875,14.53725579586029,0.6756067667126655,0.8100514775156974
1783174245726862000,5.758862060546875,14.423224927532672,0.6289157426863908,1.5192435568355023
1783174245736930000,5.768929931640625,14.158672658348083,1.1460687081076204,1.8075035954743623
1783174245746999000,5.7789990234375,13.943175804233551,1.1849309382043778,1.0956086138714105
1783174245757068000,5.789068115234375,13.757896393728256,0.561100097566843,0.04056925321035087
1783174245767136000,5.799135986328125,13.077989883995055,0.3852839503251016,-0.8527840462397783
1783174245777205000,5.809205078125,11.448960110664366,0.6021256431773304,-1.0433518454767763
1783174245787273200,5.819273193359375,10.068808067524433,0.7620838576823472,-0.47736459692288186
1783174245797342000,5.829342041015625,9.423778225383161,1.0976949916914105,0.31949016642197964
1783174245807411200,5.8394111328125,9.577449030181764,1.46544240854308,0.6443362338539212
1783174245817479200,5.849479248046875,10.308029496097564,1.5440762386664748,0.7674709575481712
1783174245827548000,5.8595478515625,10.63202764146328,1.6720916470743714,0.7595660296425223
1783174245837617200,5.8696171875,10.554071126079558,1.7072367563441395,0.34126441053040324
1783174245847685000,5.87968505859375,10.272871673476695,1.5689312784597276,0.26970756958853453
1783174245857754000,5.889754150390625,9.94590766404271,1.5221264187954366,0.5001549227386712
1783174245867822000,5.899822021484375,9.392565925517678,1.6137890957094727,0.6073645667441189
1783174245877891000,5.90989111328125,8.678118263757229,1.5427654483288527,0.09679437724668533
1783174245887960300,5.919960205078125,8.512591601470112,1.1772701212529093,-0.26120862131249156
1783174245898028000,5.930028076171875,8.880235996338724,1.0790140374232082,-0.32762923187706616
1783174245908097000,5.940096923828125,9.424785941120982,1.2625718117676674,-0.4049910327706486
1783174245918166300,5.950166259765625,9.814376210337876,1.0779914894424378,-0.7109777936927973
1783174245928234000,5.96023388671875,9.88195629313588,0.8903132011018693,-0.7723974541649222
1783174245938303000,5.970302978515625,9.440627068853377,1.181446895480901,-0.9259588803049177
1783174245948371200,5.98037109375,8.533326346462964,1.206198036508262,-1.2497418485499918
1783174245958440200,5.990440185546875,7.752282936766743,0.8509108727790414,-1.4954486936196685
1783174245968509200,6.00050927734375,7.165346387153863,0.40463732396215196,-1.594843133829534
1783174245978577200,6.0105771484375,5.787919385063648,-0.1377060506865382,-1.6674401680067181
1783174245988646100,6.020646240234375,3.569102933385968,-0.8192062593519687,-1.661716529662907
1783174245998715100,6.030715087890625,0.41139878092110155,-1.7577502612680196,-1.0960199711512773
1783174246008783000,6.040783203125,-2.576869426858425,-2.543911160108447,-0.4357895642034709
1783174246018852000,6.05085205078125,-5.697676219558716,-3.0939941890984772,-0.41326523238010704
1783174246028920000,6.060920166015625,-8.855781354039907,-3.5442391257643697,-1.4550512167796492
1783174246038989000,6.070989013671875,-11.161786844348907,-3.8294776246249675,-2.8515128819465634
1783174246049058300,6.081058349609375,-14.423053078097103,-3.748606390838325,-3.4551451302945613
1783174246059126000,6.0911259765625,-17.314164979982376,-2.935119970437884,-2.6259119824469086
1783174246069195000,6.101195068359375,-18.88099928616285,-1.798577946218848,-0.8947750758815556
1783174246079264300,6.11126416015625,-20.686486865639687,-1.8234006911776959,0.5998839286651462
1783174246089332200,6.121332275390625,-22.012196539974212,-2.514001759535074,0.8628000480152666
1783174246099401000,6.13140087890625,-22.057620905065534,-2.641777075576782,0.19671101469974964
1783174246109469200,6.14146923828125,-21.593716276359558,-2.3762502622716126,-0.9478510517045855
1783174246119538200,6.1515380859375,-21.729802324628828,-2.003930715198815,-2.086786254670471
1783174246129607200,6.161607177734375,-23.384850336313246,-1.0670661177370697,-2.2999812615834174
1783174246139675100,6.171675048828125,-24.400466471993923,0.4139003884784877,-2.4238702377110717
1783174246149744000,6.181744140625,-23.633959537172316,1.420118142825365,-2.3253294917210936
1783174246159813000,6.191813232421875,-20.643220555365083,1.6178668665423988,-1.4628205356068908
1783174246169880600,6.201880615234375,-16.50899309120178,1.9391355869442224,-0.24727716312631964
1783174246179949600,6.211949462890625,-11.862815637087822,2.3939818799257275,0.7917852415282278
1783174246190017800,6.222017822265625,-7.068549562221765,2.4602701693475244,1.1644543326910584
1783174246200086500,6.23208642578125,-3.3601766898334025,1.8268274507559834,0.7751965102989226
1783174246210155500,6.242155517578125,-0.5209656555771828,1.1517770027518273,0.723570660218969
1783174246220223700,6.2522236328125,1.9638094249516724,1.0527562181599437,1.3928916977256536
1783174246230292500,6.26229248046875,4.242486763352155,1.3530186831511557,2.209271647610515
1783174246240361700,6.27236181640625,6.1961535644739865,1.8161361070021986,2.6262036588698625
1783174246250429700,6.2824296875,7.681061282595992,1.7133441333085297,2.382416529816389
1783174246260498400,6.29249853515625,9.192975081065297,1.109950589087233,1.8454323441132903
1783174246270566700,6.302566650390625,10.952205351758003,0.6514777761716395,1.3244937226735054
1783174246280635600,6.3126357421875,12.543761426740884,0.2699776552341878,1.093575500608608
1783174246290704400,6.322704345703125,13.003154715502262,0.08072356894426047,1.1488806237231939
1783174246300772600,6.332772705078125,12.755153768146037,0.10040478629618882,1.08172899547033
1783174246310841600,6.342841552734375,12.781504014933109,-0.1642484590448439,0.5043415607735514
1783174246320910600,6.35291064453125,12.776336841428279,-0.50637474710159,0.02958658009348437
1783174246330978600,6.362978515625,12.334399714380503,-0.5177534885976464,0.006493636335618794
1783174246341047600,6.373047607421875,11.874935113948583,-0.4574286376249045,0.1731150715894997
1783174246351115800,6.38311572265625,11.557101336431503,-0.28454423298612236,0.3841128241864964
1783174246361184500,6.3931845703125,11.272990964818,-0.21454284132532775,0.3539768483156338
1783174246371253500,6.40325341796875,10.90034656970501,-0.15077552174851297,0.1792294262839481
1783174246381321700,6.41332177734375,10.572525651180744,0.031178982117772102,0.1726259911646135
1783174246391390500,6.423390380859375,9.905927535831928,0.3557271625816822,0.25512130075544115
1783174246401459700,6.433459716796875,9.498235792735219,0.6501233658879995,0.1779957015042193
1783174246411527700,6.443527587890625,9.731587452492118,0.6748386318843811,0.0140971849832742
1783174246421596400,6.453596435546875,9.972439112615584,0.7571563381522893,-0.11420467225825413
1783174246431664600,6.46366455078125,9.947907897949218,1.0125974454466253,-0.08242384265665896
1783174246441733600,6.473733642578125,9.37961818113923,1.0134560350373387,-0.09961082290690391
1783174246451802400,6.48380224609375,8.27035111733675,0.7332309073593467,-0.459960859516263
1783174246461870600,6.49387060546875,7.501658070647716,0.4988582339916378,-0.7323278210397809
1783174246471939600,6.503939697265625,7.11039080812931,0.45421544773206113,-0.7759710748679935
1783174246482008600,6.514008544921875,6.989079135143757,0.636205242107436,-0.5781124975683167
1783174246492076500,6.52407666015625,6.967631273445487,0.8396691286008805,-0.24944895420745014
1783174246502145500,6.5341455078125,6.829835498648881,1.0537165876246988,-0.26264972349889576
1783174246512213800,6.5442138671875,6.91553634454906,0.8533657185852527,-0.7135129381936043
1783174246522282500,6.554282470703125,6.527137330943345,0.7095017297908663,-1.1941472409695386
1783174246532351500,6.5643515625,6.119042852264642,0.4067600152045488,-1.2354347985170782
1783174246542419700,6.574419677734375,5.858647118237614,0.036231443201750514,-0.7984599700517951
1783174246552488400,6.584488525390625,5.027282803580165,-0.23588570827916264,0.01627023986466229
1783174246562557700,6.5945576171875,3.1946833452939987,-0.6521171700537204,0.9694500123113393
1783174246572625700,6.604625732421875,0.8162041549265384,-1.0626514430999756,1.5770011876687406
1783174246582694700,6.614694580078125,-3.417957263150811,-1.1509656863689421,1.695266332565248
1783174246592762400,6.624762451171875,-10.038200163292885,-1.6490043476060032,1.3165870412021874
1783174246602831600,6.63483154296875,-16.451692410355804,-2.483477441933751,0.3858403055662289
1783174246612900600,6.644900634765625,-20.95472396081686,-2.691460851678252,-0.2540564480029046
1783174246622968600,6.654968505859375,-23.70756487160921,-2.379451980922371,-0.09626870940476655
1783174246633037600,6.66503759765625,-23.576667039632795,-1.6187470103777943,0.3608080460425466
1783174246643106800,6.67510693359375,-20.17497877423763,-1.6097180468782781,0.5579525933213532
1783174246653174500,6.685174560546875,-16.858436643469332,-2.3045941622063517,-1.0913984488304704
1783174246663243500,6.695243408203125,-16.749284194833038,-2.956735589918494,-3.054911301988363
1783174246673311500,6.7053115234375,-19.455906959807873,-2.6073075274810193,-3.8468256497889755
1783174246683380500,6.71538037109375,-22.692912028002738,-1.659428126464784,-3.288434518919885
1783174246693449500,6.725449462890625,-25.42497435466051,-0.26559564075767994,-1.5216354204080997
1783174246703517700,6.735517578125,-26.24152805367708,1.1913755842991172,-0.033741708745248615
1783174246713586700,6.745586669921875,-23.15123330361843,1.5610213821180163,0.448703187116608
1783174246723655700,6.75565576171875,-17.72085894421339,0.6946386533103883,0.29962584758810695
1783174246733723600,6.7657236328125,-12.162290751093625,-0.15662074064537881,-0.025736425737664104
1783174246743792600,6.775792724609375,-6.17540771356523,-0.510161352968216,0.10810721389967948
1783174246753860400,6.7858603515625,-1.3130465921163559,-0.644141368868947,0.7522226811423898
1783174246763929600,6.7959296875,1.7509043408960103,-0.4504071414902806,1.0758952478155492
1783174246773998600,6.80599853515625,3.147065269550681,0.021755904734134673,1.4242742395915091
1783174246784066600,6.816066650390625,3.718398591840267,0.5966686929456889,1.5769769300103187
1783174246794135600,6.826135498046875,3.7861663061648607,0.6719189450453966,1.3690844134196638
1783174246804203500,6.83620361328125,3.4221079530894754,0.3842577490825206,0.42502632425725456
1783174246814272800,6.846272705078125,3.9149563522070645,0.31875651838518676,-0.3151746413104236
1783174246824341500,6.856341552734375,5.920850768694281,0.4493729761369526,-0.02696742883734405
1783174246834409500,6.866409423828125,9.210082283210754,0.3899300225652754,0.2843190093955025
1783174246844478700,6.876478759765625,11.863128940820694,0.4644645276110619,0.49097007455769925
1783174246854547500,6.88654736328125,13.234627721905708,0.8165558179084211,0.8917315434671937
1783174246864615700,6.89661572265625,13.599844012844562,0.6406183093093335,1.06417236905694
1783174246874684700,6.9066845703125,13.09625736209154,0.1653670878112316,0.7378131936483084
1783174246884752400,6.91675244140625,13.002940780490636,-0.005229717347025871,0.345171574036777
1783174246894821600,6.926821533203125,12.73194591103792,-0.06858648336157203,0.13347696174941956
1783174246904890600,6.936890625,12.488176902163028,-0.1725054883237928,0.10469739632303826
1783174246914958600,6.94695849609375,12.455689175534248,-0.23544717073142526,0.08942876211581752
1783174246925027600,6.957027587890625,11.914513091099261,-0.42807365606389935,-0.15708879654854535
1783174246935096600,6.9670966796875,11.246367161786555,-0.43488099799118934,-0.40003545618988573
1783174246945164800,6.977164794921875,10.723435174572467,-0.02440006256736815,-0.11050265766885131
1783174246955233500,6.987233642578125,10.086830046427249,0.4894108989495784,0.3070463895102963
1783174246965302800,6.997302734375,9.426379347792267,0.8745810136366635,0.6711795979201793
1783174246975370800,7.007370849609375,8.896020425447821,0.9877782076191156,0.5589616607660427
1783174246985439500,7.017439453125,8.486880237108469,0.8338703791942447,-0.006560993350250646
1783174246995507500,7.027507568359375,8.184571945503354,0.5665626007564366,-0.7774770224515348
1783174247005576700,7.03757666015625,8.283022967383266,0.17982443303503096,-1.2739394473478198
1783174247015645400,7.0476455078125,8.385034896615148,0.14541297180205584,-1.1894279573626816
1783174247025713700,7.057713623046875,8.264301315778493,0.3898698898758739,-0.5691206512087956
1783174247035782700,7.06778271484375,8.155529975414275,0.6704083212867379,-0.08310034454558045
1783174247045851600,7.0778515625,8.425828679296373,0.8438698682263494,0.21645873968293888
1783174247055919600,7.087919677734375,8.414280864843725,0.7623408281181007,0.11126553180012852
1783174247065988600,7.097988525390625,8.46499924468994,0.7059582119651139,-0.39155513954907656
1783174247076056600,7.108056640625,8.071193403604626,0.47361156453229486,-0.8266502186823635
1783174247086125600,7.11812548828125,7.054193120089173,0.3110018126051873,-1.2229213539026678
1783174247096194600,7.128194580078125,6.320502997720241,0.2864879874650389,-1.227712533701956
1783174247106262800,7.1382626953125,5.580438079622388,0.3105036538247019,-0.6745895524941384
1783174247116331500,7.14833154296875,4.435065098693967,0.3484561486653983,0.14222140921913087
1783174247126400500,7.158400390625,2.602058228650689,-0.1427851805817336,1.0134669948227704
1783174247136468700,7.16846875,0.12702303636968135,-1.1660614025615155,1.1852400772187859
1783174247146537500,7.178537353515625,-2.1597002458423376,-2.0835314906582236,0.7397282334893941
1783174247156605400,7.18860546875,-4.757397356674075,-2.768225234667957,-0.049830061837518584
1783174247166674700,7.1986748046875,-9.249998114013671,-3.1715535218581556,-1.3537613182120025
1783174247176744000,7.208743896484375,-14.476540338134765,-3.096595019246638,-2.2139307254627347
1783174247186812200,7.218812255859375,-18.277001127111912,-2.6187971820056437,-1.7582887520588932
1783174247196881200,7.228881103515625,-20.46305454235077,-1.6740182312227785,-0.9084842330865561
1783174247206950000,7.238949951171875,-21.12891148394346,-1.6495863852776587,-0.4743131734630093
1783174247217018000,7.24901806640625,-21.721955702781678,-2.3191094481624663,-2.2174195904918013
1783174247227087000,7.259087158203125,-24.254735812544823,-2.4722382550388575,-4.908310971719026
1783174247237155000,7.269155029296875,-27.830209450006482,-2.2496410673998293,-5.99231967562437
1783174247247224000,7.27922412109375,-30.286943261921405,-1.1775357133865356,-4.694844746649265
1783174247257293000,7.28929296875,-30.12059300829172,0.31130751755349334,-2.828195719245076
1783174247267361300,7.299361328125,-27.292678444075584,1.0761963496539741,-1.7129291227668524
1783174247277430000,7.309429931640625,-23.66060438299179,0.9086473146937787,-1.686316133390367
1783174247287499000,7.3194990234375,-19.563870490920543,0.6144729374445974,-1.0300384095910935
1783174247297567200,7.329567138671875,-14.629376445674895,0.9362634897634386,0.29159561280235646
1783174247307636000,7.339635986328125,-9.019750850012898,1.3274468733906746,1.598100966581702
1783174247317704000,7.349703857421875,-3.994704427182674,1.3506521001502871,2.2669453995525837
1783174247327773200,7.359773193359375,-1.2126368373841045,0.7864889617510139,2.123109760069847
1783174247337842000,7.369842041015625,0.18804536808729172,0.11862696394622325,1.1660194631159304
1783174247347910100,7.37991015625,1.8253432035475967,-0.07171732873320578,0.5348773496169597
1783174247357979100,7.389979248046875,4.030076184815168,0.28043957414627074,0.7185172492869197
1783174247368047900,7.4000478515625,6.187730019521713,0.8153620050139725,1.1800883204787969
1783174247378116000,7.4101162109375,8.11866944052875,0.98094185879305,1.417365336985886
1783174247388185000,7.42018505859375,9.561508533728123,0.917382409813255,1.3677961271747945
1783174247398253000,7.430253173828125,10.473224734473227,0.7843604252897203,1.229441549451649
1783174247408322000,7.440322021484375,11.387423984205721,0.7890620271094143,1.0989971603311597
1783174247418391000,7.45039111328125,12.536274870377778,0.7583433559797704,0.9793063665457069
1783174247428459000,7.460458984375,13.224666299861669,0.500242162630707,0.45241910236719995
1783174247438528000,7.470528076171875,13.562947822123766,0.4297422468632459,-0.17941512158177791
1783174247448597000,7.480596923828125,13.908982442730665,0.4350178491786122,-0.5412197774462402
1783174247458665200,7.490665283203125,13.803199178266524,0.5357942452661693,-0.774239428769797
1783174247468734000,7.50073388671875,13.226729662132263,0.8096383666701614,-0.6017862916877493
1783174247478802000,7.510802001953125,12.857932590097189,1.2458392881534992,-0.1988596075683832
1783174247488871200,7.52087109375,12.51331368150711,1.6403741741657256,0.12529495220175013
1783174247498940000,7.53093994140625,12.378974184644221,1.8700385237120092,0.24827625716626642
1783174247509008000,7.5410078125,12.41040158856511,1.8052090547963975,0.04704867835752666
1783174247519077000,7.5510771484375,12.402747858941554,1.6662348838701844,-0.2121690613986924
1783174247529145900,7.561145751953125,11.805862162244319,1.7747521033428608,-0.20947127368208018
1783174247539214000,7.571214111328125,11.257833143174647,1.8637972912348806,-0.14575316354185341
1783174247549283000,7.581282958984375,10.690260050201415,1.8992562887594102,-0.08284370290338992
1783174247559351000,7.59135107421875,9.781628955990076,1.9472605873413382,-0.17482258789343758
1783174247569420000,7.601419921875,9.276600874257086,1.9324610776163635,-0.11913783607780933
1783174247579489000,7.611489013671875,8.875139549982547,1.9358703015379606,0.15968316042330116
1783174247589557000,7.621556884765625,8.319364446830749,1.9413728444769978,0.5201394338861107
1783174247599626000,7.6316259765625,7.856994188085198,1.9594635047018527,0.636320977441594
1783174247609695000,7.641695068359375,7.575712902417779,1.7601869868956506,0.3133081167861819
1783174247619763200,7.65176318359375,6.985183296748995,1.3643481786780058,-0.2675301890168339
1783174247629832000,7.66183203125,6.217082370734214,1.0267366646319627,-0.9531253388456999
1783174247639900000,7.67189990234375,5.714713279077411,0.6989611926846205,-1.3133362227126955
1783174247649969200,7.68196923828125,5.183378789699077,0.3949352835066616,-1.0056722492933272
1783174247660038000,7.692037841796875,4.276243487003446,0.19041501982808112,-0.32832846618760375
1783174247670105900,7.70210595703125,2.930765866881609,0.266407687792927,0.4506286387538537
1783174247680175000,7.712175048828125,1.0242185443311929,0.33507395839244125,1.1271791525900363
1783174247690243800,7.722243896484375,-1.0311965666502714,-0.10699658577665686,1.249161710574478
1783174247700312000,7.73231201171875,-2.4290315659970045,-1.107121868467331,0.6883402107533068
1783174247710381000,7.742381103515625,-4.387486770439148,-2.0266800148844717,0.18845617737788706
1783174247720449000,7.752448974609375,-6.387554672729968,-2.443172611813247,0.27140155055746434
1783174247730518000,7.76251806640625,-8.346584462189673,-2.8455636181533337,1.2623252896606922
1783174247740587000,7.7725869140625,-10.764860240894555,-2.9490187319308516,2.11207734779343
1783174247750655000,7.782655029296875,-13.605923040497302,-2.7535616262823344,2.3504988581605253
1783174247760724000,7.792723876953125,-16.05164095287919,-2.6488404380917547,1.4420615329556166
1783174247770793000,7.80279296875,-17.79040068247318,-2.617159351670742,0.34745354749411345
1783174247780861200,7.812861083984375,-19.404532161879537,-2.6689906611949206,-1.921320967181772
1783174247790930000,7.822929931640625,-21.728457924282548,-3.1480078110978007,-4.189776332905888
1783174247800998000,7.832997802734375,-24.726169083189962,-3.190594614675641,-4.597446156431734
1783174247811067100,7.843067138671875,-27.637684306156633,-1.8572303339347243,-3.377314871639013
1783174247821136000,7.853135986328125,-27.675855923640725,0.026653905908763407,-0.9248204508595168
1783174247831203800,7.863203857421875,-24.63339376885891,0.8410268998853861,1.0585537985228002
1783174247841273000,7.873273193359375,-21.37144130641222,0.7466885740213096,1.74620054711923
1783174247851342000,7.883342041015625,-18.196811738109588,0.40610520455762744,1.7428420304715633
1783174247861410000,7.89341015625,-13.908707717442512,0.26464126264229415,1.3305452777974307
1783174247871479000,7.90347900390625,-8.83753550325334,-0.08482011754289269,0.46535037053488193
1783174247881547000,7.913547119140625,-4.003287546610832,-0.8864607634574174,-0.6732737937204539
1783174247891616000,7.923615966796875,-0.7389595872044563,-0.9567555120415985,-1.2884985724456608
1783174247901685000,7.93368505859375,1.2053881814301013,-0.11239362251460551,-0.831999689951539
1783174247911753000,7.9437529296875,2.4434049592643974,0.8577601541519164,0.15983564757127314
1783174247921822000,7.953822021484375,3.447102109092474,1.5989076067894696,0.969561144535616
1783174247931891000,7.963890869140625,4.1077135512471195,1.7793207264326512,1.0728867136493325
1783174247941959200,7.973959228515625,5.207677949175238,0.9574968319281935,0.39560445147249845
1783174247952028200,7.984028076171875,6.482520190581679,0.2825489675156772,0.08982428250573575
1783174247962095900,7.994095947265625,6.181643393084406,0.25671456129625436,0.7526949748292565
1783174247972165000,8.0041650390625,5.415230566287041,0.7825868397459387,1.2343861662469804
1783174247982234000,8.014234130859375,5.828731872445345,0.7047203407332301,1.0496781989540904
1783174247992301800,8.0243017578125,7.168283025127649,0.25410335588455196,0.7481449103094637
1783174248002371000,8.03437109375,9.096952163115143,0.06905863091796637,0.8565143918745219
1783174248012440000,8.044440185546875,10.423847832363844,0.09418386595472693,1.0886796183258294
1783174248022508000,8.054508056640625,11.445513769602774,0.10052958171963691,1.1701522520717234
1783174248032577000,8.064576904296874,11.874590246033668,-0.008703092546015978,1.0424214327588677
1783174248042645000,8.07464501953125,11.438120736742018,-0.22686872747838496,0.7424777513932437
1783174248052714000,8.0847138671875,11.03842934474945,-0.4645885193169117,0.35686866076700385
1783174248062783000,8.094782958984375,10.42459952751398,-0.34198139969334,0.2845751761136576
1783174248072851000,8.104850830078124,10.120188710671663,0.27993746984303,0.35861831744592637
1783174248082920200,8.114920166015626,9.974488446360827,0.4561892320230603,-0.01630953069543466
1783174248092989000,8.124989013671875,9.664539869135618,0.38840252073705195,-0.46771074299067256
1783174248103057200,8.13505712890625,9.700835171353816,0.6921819078080356,-0.5956675530791282
1783174248113126100,8.145126220703125,9.967098920631408,1.0178037088528276,-0.5457027680791914
1783174248123195000,8.15519482421875,10.151821866297722,1.2517705778986215,-0.3910641776943579
1783174248133263000,8.16526318359375,9.804868377280235,1.3518226052343845,-0.24420102535029872
1783174248143332000,8.17533203125,8.982486410501599,1.4384075404927135,-0.17344286050545052
1783174248153400000,8.185400146484374,7.911195149350166,1.654342201502621,-0.09657862473730928
1783174248163469000,8.195468994140626,7.499515213400125,1.8171973064929245,-0.01952661131210625
1783174248173538800,8.205538818359376,7.496528891065716,1.9837484895221889,0.025400179520621895
1783174248183606800,8.215606689453125,7.59934044624269,1.9630492542341351,-0.05781560809817165
1783174248193676000,8.225676025390625,7.9372274162292475,1.8155458860240876,-0.026269692364148795
1783174248203744000,8.235743896484376,8.16167505404055,1.8253084244951605,-0.1667826902301982
1783174248213812700,8.245812744140625,8.003923117408156,1.6936480837136505,-0.3291057707030326
1783174248223882000,8.255882080078125,7.716901826784015,1.7651066153801978,-0.4661879904028028
1783174248233950000,8.265949951171875,7.496656316837668,1.8424118272483347,-0.5251799488039687
1783174248244019000,8.27601904296875,7.267706691431999,1.8107132051706314,-0.8284419974699616
1783174248254088000,8.286087890625,6.6454433923721306,1.5709312201052903,-1.1320815376788378
1783174248264156000,8.296156005859375,5.639789847779274,1.370497787348926,-0.680750413211435
1783174248274225000,8.306224853515625,4.457067671665549,1.0689774312511087,-0.2712663798704743
1783174248284294000,8.3162939453125,3.4684885959923264,0.20242577561736105,-0.3386113752709701
1783174248294361900,8.32636181640625,2.54420342105329,-1.016004112084955,0.05428334231879562
1783174248304430800,8.336430908203125,0.815917739200592,-2.341225710641593,0.3214809749130159
1783174248314498800,8.346498779296875,-2.4305852251797915,-3.3097359578847882,0.13291603993102907
1783174248324568000,8.356568115234374,-8.033284236449003,-3.3547438511297103,0.3657419953133911
1783174248334636800,8.36663671875,-14.695114115476608,-2.883825252008438,1.2624950932696462
1783174248344704800,8.376704833984375,-19.483520942920446,-3.0804724442243576,2.229136039509624
1783174248354774000,8.38677392578125,-21.00106953240633,-3.166491270032525,2.2515219127103685
1783174248364843000,8.396843017578124,-21.465359945559502,-3.590447334709763,1.7875237605020402
1783174248374910700,8.40691064453125,-23.27712061395645,-3.8548452901154753,0.4266351111607626
1783174248384980000,8.41697998046875,-25.81431035685539,-3.3221295755118128,-1.9610228629730642
1783174248395048000,8.4270478515625,-28.800083240687844,-2.2767595220804213,-3.4284824565574525
1783174248405117000,8.437116943359374,-31.879526926386355,-0.8192669034980237,-2.3844115030258894
1783174248415186000,8.44718603515625,-32.562896143794056,0.3687276600606739,-1.261066814032197
1783174248425254000,8.45725390625,-28.892484461009502,0.49580914861932396,-1.2008734074193983
1783174248435323000,8.467322998046875,-23.281661179995535,0.07410890004485846,-1.4421483344562351
1783174248445392000,8.477391845703124,-17.047929287755487,-0.6402035910286009,-1.8232143748253582
1783174248455459800,8.4874599609375,-10.419362211382388,-1.7440061058148741,-2.4896277812570333
1783174248465529000,8.497529052734375,-4.40008964690268,-2.376584170401096,-2.3463300480432805
1783174248475596800,8.5075966796875,-0.6133417414575815,-1.8347532753191886,-1.1042265123520045
1783174248485666000,8.517666015625,1.0399094499379395,-0.7748502541445195,0.2917013381991535
1783174248495733000,8.52773291015625,2.3803321247577665,-0.018122078276425597,1.1077871274430304
1783174248505802000,8.537802001953125,3.5750030973404643,0.25120032791942354,1.0560017759524285
1783174248515870000,8.547869873046874,4.6199487878799435,0.2849623122677207,0.680091218650341
1783174248525939000,8.55793896484375,6.025418812149763,0.34476138580068943,0.3293792538821697
1783174248536007000,8.5680068359375,6.4401341702729455,0.5220579808585345,0.09329042424634099
1783174248546076000,8.578075927734375,6.862640620663762,0.5631472393549979,0.042588484078273176
1783174248556145000,8.588144775390624,8.171741690024733,0.48001770524755116,0.4060995420018211
1783174248566212900,8.598212890625,10.291863958716393,0.7601137266531586,0.843889888101071
1783174248576282000,8.6082822265625,12.375288189607858,0.8688637319684028,1.1118386678561567
1783174248586350800,8.618350830078125,13.337692959582805,0.5711961057759821,1.1987570728525518
1783174248596418800,8.628418701171874,13.116161501479148,0.3749458039231598,1.2027584174484014
1783174248606488000,8.638488037109376,12.397655504238605,0.5362435964688659,1.3267730657823382
1783174248616556000,8.64855615234375,11.905962704896925,0.7379704300366342,1.5501792317166923
1783174248626624800,8.658624755859375,11.425689125192164,0.7105966854207217,1.5932001889280973
1783174248636694000,8.668694091796874,11.04947213228941,0.6196301740773021,1.3601821450397371
1783174248646762000,8.678761962890626,10.699550441116093,0.5176752357296646,0.8783968455977738
1783174248656831000,8.6888310546875,10.007755925190448,0.42792292248159647,0.41776970419250425
1783174248666900000,8.69889990234375,9.525869065070152,0.19303192432820795,0.043954310805071145
1783174248676968000,8.708968017578124,9.18424057046771,0.21706834121495483,-0.13671060990840195
1783174248687037000,8.719036865234376,8.622124573856592,0.5243270948342978,0.03232618852467276
1783174248697105000,8.72910498046875,8.223995608875155,0.7286972825177014,0.05820093588763848
1783174248707174000,8.739173828125,7.833494070032239,0.9251686797752976,-0.15874138606116175
1783174248717243000,8.749242919921874,7.6428090010911225,1.2240529882811009,-0.3021130978265777
1783174248727310800,8.759310791015626,7.699062803232669,1.2906477133035659,-0.5447640624569728
1783174248737380000,8.769380126953125,7.701383355134725,1.1276426784485578,-0.9778163471836596
1783174248747448800,8.77944873046875,7.6925120664149516,0.9652980071984231,-0.9885687734749168
1783174248757516800,8.789516845703124,7.749042347410321,0.8343377775102854,-1.0290949181959033
1783174248767586000,8.7995859375,7.745971853923797,0.8287851118192077,-1.0298070119880138
1783174248777654800,8.80965478515625,7.553902052626014,0.9580851532101631,-0.7559794033274054
1783174248787722800,8.81972265625,7.668155623793601,1.2285887320145963,-0.3179898813942447
1783174248797792000,8.8297919921875,7.307254857966304,1.4519034202732144,-0.03460460918489843
1783174248807860000,8.83985986328125,6.910072818446159,1.588914328302443,0.17952935907859355
1783174248817929000,8.849928955078125,7.0793298994332545,1.5632155311614273,0.21321652462501078
1783174248827998000,8.859998046875,6.623197658294439,1.2968378001153469,0.10042992073744535
1783174248838066000,8.87006591796875,4.906657943814992,0.7882470574647188,-0.28140841917842624
1783174248848136000,8.880135986328124,3.0791502557098864,0.4193739975839853,0.47710620171502227
1783174248858205000,8.890204833984376,0.09729892923533916,-0.14032909266650676,1.5124709939606487
1783174248868273000,8.90027294921875,-2.240653604954481,-0.5048443957291543,1.668069844212383
1783174248878342000,8.910341796875,-4.258596186631918,-1.3226277826711534,1.0334693338878451
1783174248888411000,8.920410888671874,-6.297127382829785,-2.1326381975241,-0.4907487599572167
1783174248898479000,8.93047900390625,-9.162553639316558,-2.40997425269708,-1.633939172682166
1783174248908547800,8.9405478515625,-12.368277434062957,-2.201801457860321,-1.7248516157507896
1783174248918615800,8.95061572265625,-13.766292466151713,-1.7148970618389545,-0.991163612273708
1783174248928685000,8.96068505859375,-14.61233997067809,-1.494513896987587,-0.08347312338072806
1783174248938753800,8.97075390625,-14.704012876725196,-1.9925512430503962,0.1999815608030185
1783174248948822000,8.980822021484375,-13.477648542761802,-2.5158362814858553,-0.461708981825225
1783174248958891000,8.99089111328125,-12.488259904271363,-2.8390105432480572,-1.7266285622954367
1783174248968959700,9.000959716796874,-12.719649908566474,-2.759174205467105,-3.0610610567897556
1783174248979028000,9.011028076171876,-13.943539376848936,-2.3416880674563347,-3.5061072557687756
1783174248989097000,9.021096923828125,-17.256456302857398,-1.4733184026151895,-2.74136294670552
1783174248999165000,9.0311650390625,-21.273632089567183,0.28355047270841893,-1.9573840680792927
1783174249009234000,9.04123388671875,-22.23301020519733,2.3758761682622134,-1.097346543579921
1783174249019303000,9.051302978515626,-20.55592571827173,3.031998628434539,0.011235606698319316
1783174249029371100,9.06137109375,-17.359881606018543,2.698331906491518,0.3914220146887004
1783174249039440000,9.07143994140625,-13.602798186475038,1.759901594083011,0.07026106551028788
1783174249049508900,9.0815087890625,-9.35425460730195,0.8053571822196245,-0.14337006779760122
1783174249059577000,9.0915771484375,-4.972271694976091,-0.061198857328295705,-0.3887956117078662
1783174249069645800,9.101645751953125,-1.2665157270878553,-0.8211463605690748,-0.4283349008159712
1783174249079715000,9.111715087890625,1.3706716826111078,-1.039748487222567,-0.2804231710007414
1783174249089783000,9.121782958984374,3.06302972651422,-0.8057637171939015,0.14091854645963758
1783174249099851800,9.131851806640626,4.138973197385669,-0.4222957302495837,0.623113486148417
1783174249109920000,9.141919921875,4.889847094267607,-0.004710059120785445,0.900926876509562
1783174249119989000,9.151989013671875,5.461822221592068,0.08341269843038171,0.9170037857592105
1783174249130057700,9.1620576171875,5.794674704542755,-0.3469474976681173,0.6763429720327258
1783174249140126000,9.1721259765625,5.986735153490304,-0.6363854209799319,-0.1327008262777701
1783174249150195000,9.18219482421875,6.423755866923928,-1.0179297463852912,-0.8716269130714237
1783174249160264000,9.192263916015625,7.079067449104786,-1.3066384786397218,-1.236053368806839
1783174249170332000,9.202331787109374,7.643041640803218,-1.242302784590423,-1.2448558300741017
1783174249180400000,9.212400146484375,8.165732220476865,-0.7319330495685339,-0.6937110170714557
1783174249190468000,9.222468017578125,8.59795517823994,-0.2787173534635454,-0.1299448238342069
1783174249200537000,9.232537109375,9.009016105508804,-0.04628215096443891,0.01748465715572238
1783174249210606000,9.242606201171874,9.302717312288284,-0.22892971512880175,-0.6741792911928147
1783174249220674000,9.252674072265625,9.54901730094552,-0.45318431458603586,-1.0147255435165017
1783174249230743300,9.262743408203125,9.44892143446803,-0.42718036048598584,-0.833794245218113
1783174249240812000,9.27281201171875,8.864899310997128,-0.10207293870411813,-0.6223446937330067
1783174249250880000,9.2828798828125,8.180854386284947,0.4150311460740864,-0.252977347529307
1783174249260949200,9.29294921875,7.822689182901382,0.5321509203277528,-0.24190602801460773
1783174249271017000,9.303016845703125,7.750269258856773,0.5394237608749419,-0.43655386310685423
1783174249281086200,9.313086181640625,7.9159280230909586,0.7206068419773132,-0.6764142837032675
1783174249291155200,9.3231552734375,7.802133886128663,0.7069723574437201,-0.9219792360842227
1783174249301223000,9.333222900390625,6.997969713085889,0.5200022173725068,-1.1032025030665098
1783174249311292200,9.343292236328125,5.915986962050199,0.3755601364292204,-0.9686162649009377
1783174249321361200,9.353361083984375,4.7679397934764625,0.223289699947834,-0.21292283890806138
1783174249331429000,9.36342919921875,4.4395565648943185,-0.6233906956546008,0.9151105924237519
1783174249341498000,9.373498046875,4.665793424209952,-1.7422754826299844,1.5075385059945285
1783174249351566000,9.383566162109375,4.3099931963920595,-2.6156492393687367,2.029776373464614
1783174249361635000,9.393635009765624,2.3825486317634583,-2.7967753295868634,1.6874939449980855
1783174249371704000,9.4037041015625,-1.2041589318960904,-2.7373504961937662,0.6920042131535709
1783174249381772000,9.41377197265625,-5.696524711436033,-2.1280153600290417,-0.3622526553602889
