time,seconds_elapsed,z,y,x
1783174240048162800,0.080162841796875,0.09776532649993896,0.22177961468696594,-0.14705193042755127
1783174240058230500,0.09023046875,0.09634745866060257,0.2640970051288605,-0.17321722209453583
1783174240068299500,0.100299560546875,0.10370045900344849,0.2633795440196991,-0.16014276444911957
1783174240078368800,0.11036865234375,0.09980371594429016,0.21068330109119415,-0.1296253353357315
1783174240088436500,0.1204365234375,0.08308345824480057,0.12235342711210251,-0.09076424688100815
1783174240098505500,0.13050537109375,0.07031360268592834,0.06582996249198914,-0.05661453306674957
1783174240108573700,0.14057373046875,0.06205969303846359,0.032381102442741394,-0.03755467012524605
1783174240118642700,0.150642578125,0.06430767476558685,0.0069785392843186855,-0.05204998701810837
1783174240128711700,0.160711669921875,0.06687754392623901,-0.002056717872619629,-0.053661100566387177
1783174240138779600,0.170779541015625,0.0735679343342781,0.0042829373851418495,-0.04687350243330002
1783174240148848600,0.1808486328125,0.08018732070922852,0.026435740292072296,-0.027132343500852585
1783174240158917600,0.190917724609375,0.09028495848178864,0.08478719741106033,-0.004850473254919052
1783174240168983000,0.200983154296875,0.11018029600381851,0.18828755617141724,-0.005204917397350073
1783174240179051800,0.2110517578125,0.13549044728279114,0.2714357078075409,-0.010406071320176125
1783174240189120000,0.2211201171875,0.13637743890285492,0.32868027687072754,0.019883450120687485
1783174240199189000,0.23118896484375,0.12435407191514969,0.3577795624732971,0.07075328379869461
1783174240209258000,0.241258056640625,0.11420726776123047,0.35342511534690857,0.12735411524772644
1783174240219326000,0.251325927734375,0.1250777542591095,0.3337174654006958,0.17532828450202942
1783174240229395000,0.26139501953125,0.154974102973938,0.32681703567504883,0.2143474519252777
1783174240239464000,0.2714638671875,0.1917600780725479,0.35334640741348267,0.22809068858623505
1783174240249532000,0.281531982421875,0.2275209277868271,0.41174983978271484,0.2040267288684845
1783174240259601000,0.291600830078125,0.25508251786231995,0.48671624064445496,0.1339419186115265
1783174240269669000,0.301669189453125,0.2845586836338043,0.5741526484489441,0.03252130746841431
1783174240279737900,0.31173779296875,0.3091582953929901,0.6368935108184814,-0.05320131778717041
1783174240289807000,0.32180712890625,0.3177132308483124,0.6714982390403748,-0.07121080160140991
1783174240299875000,0.331875,0.3172850012779236,0.6555643081665039,-0.03444000333547592
1783174240309943800,0.34194384765625,0.33597078919410706,0.622046709060669,0.03218613192439079
1783174240320013000,0.352012939453125,0.3587437570095062,0.5804822444915771,0.09097807109355927
1783174240330081000,0.3620810546875,0.374706894159317,0.5422205924987793,0.10923980921506882
1783174240340149800,0.372149658203125,0.38715317845344543,0.5358993411064148,0.11162520200014114
1783174240350218000,0.382218017578125,0.3776658773422241,0.5588607788085938,0.10692958533763885
1783174240360287000,0.392286865234375,0.3686787784099579,0.5887938737869263,0.07950834929943085
1783174240370356000,0.40235595703125,0.35603293776512146,0.5940023064613342,0.04738505557179451
1783174240380424000,0.412423828125,0.34992843866348267,0.5665972828865051,-0.0005110958591103554
1783174240390493000,0.422492919921875,0.35121169686317444,0.5653960704803467,-0.03681064024567604
1783174240400561000,0.432560791015625,0.3611719310283661,0.5963276624679565,-0.04648031294345856
1783174240410630000,0.4426298828125,0.3738149106502533,0.6016780734062195,-0.04296621307730675
1783174240420699000,0.452698974609375,0.3806006610393524,0.5439101457595825,-0.016224615275859833
1783174240430767000,0.46276708984375,0.3450498878955841,0.25326916575431824,0.039025288075208664
1783174240440835800,0.4728359375,0.30544254183769226,-0.1417287439107895,-0.0319194570183754
1783174240450904800,0.48290478515625,0.1990017294883728,-0.17195135354995728,-0.12622110545635223
1783174240460973000,0.49297314453125,0.07989344745874405,-0.06757328659296036,-0.24872331321239471
1783174240471041800,0.503041748046875,-0.02025752328336239,-0.0205882266163826,-0.2598859667778015
1783174240481109800,0.51310986328125,-0.08964245766401291,-0.11702767759561539,-0.18947304785251617
1783174240491179000,0.523178955078125,-0.10880272835493088,-0.3247472047805786,-0.13643908500671387
1783174240501248000,0.533248046875,-0.07699552923440933,-0.5148630738258362,-0.12383992969989777
1783174240511316000,0.54331591796875,-0.019474444910883904,-0.5906118750572205,-0.12328280508518219
1783174240521385000,0.553385009765625,0.027220916002988815,-0.5176323056221008,-0.08200463652610779
1783174240531454000,0.563453857421875,0.05427149310708046,-0.3141215145587921,0.0018620470073074102
1783174240541522000,0.57352197265625,0.08554872125387192,-0.029957164078950882,0.09852893650531769
1783174240551591000,0.5835908203125,0.12824518978595734,0.34023791551589966,0.21481825411319733
1783174240561659000,0.593658935546875,0.16434353590011597,0.6581115126609802,0.3340551555156708
1783174240571728000,0.603727783203125,0.17750409245491028,0.8434029221534729,0.43228840827941895
1783174240581796900,0.613796875,0.15073080360889435,0.8764269351959229,0.5343303680419922
1783174240591865000,0.623864990234375,0.09296267479658127,0.7323706746101379,0.6407837271690369
1783174240601934000,0.63393408203125,0.04823274910449982,0.4019743800163269,0.7379752397537231
1783174240612001800,0.644001708984375,0.05569372698664665,-0.032963238656520844,0.8289819955825806
1783174240622071000,0.654071044921875,0.1625240296125412,-0.45111095905303955,0.8581808805465698
1783174240632140000,0.66414013671875,0.3952237367630005,-0.774079442024231,0.7859422564506531
1783174240642207700,0.674207763671875,0.6821931600570679,-0.9653199911117554,0.6244478821754456
1783174240652277000,0.684277099609375,0.8735252022743225,-1.1667839288711548,0.4120522141456604
1783174240662346000,0.694345947265625,0.8438743352890015,-1.4590281248092651,0.12254317849874496
1783174240672414000,0.7044140625,0.5636287331581116,-1.7470946311950684,-0.23227550089359283
1783174240682483000,0.71448291015625,0.14733803272247314,-1.9713759422302246,-0.5266495943069458
1783174240692551000,0.724551025390625,-0.21659547090530396,-2.0077998638153076,-0.6782681345939636
1783174240702620000,0.734619873046875,-0.34412628412246704,-1.7952990531921387,-0.7190890908241272
1783174240712689000,0.74468896484375,-0.20807546377182007,-1.4421030282974243,-0.7588330507278442
1783174240722756900,0.7547568359375,0.07373570650815964,-1.2246417999267578,-0.8617863059043884
1783174240732826000,0.764826171875,0.2924105226993561,-1.2125499248504639,-1.0087575912475586
1783174240742894800,0.774894775390625,0.33322417736053467,-1.188260793685913,-1.1258273124694824
1783174240752963000,0.784963134765625,0.24806390702724457,-1.0541542768478394,-1.1819506883621216
1783174240763032000,0.795031982421875,0.12406900525093079,-0.966911256313324,-1.1798137426376343
1783174240773099800,0.805099853515625,0.041339073330163956,-0.9759706854820251,-1.052946925163269
1783174240783169000,0.8151689453125,0.0011794049059972167,-1.1291838884353638,-0.7734686732292175
1783174240793238000,0.825238037109375,-0.012773987837135792,-1.2098478078842163,-0.41464710235595703
1783174240803306000,0.835305908203125,0.006361090578138828,-1.101758599281311,-0.11053329706192017
1783174240813375000,0.845375,0.04648270457983017,-0.775294303894043,0.0451958104968071
1783174240823444000,0.85544384765625,0.10971067100763321,-0.32185277342796326,0.0497058741748333
1783174240833512200,0.86551220703125,0.21521702408790588,0.1503242403268814,-0.028675079345703125
1783174240843581000,0.875580810546875,0.3541019558906555,0.5873367190361023,-0.10576346516609192
1783174240853649000,0.88564892578125,0.4842368960380554,0.8909842371940613,-0.1419941633939743
1783174240863718100,0.89571826171875,0.5674574971199036,1.0115466117858887,-0.12159675359725952
1783174240873787000,0.905786865234375,0.571344792842865,0.9857706427574158,-0.04329564422369003
1783174240883854800,0.915854736328125,0.5374230146408081,0.9169660210609436,0.07147301733493805
1783174240893924000,0.925924072265625,0.49656882882118225,0.8084708452224731,0.18212074041366577
1783174240903992000,0.935991943359375,0.4743567407131195,0.6731961369514465,0.2710849642753601
1783174240914061000,0.94606103515625,0.45288750529289246,0.5507369041442871,0.35208213329315186
1783174240924130000,0.956130126953125,0.45211970806121826,0.46995073556900024,0.42697447538375854
1783174240934198000,0.966197998046875,0.4788557291030884,0.4644305109977722,0.4857870042324066
1783174240944267000,0.97626708984375,0.5233294367790222,0.5016391277313232,0.5358759760856628
1783174240954336000,0.9863359375,0.531260073184967,0.49049898982048035,0.6027892827987671
1783174240964404000,0.996404052734375,0.48560306429862976,0.491422563791275,0.6557776927947998
1783174240974473000,1.006472900390625,0.3937307596206665,0.5572458505630493,0.6548406481742859
1783174240984541000,1.016541015625,0.24988307058811188,0.6303483247756958,0.5839526653289795
1783174240994610200,1.026610107421875,0.08996908366680145,0.7208201885223389,0.48969003558158875
1783174241004679000,1.036678955078125,-0.07743056118488312,0.7851845026016235,0.3957771360874176
1783174241014747000,1.046746826171875,-0.17311613261699677,0.7845211029052734,0.32337597012519836
1783174241024816000,1.056816162109375,-0.3049125075340271,0.7222755551338196,0.28541475534439087
1783174241034884900,1.066884765625,-0.469835102558136,0.6643508076667786,0.2947196662425995
1783174241044952800,1.076952880859375,-0.5355706810951233,0.6418704986572266,0.24675428867340088
1783174241055022000,1.08702197265625,-0.5108351707458496,0.6237472891807556,0.15768852829933167
1783174241065090000,1.097090087890625,-0.5028587579727173,0.6787769794464111,0.13096636533737183
1783174241075159000,1.107158935546875,-0.5331984758377075,0.7601812481880188,0.17963367700576782
1783174241085228000,1.11722802734375,-0.5361806750297546,0.8369617462158203,0.2768334448337555
1783174241095296000,1.1272958984375,-0.5022914409637451,0.9062226414680481,0.4046274721622467
1783174241105365000,1.137364990234375,-0.4471192955970764,0.9362471103668213,0.4966309070587158
1783174241115433000,1.147432861328125,-0.4536531865596771,0.8047619462013245,0.5155162215232849
1783174241125502000,1.157501953125,-0.5363081097602844,0.599689781665802,0.5079067945480347
1783174241135571000,1.167571044921875,-0.5039398670196533,0.3633468449115753,0.5025944113731384
1783174241145639000,1.177638916015625,-0.379632830619812,0.180090993642807,0.3619062602519989
1783174241155708200,1.187708251953125,-0.11563339829444885,-0.00395433884114027,0.21689747273921967
1783174241165776600,1.197776611328125,0.18335703015327454,-0.1266546994447708,0.11725210398435593
1783174241175844600,1.2078447265625,0.39881405234336853,-0.09973454475402832,0.026636578142642975
1783174241185913600,1.21791357421875,0.4854104518890381,0.09245060384273529,-0.08492377400398254
1783174241195981800,1.22798193359375,0.4229675829410553,0.2108713835477829,-0.3233813941478729
1783174241206050600,1.238050537109375,0.25347015261650085,0.06404118239879608,-0.686545193195343
1783174241216119800,1.248119873046875,0.022074991837143898,-0.19356335699558258,-1.0461829900741577
1783174241226187800,1.258187744140625,-0.28003719449043274,-0.5695423483848572,-1.249612808227539
1783174241236256500,1.268256591796875,-0.5593504309654236,-1.030316710472107,-1.1982892751693726
1783174241246325800,1.27832568359375,-0.6609076857566833,-1.4136958122253418,-0.9822200536727905
1783174241256393700,1.288393798828125,-0.5529993176460266,-1.6534677743911743,-0.6687618494033813
1783174241266462500,1.29846240234375,-0.27993232011795044,-1.6745778322219849,-0.3689152002334595
1783174241276530700,1.30853076171875,0.12979258596897125,-1.4915366172790527,-0.10639195889234543
1783174241286599700,1.318599609375,0.590272843837738,-1.160367488861084,0.15455761551856995
1783174241296668700,1.328668701171875,0.921642541885376,-0.6765649914741516,0.2752228379249573
1783174241306736600,1.338736572265625,1.0679765939712524,-0.15401014685630798,0.19564145803451538
1783174241316805600,1.3488056640625,0.9939326047897339,0.24540302157402039,-0.04400593414902687
1783174241326873900,1.358873779296875,0.7747741341590881,0.42608198523521423,-0.3512449562549591
1783174241336942600,1.368942626953125,0.49193358421325684,0.30628135800361633,-0.6119992136955261
1783174241347011600,1.379011474609375,0.21700400114059448,0.188349649310112,-0.8891562223434448
1783174241357079800,1.389079833984375,0.10655118525028229,-0.009929288178682327,-1.0888253450393677
1783174241367148500,1.3991484375,0.04547957330942154,-0.21780738234519958,-1.1883623600006104
1783174241377217800,1.4092177734375,0.06827884167432785,-0.2564035654067993,-1.2921217679977417
1783174241387285800,1.41928564453125,0.1436161994934082,-0.11575537174940109,-1.4436031579971313
1783174241397354500,1.4293544921875,0.2332029491662979,0.17633986473083496,-1.5672568082809448
1783174241407422700,1.439422607421875,0.3268308937549591,0.45190006494522095,-1.5478618144989014
1783174241417491700,1.44949169921875,0.41272592544555664,0.6190958023071289,-1.3201788663864136
1783174241427560400,1.459560546875,0.5008776783943176,0.7122142910957336,-0.9156293272972107
1783174241437628700,1.469628662109375,0.5872010588645935,0.7544963955879211,-0.5015482902526855
1783174241447697700,1.47969775390625,0.635130763053894,0.8235777616500854,-0.17768259346485138
1783174241457766700,1.4897666015625,0.4661998450756073,0.7914649844169617,0.025489764288067818
1783174241467834600,1.499834716796875,0.30170491337776184,0.7012815475463867,0.22763487696647644
1783174241477903600,1.509903564453125,0.18082453310489655,0.5082997679710388,0.39564409852027893
1783174241487971800,1.519971923828125,0.04185732454061508,0.2870481312274933,0.501319944858551
1783174241498040600,1.53004052734375,-0.04683246091008186,0.13988955318927765,0.5131215453147888
1783174241508109600,1.540109619140625,-0.015264946967363358,0.06501558423042297,0.46043679118156433
1783174241518177800,1.550177734375,0.09823442995548248,0.009157229214906693,0.37599533796310425
1783174241528246500,1.56024658203125,0.23323166370391846,-0.06385040283203125,0.29382485151290894
1783174241538314500,1.570314453125,0.29586416482925415,-0.1409093588590622,0.20257841050624847
1783174241548383700,1.5803837890625,0.25882863998413086,-0.18370689451694489,0.11096195131540298
1783174241558452500,1.590452392578125,0.17825043201446533,-0.1756288856267929,0.06747753918170929
1783174241568520700,1.600520751953125,0.09211234748363495,-0.08506089448928833,0.12214931100606918
1783174241578589700,1.610589599609375,0.023689188063144684,0.02131570875644684,0.25481677055358887
1783174241588658700,1.62065869140625,0.007303289603441954,0.11645607650279999,0.40754637122154236
1783174241598726700,1.6307265625,0.013444618321955204,0.13607366383075714,0.5205962061882019
1783174241608795600,1.640795654296875,-0.015140953473746777,0.08932825177907944,0.5555616617202759
1783174241618863600,1.650863525390625,-0.07730698585510254,-0.01296590268611908,0.5003483891487122
1783174241628932600,1.6609326171875,-0.1441400796175003,-0.0736960917711258,0.4182838499546051
1783174241639001600,1.671001708984375,-0.1863393783569336,-0.07436937838792801,0.3798920810222626
1783174241649069800,1.68106982421875,-0.23161977529525757,-0.001711950171738863,0.4773150384426117
1783174241659138600,1.691138671875,-0.2652311623096466,0.16757668554782867,0.6670600771903992
1783174241669206500,1.70120654296875,-0.19837726652622223,0.4821503162384033,0.856042742729187
1783174241679275800,1.71127587890625,-0.08848094940185547,0.8023028373718262,0.9562271237373352
1783174241689344800,1.7213447265625,-0.05854594707489014,1.0088282823562622,0.9637244939804077
1783174241699412500,1.73141259765625,-0.0530950203537941,1.1935052871704102,0.7999922037124634
1783174241709481700,1.741481689453125,0.039687380194664,1.2253607511520386,0.4896833300590515
1783174241719550700,1.75155078125,0.1345544159412384,1.0189290046691895,0.27998924255371094
1783174241729618700,1.76161865234375,0.20994877815246582,0.6442204117774963,0.18471385538578033
1783174241739687700,1.771687744140625,0.36228907108306885,0.11343365162611008,0.15430186688899994
1783174241749755600,1.781755615234375,0.48471325635910034,-0.28458455204963684,0.17930787801742554
1783174241759824600,1.79182470703125,0.5670710206031799,-0.4844353497028351,-0.0022606656420975924
1783174241769893600,1.8018935546875,0.6024242043495178,-0.604175329208374,-0.39221057295799255
1783174241779961600,1.811961669921875,0.4261385500431061,-0.9615304470062256,-0.8220922946929932
1783174241790030600,1.822030517578125,0.053238481283187866,-1.5753216743469238,-1.1077163219451904
1783174241800099600,1.832099609375,-0.3641696572303772,-2.061065435409546,-1.1495596170425415
1783174241810167800,1.842167724609375,-0.5953426957130432,-2.044233798980713,-0.9705235362052917
1783174241820236800,1.85223681640625,-0.570057213306427,-1.4125372171401978,-0.6337807774543762
1783174241830304500,1.862304443359375,-0.38098055124282837,-0.6165353059768677,-0.3192310631275177
1783174241840373800,1.872373779296875,-0.17296558618545532,0.10730928182601929,-0.07290436327457428
1783174241850442800,1.88244287109375,0.042947277426719666,0.7211918830871582,0.15489818155765533
1783174241860510500,1.892510498046875,0.3439619541168213,1.0155773162841797,0.3894345462322235
1783174241870579700,1.902579833984375,0.6591694355010986,1.012176752090454,0.629056453704834
1783174241880647700,1.912647705078125,0.8239353895187378,0.932176411151886,0.8150123357772827
1783174241890716700,1.922716552734375,0.8162510991096497,0.7828060984611511,0.894632875919342
1783174241900785700,1.93278564453125,0.7302627563476562,0.5929420590400696,0.8339719772338867
1783174241910853600,1.942853515625,0.6542590260505676,0.49120932817459106,0.6655896306037903
1783174241920923000,1.9529228515625,0.553051769733429,0.6240304112434387,0.4447094798088074
1783174241930991600,1.96299169921875,0.497573584318161,0.9439316987991333,0.15805189311504364
1783174241941059600,1.9730595703125,0.5965632200241089,1.355160117149353,-0.07427158206701279
1783174241951128800,1.98312890625,0.7396034598350525,1.582969069480896,-0.16684812307357788
1783174241961196500,1.993196533203125,0.8105292320251465,1.4902411699295044,-0.1155867651104927
1783174241971265500,2.003265625,0.8271580338478088,1.171661615371704,0.08615993708372116
1783174241981334800,2.013334716796875,0.7318739891052246,0.7813650369644165,0.42046135663986206
1783174241991402800,2.02340283203125,0.5171710252761841,0.3262433409690857,0.6726536750793457
1783174242001471700,2.0334716796875,0.2764497697353363,-0.07389511168003082,0.7447510361671448
1783174242011539700,2.043539794921875,0.10293285548686981,-0.32181331515312195,0.6328297853469849
1783174242021608700,2.053608642578125,0.030909338966012,-0.3555696904659271,0.43343666195869446
1783174242031677700,2.063677734375,0.03445001319050789,-0.20889346301555634,0.2303573340177536
1783174242041745700,2.07374560546875,0.054986633360385895,0.01133802905678749,0.09052416682243347
1783174242051814700,2.083814697265625,0.09325013309717178,0.22898247838020325,0.029248027130961418
1783174242061883600,2.093883544921875,0.14334270358085632,0.3962583839893341,0.031012579798698425
1783174242071951600,2.10395166015625,0.18917836248874664,0.5248467326164246,0.05456637218594551
1783174242082020900,2.114020751953125,0.20337146520614624,0.563892662525177,0.09092031419277191
1783174242092088600,2.124088623046875,0.18581297993659973,0.5085809826850891,0.19690348207950592
1783174242102157600,2.134157470703125,0.17743995785713196,0.3479292094707489,0.30963799357414246
1783174242112226800,2.144226806640625,0.18258598446846008,0.17815321683883667,0.38583317399024963
1783174242122294800,2.154294677734375,0.16278651356697083,0.01909267157316208,0.4261195957660675
1783174242132363500,2.164363525390625,0.09873510152101517,-0.11058835685253143,0.46777647733688354
1783174242142431700,2.174431640625,0.021032659336924553,-0.12970803678035736,0.5109161734580994
1783174242152500700,2.184500732421875,0.016672533005475998,-0.05162416025996208,0.5089406371116638
1783174242162569700,2.19456982421875,-0.009897986426949501,0.1123957708477974,0.4585926830768585
1783174242172637700,2.2046376953125,-0.029257038608193398,0.26767030358314514,0.40025585889816284
1783174242182706700,2.214706787109375,-0.10440871864557266,0.29172006249427795,0.33082664012908936
1783174242192775700,2.224775634765625,-0.20477928221225739,0.20466583967208862,0.28866374492645264
1783174242202843600,2.23484375,-0.30997607111930847,0.1322142332792282,0.27618977427482605
1783174242212913000,2.244912841796875,-0.406211256980896,-0.02058330550789833,0.3020719587802887
1783174242222980900,2.25498095703125,-0.4196939170360565,-0.2524861991405487,0.3880741000175476
1783174242233049600,2.265049560546875,-0.3186056315898895,-0.3746805489063263,0.509016215801239
1783174242243118800,2.275118896484375,-0.15441597998142242,-0.40373507142066956,0.5238505005836487
1783174242253186800,2.285186767578125,-0.0028435122221708298,-0.3413281738758087,0.3909720778465271
1783174242263255600,2.295255615234375,0.017281943932175636,-0.2513783276081085,0.11244427412748337
1783174242273323800,2.30532373046875,-0.10605863481760025,-0.3743252754211426,-0.23809829354286194
1783174242283392800,2.315392822265625,-0.22534668445587158,-0.7212308049201965,-0.5046529173851013
1783174242293461800,2.325461669921875,-0.07626345753669739,-1.2254399061203003,-0.6189683079719543
1783174242303529700,2.33552978515625,0.28080615401268005,-1.8350729942321777,-0.7583553791046143
1783174242313598700,2.3455986328125,0.6559914946556091,-2.0230038166046143,-0.9741086959838867
1783174242323667700,2.355667724609375,0.8278467655181885,-1.7953146696090698,-1.035147786140442
1783174242333735700,2.365735595703125,0.8189898729324341,-1.406015396118164,-0.7153913974761963
1783174242343804700,2.3758046875,0.8322560787200928,-1.027168869972229,-0.1978490650653839
1783174242353873000,2.385872802734375,0.7988549470901489,-0.8955895900726318,0.0827554240822792
1783174242363941600,2.395941650390625,0.5937314033508301,-0.7837408185005188,-0.02063746005296707
1783174242374011000,2.406010986328125,0.37411031126976013,-0.5650454759597778,-0.29495370388031006
1783174242384078800,2.416078857421875,0.11918827891349792,-0.35658711194992065,-0.5306946039199829
1783174242394147600,2.426147705078125,0.010823988355696201,-0.17488735914230347,-0.6406877040863037
1783174242404216800,2.436216796875,0.09682305157184601,-0.07132421433925629,-0.6693441271781921
1783174242414284800,2.446284912109375,0.2996262311935425,-0.01026591844856739,-0.6810060739517212
1783174242424353500,2.456353515625,0.474719762802124,0.041482776403427124,-0.740178108215332
1783174242434421800,2.466421875,0.5307849049568176,0.0578945055603981,-0.7919342517852783
1783174242444490800,2.47649072265625,0.47536686062812805,0.04853386804461479,-0.8275752663612366
1783174242454559700,2.486559814453125,0.4573892056941986,0.08698858320713043,-0.7917805314064026
1783174242464627700,2.496627685546875,0.49010682106018066,0.10990560799837112,-0.7003899812698364
1783174242474696700,2.50669677734375,0.5120900869369507,0.25237753987312317,-0.600750207901001
1783174242484765000,2.516764892578125,0.5572649836540222,0.32372191548347473,-0.3590109646320343
1783174242494833700,2.526833740234375,0.4397042393684387,0.18600638210773468,-0.0018943995237350464
1783174242504902700,2.536902587890625,0.2782433331012726,-0.059773918241262436,0.31297945976257324
1783174242514971000,2.546970947265625,0.16657939553260803,-0.24538478255271912,0.5360139012336731
1783174242525039600,2.55703955078125,0.12193362414836884,-0.35111549496650696,0.643471896648407
1783174242535108900,2.56710888671875,0.06071634218096733,-0.3790869414806366,0.6722737550735474
1783174242545176800,2.5771767578125,-0.05959795042872429,-0.3295300304889679,0.681416392326355
1783174242555245600,2.58724560546875,-0.1616540104150772,-0.1776805818080902,0.650473952293396
1783174242565313800,2.597313720703125,-0.23203273117542267,0.003219522535800934,0.539365291595459
1783174242575382800,2.6073828125,-0.2768374979496002,0.17692314088344574,0.3830680847167969
1783174242585451500,2.617451416015625,-0.3228261470794678,0.28529104590415955,0.2568178176879883
1783174242595519700,2.627519775390625,-0.38204124569892883,0.3509694039821625,0.1913709044456482
1783174242605588700,2.637588623046875,-0.466384619474411,0.4168671667575836,0.17866264283657074
1783174242615656700,2.64765673828125,-0.5693062543869019,0.43468984961509705,0.17959554493427277
1783174242625725700,2.6577255859375,-0.6754022240638733,0.395189106464386,0.1855095624923706
1783174242635794700,2.667794677734375,-0.7545516490936279,0.3449070453643799,0.21344904601573944
1783174242645863000,2.67786279296875,-0.7929911017417908,0.322767049074173,0.26067396998405457
1783174242655931600,2.687931640625,-0.7960066199302673,0.3619045913219452,0.3201647400856018
1783174242666000600,2.698000732421875,-0.7415316700935364,0.4248568117618561,0.3386315703392029
1783174242676068900,2.70806884765625,-0.6741116046905518,0.4850005507469177,0.30703291296958923
1783174242686137600,2.7181376953125,-0.6602184772491455,0.5019934773445129,0.2951444089412689
1783174242696205600,2.72820556640625,-0.6602573394775391,0.5187831521034241,0.37238115072250366
1783174242706274800,2.73827490234375,-0.6543583273887634,0.5640656352043152,0.5434996485710144
1783174242716343600,2.748343505859375,-0.6605378985404968,0.6010558605194092,0.692660927772522
1783174242726411800,2.758411865234375,-0.6658477783203125,0.6943234801292419,0.7693634629249573
1783174242736480800,2.768480712890625,-0.6390398740768433,0.7648277282714844,0.7689447999000549
1783174242746548700,2.778548828125,-0.5846569538116455,0.732050359249115,0.7360758185386658
1783174242756617700,2.78861767578125,-0.48760631680488586,0.5742895007133484,0.7287582755088806
1783174242766686700,2.798686767578125,-0.3190614581108093,0.3562554121017456,0.7605272531509399
1783174242776754700,2.808754638671875,-0.1609320044517517,0.10126812011003494,0.7618955969810486
1783174242786823700,2.81882373046875,-0.1721172034740448,-0.3682112693786621,0.5728773474693298
1783174242796892700,2.828892578125,-0.36182719469070435,-1.036271095275879,0.18619118630886078
1783174242806961000,2.8389609375,-0.49200910329818726,-1.3472273349761963,-0.18275505304336548
1783174242817029600,2.849029541015625,-0.39687779545783997,-1.1192508935928345,-0.2556186020374298
1783174242827097600,2.85909765625,-0.09114669263362885,-0.5504054427146912,-0.10761722922325134
1783174242837166800,2.869166748046875,0.3144298195838928,0.04108717292547226,0.04096692055463791
1783174242847235600,2.879235595703125,0.7182541489601135,0.4162571132183075,0.11108691245317459
1783174242857303600,2.889303466796875,0.9895328283309937,0.37496399879455566,0.12958309054374695
1783174242867372800,2.899372802734375,1.0225032567977905,-0.03973649442195892,0.015467628836631775
1783174242877441500,2.909441650390625,0.7840811610221863,-0.662071168422699,-0.3079833984375
1783174242887509800,2.919509765625,0.4331956207752228,-1.224928379058838,-0.6058244109153748
1783174242897578800,2.929578857421875,0.21552667021751404,-1.490756630897522,-0.7145184278488159
1783174242907646700,2.939646728515625,0.21215398609638214,-1.252021312713623,-0.6895440220832825
1783174242917715700,2.9497158203125,0.31812888383865356,-0.5955973267555237,-0.6379239559173584
1783174242927784700,2.95978466796875,0.4330858290195465,0.19340328872203827,-0.666398286819458
1783174242937852700,2.969852783203125,0.5082658529281616,0.8544470071792603,-0.8041002154350281
1783174242947921700,2.979921630859375,0.5640808343887329,1.363892912864685,-0.9617202877998352
1783174242957989600,2.98998974609375,0.5997757315635681,1.6272512674331665,-1.0382734537124634
1783174242968059000,3.000058837890625,0.5033130049705505,1.591429352760315,-1.0182316303253174
1783174242978127600,3.010127685546875,0.23018880188465118,1.1074986457824707,-0.9988330006599426
1783174242988195600,3.020195556640625,-0.10234363377094269,0.350320965051651,-0.9626418948173523
1783174242998264800,3.030264892578125,-0.26290827989578247,-0.23036451637744904,-0.8700414299964905
1783174243008333600,3.04033349609375,-0.24927783012390137,-0.4736426770687103,-0.7214705348014832
1783174243018401500,3.050401611328125,-0.14106692373752594,-0.43302759528160095,-0.5087220668792725
1783174243028470800,3.060470703125,-0.009531029500067234,-0.23322996497154236,-0.24414758384227753
1783174243038538800,3.070538818359375,0.08995108306407928,-0.04653225839138031,0.0414213128387928
1783174243048607700,3.080607666015625,0.11914779990911484,-0.030797813087701797,0.3110051155090332
1783174243058676700,3.0906767578125,0.08219484239816666,-0.09868711233139038,0.49808230996131897
1783174243068744700,3.10074462890625,-0.04270213842391968,-0.1328240931034088,0.5184534192085266
1783174243078813700,3.110813720703125,-0.20768897235393524,-0.08395908772945404,0.38258665800094604
1783174243088881700,3.120881591796875,-0.3786340355873108,0.0278010256588459,0.1610109806060791
1783174243098950700,3.13095068359375,-0.5242276787757874,0.1481681764125824,-0.0651334747672081
1783174243109019600,3.14101953125,-0.60518878698349,0.23108258843421936,-0.22639396786689758
1783174243119087600,3.151087646484375,-0.5848047137260437,0.24049979448318481,-0.26098284125328064
1783174243129156900,3.161156982421875,-0.4648064374923706,0.20883315801620483,-0.18512262403964996
1783174243139225600,3.1712255859375,-0.30210646986961365,0.1791144162416458,-0.040428292006254196
1783174243149293600,3.18129345703125,-0.17216750979423523,0.15261688828468323,0.13018068671226501
1783174243159362800,3.19136279296875,-0.13035614788532257,0.08238986879587173,0.29666340351104736
1783174243169430300,3.20143017578125,-0.1817253977060318,-0.005366269964724779,0.4468672275543213
1783174243179499300,3.211499267578125,-0.28523263335227966,-0.08886542171239853,0.5519060492515564
1783174243189568300,3.221568359375,-0.36774128675460815,-0.09786100685596466,0.6302618384361267
1783174243199636200,3.23163623046875,-0.3619252145290375,0.00039472244679927826,0.6589054465293884
1783174243209705500,3.24170556640625,-0.28376203775405884,0.17736686766147614,0.6467384696006775
1783174243219774200,3.251774169921875,-0.18836602568626404,0.35398557782173157,0.6354796886444092
1783174243229842200,3.26184228515625,-0.1312621533870697,0.48134392499923706,0.6851003170013428
1783174243239911400,3.271911376953125,-0.13331225514411926,0.5309008359909058,0.8104504942893982
1783174243249979100,3.281979248046875,-0.14033927023410797,0.5298824310302734,0.9710093140602112
1783174243260048400,3.29204833984375,-0.11522672325372696,0.4198707044124603,1.0628342628479004
1783174243270117400,3.302117431640625,-0.035304490476846695,0.2737772762775421,1.0740082263946533
1783174243280185300,3.312185302734375,0.09665780514478683,0.1774347424507141,1.0613895654678345
1783174243290254300,3.32225439453125,0.18694157898426056,0.04009760171175003,0.989237368106842
1783174243300322300,3.332322265625,0.16960813105106354,-0.24250292778015137,0.7679459452629089
1783174243310391300,3.342391357421875,-0.019195349887013435,-0.7958702445030212,0.1855185329914093
1783174243320460300,3.352460205078125,-0.3743782937526703,-1.4087812900543213,-0.5566548705101013
1783174243330528300,3.3625283203125,-0.6450046896934509,-1.6639600992202759,-1.0975167751312256
1783174243340597500,3.372597412109375,-0.5672776699066162,-1.3592145442962646,-1.1342995166778564
1783174243350666200,3.382666259765625,-0.15209557116031647,-0.7415754199028015,-0.6890883445739746
1783174243360734200,3.392734130859375,0.32355618476867676,-0.29679131507873535,-0.20266492664813995
1783174243370803500,3.402803466796875,0.6246975660324097,-0.29986417293548584,-0.05144312605261803
1783174243380871200,3.41287109375,0.584931492805481,-0.5918446183204651,-0.21552233397960663
1783174243390940200,3.422940185546875,0.3911575675010681,-1.0209470987319946,-0.5263394117355347
1783174243401009400,3.433009521484375,0.24423335492610931,-1.420891284942627,-0.7546777725219727
1783174243411077400,3.443077392578125,0.2066783905029297,-1.6364758014678955,-0.7746321558952332
1783174243421146400,3.453146484375,0.2801813781261444,-1.566823959350586,-0.6690266728401184
1783174243431214300,3.46321435546875,0.3633511960506439,-1.272708535194397,-0.5397295951843262
1783174243441283300,3.473283447265625,0.41878223419189453,-0.8195059895515442,-0.46696433424949646
1783174243451352300,3.483352294921875,0.46307459473609924,-0.339175283908844,-0.4523652493953705
1783174243461420300,3.493420166015625,0.4610426127910614,0.064512237906456,-0.4499598741531372
1783174243471489300,3.5034892578125,0.40718531608581543,0.37528419494628906,-0.4892440140247345
1783174243481558300,3.513558349609375,0.32802578806877136,0.5508589148521423,-0.5808583498001099
1783174243491626200,3.523626220703125,0.16024193167686462,0.6089240312576294,-0.7471911311149597
1783174243501695500,3.533695556640625,-0.06794437766075134,0.6783968210220337,-1.0016686916351318
1783174243511763500,3.543763427734375,-0.2479909211397171,0.8377013206481934,-1.2006490230560303
1783174243521832200,3.553832275390625,-0.27676746249198914,1.008455753326416,-1.2191414833068848
1783174243531901400,3.5639013671875,-0.12704037129878998,1.0664215087890625,-0.9800606966018677
1783174243541969400,3.573969482421875,0.1322638988494873,1.019245982170105,-0.5271432995796204
1783174243552038100,3.5840380859375,0.3852477967739105,0.8799164295196533,0.0021446424070745707
1783174243562107400,3.594107421875,0.5463991165161133,0.7401294708251953,0.4966171979904175
1783174243572175400,3.60417529296875,0.6058911085128784,0.6210947036743164,0.8435848355293274
1783174243582244400,3.614244384765625,0.56144779920578,0.5156955718994141,0.9861485958099365
1783174243592312300,3.624312255859375,0.3649192750453949,0.21069075167179108,0.9026963710784912
1783174243602381300,3.63438134765625,0.1264643520116806,-0.13770344853401184,0.5515327453613281
1783174243612450300,3.6444501953125,-0.039277926087379456,-0.21356284618377686,0.11836898326873779
1783174243622518300,3.654518310546875,-0.12402689456939697,-0.19949069619178772,-0.16732721030712128
1783174243632587300,3.664587158203125,-0.11462476849555969,-0.051761843264102936,-0.24472014605998993
1783174243642655500,3.674655517578125,-0.057653896510601044,0.06841836124658585,-0.2549285888671875
1783174243652724200,3.68472412109375,-0.005529630463570356,0.22432507574558258,-0.2099856287240982
1783174243662793500,3.69479345703125,0.04391435161232948,0.4699380397796631,-0.13714177906513214
1783174243672861400,3.704861328125,0.04764624312520027,0.6362354159355164,-0.0890028178691864
1783174243682930200,3.71493017578125,-0.05146143212914467,0.611386239528656,-0.044324301183223724
1783174243692999400,3.72499951171875,-0.19764500856399536,0.38191792368888855,-0.0329294316470623
1783174243703067400,3.7350673828125,-0.2919943928718567,0.14328455924987793,-0.02370690368115902
1783174243713136000,3.74513623046875,-0.29751160740852356,0.06401976943016052,0.0020889821462333202
1783174243723204400,3.755204345703125,-0.22144214808940887,0.10286490619182587,0.04160869121551514
1783174243733273300,3.7652734375,-0.10476471483707428,0.19649173319339752,0.06221088394522667
1783174243743342300,3.77534228515625,-0.014952801167964935,0.4048609137535095,0.10355167090892792
1783174243753410300,3.785410400390625,-0.027389463037252426,0.6303637027740479,0.1392117440700531
1783174243763479300,3.795479248046875,-0.130292147397995,0.6265239715576172,0.15249158442020416
1783174243773548300,3.80554833984375,-0.24194075167179108,0.5424920320510864,0.23860351741313934
1783174243783616300,3.8156162109375,-0.3420678675174713,0.4912419319152832,0.4203384220600128
1783174243793685200,3.825685302734375,-0.3936019837856293,0.43904751539230347,0.6217132806777954
1783174243803753500,3.83575341796875,-0.3763361871242523,0.5269685387611389,0.7365698218345642
1783174243813822200,3.845822265625,-0.23977208137512207,0.7305334210395813,0.6367130279541016
1783174243823891500,3.855891357421875,-0.159850612282753,0.6704189777374268,0.2925916016101837
1783174243833959400,3.86595947265625,-0.15342707931995392,0.19365371763706207,-0.10966265201568604
1783174243844028200,3.876028076171875,-0.2639267146587372,-0.5642209053039551,-0.3426556885242462
1783174243854097400,3.886097412109375,-0.442561537027359,-1.1914275884628296,-0.2725679576396942
1783174243864165400,3.896165283203125,-0.5258561968803406,-1.2993665933609009,-0.06419318169355392
1783174243874234000,3.906234130859375,-0.4223667085170746,-0.8175593614578247,0.15706875920295715
1783174243884302300,3.91630224609375,-0.18845246732234955,-0.10355283319950104,0.40191471576690674
1783174243894371300,3.926371337890625,0.10081859678030014,0.3773380219936371,0.4795089066028595
1783174243904440300,3.9364404296875,0.27241140604019165,0.19597434997558594,0.3042851686477661
1783174243914508300,3.94650830078125,0.1824760138988495,-0.4581890106201172,0.04734712466597557
1783174243924577300,3.956577392578125,-0.04025959596037865,-1.2784149646759033,-0.2214806079864502
1783174243934645500,3.9666455078125,-0.15811896324157715,-1.8327780961990356,-0.3638022840023041
1783174243944714200,3.97671435546875,-0.020415157079696655,-2.003633975982666,-0.366166889667511
1783174243954783200,3.986783203125,0.25576767325401306,-1.8627954721450806,-0.30980008840560913
1783174243964851500,3.9968515625,0.4776870310306549,-1.4899952411651611,-0.31597834825515747
1783174243974920200,4.006920166015625,0.47136613726615906,-0.9186487197875977,-0.3164786398410797
1783174243984989400,4.016989501953125,0.3149302005767822,-0.31598418951034546,-0.1899082064628601
1783174243995057400,4.027057373046875,0.19847480952739716,0.21719345450401306,-0.04323621094226837
1783174244005126100,4.037126220703125,0.17407679557800293,0.6015424132347107,0.031075304374098778
1783174244015194000,4.047194091796875,0.21236200630664825,0.7495322227478027,0.013536269776523113
1783174244025263400,4.057263427734375,0.2487194836139679,0.7407392263412476,-0.07274109125137329
1783174244035332000,4.06733203125,0.24779841303825378,0.6834781169891357,-0.18689347803592682
1783174244045400300,4.077400390625,0.1941828429698944,0.5918989777565002,-0.2628953158855438
1783174244055469300,4.08746923828125,0.14876051247119904,0.5957879424095154,-0.31138908863067627
1783174244065538300,4.097538330078125,0.15371504426002502,0.6977398991584778,-0.29940006136894226
1783174244075606300,4.107606201171875,0.13399343192577362,0.7990092039108276,-0.22818244993686676
1783174244085675300,4.11767529296875,0.10066024214029312,0.8663467168807983,-0.05135281756520271
1783174244095743200,4.1277431640625,0.07334606349468231,0.8779886960983276,0.140252023935318
1783174244105812200,4.137812255859375,0.07224351167678833,0.7444775104522705,0.2896982431411743
1783174244115881200,4.147881103515625,0.07139676064252853,0.5025455355644226,0.36737900972366333
1783174244125949400,4.157949462890625,0.0651274099946022,0.23635196685791016,0.3681982159614563
1783174244136018200,4.16801806640625,0.062358178198337555,-0.0030949367210268974,0.2995052635669708
1783174244146086100,4.178086181640625,0.030243387445807457,-0.10414618998765945,0.23276112973690033
1783174244156155400,4.1881552734375,-0.05494458228349686,-0.028516504913568497,0.15023113787174225
1783174244166224600,4.198224609375,-0.10925815999507904,0.1237364113330841,0.02467641979455948
1783174244176292600,4.208292724609375,-0.13349409401416779,0.26846182346343994,-0.08619837462902069
1783174244186361900,4.21836181640625,-0.1705501228570938,0.32688888907432556,-0.16322338581085205
1783174244196430600,4.2284306640625,-0.20759378373622894,0.29605627059936523,-0.18980684876441956
1783174244206498600,4.23849853515625,-0.22713099420070648,0.21302580833435059,-0.12726864218711853
1783174244216567800,4.24856787109375,-0.23716332018375397,0.058619413524866104,-0.05243178457021713
1783174244226635800,4.2586357421875,-0.18314535915851593,-0.10383927077054977,-0.0009952245745807886
1783174244236704500,4.26870458984375,-0.08462318778038025,-0.23939484357833862,0.05805642530322075
1783174244246773800,4.278773681640625,0.02194133587181568,-0.27786341309547424,0.13007283210754395
1783174244256841700,4.288841796875,0.07715244591236115,-0.16563989222049713,0.1460840255022049
1783174244266910500,4.298910400390625,0.06385181844234467,0.037802450358867645,0.1648542582988739
1783174244276979700,4.308979736328125,0.01740064099431038,0.24976977705955505,0.16517630219459534
1783174244287047700,4.319047607421875,-0.021496957167983055,0.3878871500492096,0.22723780572414398
1783174244297116700,4.32911669921875,-0.017888829112052917,0.4047212302684784,0.4007653594017029
1783174244307184600,4.3391845703125,0.05596808344125748,0.3515253961086273,0.6086741089820862
1783174244317253600,4.349253662109375,0.10246776044368744,0.31366395950317383,0.7200332283973694
1783174244327322600,4.359322509765625,0.09178236126899719,0.33680495619773865,0.6723765134811401
1783174244337390600,4.369390625,0.05585644766688347,0.40853509306907654,0.5530217289924622
1783174244347459600,4.37945947265625,0.06145681068301201,0.3655910789966583,0.41068562865257263
1783174244357527800,4.38952783203125,0.18732701241970062,0.04034707695245743,0.3895009458065033
1783174244367596500,4.399596435546875,0.4503341317176819,-0.5739142298698425,0.4246477484703064
1783174244377665800,4.409665771484375,0.7878965735435486,-1.2793294191360474,0.5236806869506836
1783174244387733800,4.419733642578125,0.9725585579872131,-1.8321051597595215,0.7930077314376831
1783174244397802500,4.429802490234375,0.8900226354598999,-1.9786161184310913,1.1839925050735474
1783174244407871700,4.439871826171875,0.6099995374679565,-1.6140724420547485,1.284673810005188
1783174244417939700,4.449939697265625,0.22370007634162903,-1.0148282051086426,0.8167474269866943
1783174244428008400,4.460008544921875,-0.14310722053050995,-0.4402296543121338,0.05160527676343918
1783174244438076700,4.47007666015625,-0.4520050883293152,0.1269899159669876,-0.45848768949508667
1783174244448145700,4.480145751953125,-0.6927177906036377,0.5126009583473206,-0.63665771484375
1783174244458214700,4.490214599609375,-0.754511296749115,0.5474513173103333,-0.6813701391220093
1783174244468282600,4.50028271484375,-0.7181482315063477,0.2880472242832184,-0.7226083874702454
1783174244478351600,4.5103515625,-0.6040231585502625,-0.24676671624183655,-0.7381148934364319
1783174244488420600,4.520420654296875,-0.5174477696418762,-0.7292473316192627,-0.7118268609046936
1783174244498487800,4.53048779296875,-0.5193729996681213,-0.8755208849906921,-0.7770804166793823
1783174244508556500,4.540556640625,-0.46358722448349,-0.6325526237487793,-0.987199068069458
1783174244518624800,4.550624755859375,-0.31433719396591187,-0.13813865184783936,-1.255182147026062
1783174244528693800,4.56069384765625,-0.17957378923892975,0.31884220242500305,-1.3969192504882812
1783174244538761700,4.57076171875,-0.04197690263390541,0.7015193104743958,-1.2782083749771118
1783174244548830700,4.580830810546875,0.08623085916042328,0.9521080851554871,-1.0098575353622437
1783174244558899700,4.590899658203125,0.21611914038658142,1.0445220470428467,-0.7052321434020996
1783174244568967700,4.6009677734375,0.35266369581222534,1.0596485137939453,-0.38801270723342896
1783174244579036700,4.61103662109375,0.41992324590682983,0.9902246594429016,-0.14352846145629883
1783174244589105700,4.621105712890625,0.4622898995876312,0.9210402369499207,-0.060204558074474335
1783174244599174000,4.631173828125,0.5179616212844849,0.8937182426452637,-0.09180103242397308
1783174244609242600,4.64124267578125,0.5810649394989014,0.8699785470962524,-0.14912822842597961
1783174244619310600,4.651310546875,0.6586897373199463,0.8104523420333862,-0.13420160114765167
1783174244629379800,4.6613798828125,0.7598275542259216,0.6941800117492676,-0.008900932036340237
1783174244639448600,4.671448486328125,0.8449118733406067,0.48315802216529846,0.18565787374973297
1783174244649516500,4.6815166015625,0.9131748676300049,0.22536563873291016,0.37572288513183594
1783174244659585800,4.691585693359375,0.9216220378875732,0.04740650951862335,0.503268301486969
1783174244669654500,4.701654541015625,0.8109418749809265,-0.05555343255400658,0.5016815662384033
1783174244679722800,4.71172265625,0.5830955505371094,-0.05197719857096672,0.3691735863685608
1783174244689791700,4.721791748046875,0.3123202621936798,-0.002030674833804369,0.12669941782951355
1783174244699859700,4.731859619140625,0.07391435652971268,0.08793917298316956,-0.05007915943861008
1783174244709928700,4.7419287109375,-0.06929979473352432,0.19872428476810455,-0.08671333640813828
1783174244719997700,4.751997802734375,-0.09496467560529709,0.2918156087398529,-0.038369424641132355
1783174244730065700,4.762065673828125,-0.05536826327443123,0.3097866177558899,0.06618867814540863
1783174244740134700,4.772134765625,0.014384024776518345,0.2802373468875885,0.18090447783470154
1783174244750203600,4.78220361328125,0.04142416641116142,0.23779001832008362,0.3224312365055084
1783174244760272000,4.79227197265625,-0.02347259782254696,0.18454566597938538,0.46231621503829956
1783174244770340600,4.802340576171875,-0.13148215413093567,0.12046173959970474,0.49436497688293457
1783174244780408600,4.81240869140625,-0.2056126594543457,0.05253174155950546,0.41860532760620117
1783174244790477800,4.822477783203125,-0.22796723246574402,0.0320054292678833,0.3458389937877655
1783174244800546600,4.832546630859375,-0.2261676788330078,0.12658873200416565,0.29916882514953613
1783174244810614500,4.842614501953125,-0.21640639007091522,0.2493002712726593,0.2935897707939148
1783174244820683800,4.852683837890625,-0.2055879682302475,0.3601585626602173,0.3359241485595703
1783174244830751700,4.862751708984375,-0.19262689352035522,0.3756965100765228,0.38417744636535645
1783174244840820700,4.87282080078125,-0.14802244305610657,0.38308238983154297,0.47207340598106384
1783174244850890800,4.882890869140625,-0.14796970784664154,0.3814448118209839,0.5390604138374329
1783174244860959700,4.892959716796875,-0.18739232420921326,0.2993476986885071,0.525307834148407
1783174244871028700,4.90302880859375,-0.1793471723794937,0.15528053045272827,0.5660566091537476
1783174244881096700,4.9130966796875,-0.03990515321493149,-0.07578957825899124,0.737963855266571
1783174244891165700,4.923165771484375,0.2398308962583542,-0.424129456281662,0.9736711978912354
1783174244901234700,4.933234619140625,0.5014913082122803,-0.8880861401557922,1.172899603843689
1783174244911302700,4.943302734375,0.5685645937919617,-1.3457293510437012,1.2355320453643799
1783174244921371600,4.95337158203125,0.36150604486465454,-1.6707783937454224,1.0772082805633545
1783174244931439600,4.963439697265625,0.018591580912470818,-1.6695005893707275,0.7863717079162598
1783174244941508900,4.9735087890625,-0.24956849217414856,-1.2099363803863525,0.5067152976989746
1783174244951577600,4.98357763671875,-0.34009119868278503,-0.4700008034706116,0.12557965517044067
1783174244961645600,4.9936455078125,-0.3340736925601959,0.0419284850358963,-0.42255517840385437
1783174244971714800,5.00371484375,-0.35450708866119385,0.04509711265563965,-0.9288269281387329
1783174244981783600,5.013783447265625,-0.49578437209129333,-0.4279983341693878,-1.344138264656067
1783174244991851500,5.0238515625,-0.6651387810707092,-1.0743488073349,-1.6512295007705688
1783174245001920800,5.033920654296875,-0.6810625791549683,-1.547699213027954,-1.5745295286178589
1783174245011988700,5.04398876953125,-0.43136727809906006,-1.6281794309616089,-1.247201681137085
1783174245022057700,5.0540576171875,-0.11526507139205933,-1.3526959419250488,-0.9670758247375488
1783174245032126700,5.064126708984375,0.09425805509090424,-0.9135609865188599,-0.8172935247421265
1783174245042194700,5.074194580078125,0.13623937964439392,-0.45797184109687805,-0.7710315585136414
1783174245052263700,5.084263671875,0.07804346084594727,-0.16281262040138245,-0.864295244216919
1783174245062332700,5.094332763671875,-0.021994732320308685,-0.020192641764879227,-1.0346519947052002
1783174245072400600,5.104400634765625,-0.09847672283649445,0.016754455864429474,-1.2491371631622314
1783174245082469600,5.1144697265625,-0.12544205784797668,0.08420447260141373,-1.416521668434143
1783174245092537600,5.12453759765625,-0.09525565057992935,0.24133069813251495,-1.4133857488632202
1783174245102606800,5.13460693359375,-0.012258239090442657,0.39371517300605774,-1.1993958950042725
1783174245112675600,5.144675537109375,0.16503159701824188,0.4945560395717621,-0.8195260763168335
1783174245122743600,5.15474365234375,0.3476265072822571,0.553499698638916,-0.40039464831352234
1783174245132812800,5.164812744140625,0.4431445002555847,0.5248755216598511,-0.06253484636545181
1783174245142881500,5.174881591796875,0.49409812688827515,0.44876226782798767,0.1257997751235962
1783174245152949500,5.184949462890625,0.5202743411064148,0.35158857703208923,0.20912210643291473
1783174245163018800,5.195018798828125,0.5331253409385681,0.11836694926023483,0.15409351885318756
1783174245173087200,5.205087158203125,0.5333674550056458,-0.07779084146022797,0.08531633019447327
1783174245183156000,5.215156005859375,0.4816072881221771,-0.10345092415809631,0.06929121166467667
1783174245193225200,5.22522509765625,0.4061753749847412,-0.036895859986543655,0.06986059248447418
1783174245203293200,5.235293212890625,0.35726502537727356,0.09342879801988602,0.0897906944155693
1783174245213362000,5.24536181640625,0.3061904013156891,0.191074937582016,0.09661983698606491
1783174245223430100,5.25543017578125,0.24263246357440948,0.23525011539459229,0.0855030044913292
1783174245233499100,5.2654990234375,0.15766510367393494,0.20673006772994995,0.0825202614068985
1783174245243568000,5.275568115234375,0.07118014246225357,0.14620201289653778,0.09326142817735672
1783174245253636000,5.285635986328125,-0.009965040720999241,0.0970725417137146,0.09045951068401337
1783174245263705000,5.295705078125,-0.06722436845302582,0.06462547928094864,0.10519249737262726
1783174245273774000,5.305774169921875,-0.09839054197072983,0.06308963149785995,0.1413896530866623
1783174245283842000,5.315842041015625,-0.09539994597434998,0.08531691133975983,0.1512756645679474
1783174245293911000,5.3259111328125,-0.08561468869447708,0.19118823111057281,0.16296374797821045
1783174245303980000,5.33597998046875,-0.1115012839436531,0.36898988485336304,0.12258000671863556
1783174245314048000,5.346048095703125,-0.12654893100261688,0.5691224932670593,0.029483623802661896
1783174245324117200,5.3561171875,-0.13986565172672272,0.6804595589637756,-0.030510863289237022
1783174245334185200,5.366185302734375,-0.16508978605270386,0.6763201951980591,0.03645831346511841
1783174245344254000,5.37625390625,-0.15403635799884796,0.5730463862419128,0.18179522454738617
1783174245354323200,5.3863232421875,-0.058983080089092255,0.49109476804733276,0.31130313873291016
1783174245364391200,5.39639111328125,0.028100531548261642,0.44850829243659973,0.36363333463668823
1783174245374460000,5.4064599609375,0.09823007881641388,0.4635879099369049,0.38121551275253296
1783174245384528100,5.416528076171875,0.12059527635574341,0.5229535698890686,0.3828819692134857
1783174245394597000,5.42659716796875,0.09560204297304153,0.6175621151924133,0.38008564710617065
1783174245404666000,5.436666015625,0.05575692281126976,0.692413866519928,0.33716797828674316
1783174245414734000,5.446734130859375,0.04475221037864685,0.6539003252983093,0.3048055171966553
1783174245424803000,5.456802978515625,0.07422731071710587,0.4484570324420929,0.37437090277671814
1783174245434872000,5.4668720703125,0.2216218113899231,-0.035312555730342865,0.429861843585968
1783174245444940000,5.47693994140625,0.41379454731941223,-0.8331565260887146,0.357703298330307
1783174245455009000,5.487009033203125,0.5431655645370483,-1.5658420324325562,0.3556404113769531
1783174245465077200,5.4970771484375,0.5810053944587708,-1.9974582195281982,0.4134039580821991
1783174245475146000,5.50714599609375,0.5540683269500732,-1.784091830253601,0.5733653903007507
1783174245485215200,5.51721533203125,0.4244906008243561,-1.0032949447631836,0.7092068195343018
1783174245495283200,5.527283203125,0.23060686886310577,-0.1466042399406433,0.6063302159309387
1783174245505352000,5.53735205078125,0.015515921637415886,0.24359843134880066,0.1446118950843811
1783174245515421200,5.547421142578125,-0.16302452981472015,-0.046412885189056396,-0.573569118976593
1783174245525489200,5.5574892578125,-0.36063310503959656,-0.48979994654655457,-1.1492877006530762
1783174245535558000,5.567557861328125,-0.5585067868232727,-0.916205883026123,-1.4904404878616333
1783174245545626000,5.577626220703125,-0.5128998160362244,-1.2597569227218628,-1.5783847570419312
1783174245555695000,5.587695068359375,-0.17542961239814758,-1.5072517395019531,-1.2284350395202637
1783174245565764000,5.59776416015625,0.2934502065181732,-1.6705520153045654,-0.5702714323997498
1783174245575832000,5.60783203125,0.5972129702568054,-1.4947307109832764,0.19052496552467346
1783174245585901000,5.617901123046875,0.5028958320617676,-0.9963179230690002,0.7118335962295532
1783174245595970000,5.627969970703125,0.14414140582084656,-0.447900652885437,0.7877688407897949
1783174245606038000,5.6380380859375,-0.22484968602657318,0.04717513173818588,0.4753667414188385
1783174245616107000,5.64810693359375,-0.2483331710100174,0.2459968775510788,0.1722334921360016
1783174245626175200,5.65817529296875,0.11460462957620621,-0.06444733589887619,0.12115991115570068
1783174245636244000,5.668243896484375,0.5298414826393127,-0.5453100800514221,0.3593948483467102
1783174245646313200,5.678313232421875,0.6640589237213135,-1.0472148656845093,0.7845845818519592
1783174245656381200,5.688381103515625,0.5457589030265808,-1.333796501159668,1.1612977981567383
1783174245666450000,5.698449951171875,0.5052134394645691,-0.9797789454460144,1.1669378280639648
1783174245676519200,5.708519287109375,0.5495675802230835,-0.03564437851309776,0.8471909761428833
1783174245686587100,5.718587158203125,0.5305922031402588,0.8939440250396729,0.40295594930648804
1783174245696656000,5.72865576171875,0.4885347783565521,1.3360631465911865,0.05292656272649765
1783174245706724000,5.73872412109375,0.4369169771671295,1.2399859428405762,-0.04410238936543465
1783174245716793000,5.74879296875,0.42863190174102783,0.8025910258293152,0.029211239889264107
1783174245726862000,5.758862060546875,0.5198112726211548,0.4567675292491913,0.08444607257843018
1783174245736930000,5.768929931640625,0.5612894892692566,0.31102418899536133,-0.0038465082179754972
1783174245746999000,5.7789990234375,0.4462783634662628,0.3255614638328552,-0.21804264187812805
1783174245757068000,5.789068115234375,0.2643085718154907,0.4491843283176422,-0.4813014268875122
1783174245767136000,5.799135986328125,0.11315468698740005,0.6789376139640808,-0.6380229592323303
1783174245777205000,5.809205078125,0.020606378093361855,0.817536473274231,-0.6582565903663635
1783174245787273200,5.819273193359375,0.02438986860215664,0.7956506013870239,-0.544569194316864
1783174245797342000,5.829342041015625,0.07742618769407272,0.6175389289855957,-0.3614095151424408
1783174245807411200,5.8394111328125,0.12182480841875076,0.38522469997406006,-0.27405276894569397
1783174245817479200,5.849479248046875,0.16482608020305634,0.27279403805732727,-0.2897646129131317
1783174245827548000,5.8595478515625,0.18791961669921875,0.2705651819705963,-0.3682501018047333
1783174245837617200,5.8696171875,0.18423007428646088,0.2854067087173462,-0.4185050129890442
1783174245847685000,5.87968505859375,0.2012040764093399,0.32847610116004944,-0.45083582401275635
1783174245857754000,5.889754150390625,0.26518386602401733,0.43563395738601685,-0.42672330141067505
1783174245867822000,5.899822021484375,0.3127169609069824,0.5411422252655029,-0.3100983500480652
1783174245877891000,5.90989111328125,0.31499770283699036,0.5805727243423462,-0.1531694531440735
1783174245887960300,5.919960205078125,0.31885796785354614,0.5259049534797668,-0.021250566467642784
1783174245898028000,5.930028076171875,0.36262476444244385,0.43961524963378906,0.06754666566848755
1783174245908097000,5.940096923828125,0.37687787413597107,0.34826695919036865,0.09317629784345627
1783174245918166300,5.950166259765625,0.35112616419792175,0.28228315711021423,0.0498967319726944
1783174245928234000,5.96023388671875,0.3865027129650116,0.3376328647136688,-0.03832414373755455
1783174245938303000,5.970302978515625,0.43975046277046204,0.5329826474189758,-0.10945797711610794
1783174245948371200,5.98037109375,0.4536900222301483,0.7430726885795593,-0.19149447977542877
1783174245958440200,5.990440185546875,0.45823872089385986,0.7908580303192139,-0.2741938829421997
1783174245968509200,6.00050927734375,0.43751534819602966,0.6229616403579712,-0.28288567066192627
1783174245978577200,6.0105771484375,0.39572903513908386,0.27201661467552185,-0.20611953735351562
1783174245988646100,6.020646240234375,0.3568785786628723,-0.1920126974582672,0.03257111832499504
1783174245998715100,6.030715087890625,0.36476418375968933,-0.7557040452957153,0.2792450785636902
1783174246008783000,6.040783203125,0.3930233120918274,-1.1570920944213867,0.4502902030944824
1783174246018852000,6.05085205078125,0.32056349515914917,-1.1964198350906372,0.4483322203159332
1783174246028920000,6.060920166015625,0.11627925932407379,-0.901452362537384,0.13190600275993347
1783174246038989000,6.070989013671875,-0.17033013701438904,-0.28845176100730896,-0.17003335058689117
1783174246049058300,6.081058349609375,-0.36110949516296387,0.1632038950920105,-0.2957795560359955
1783174246059126000,6.0911259765625,-0.3125446140766144,0.1502297818660736,-0.2699018716812134
1783174246069195000,6.101195068359375,-0.1768602877855301,-0.2120530903339386,-0.053590789437294006
1783174246079264300,6.11126416015625,-0.10213065147399902,-0.7860157489776611,0.2726171314716339
1783174246089332200,6.121332275390625,-0.0764610543847084,-1.3941607475280762,0.45172956585884094
1783174246099401000,6.13140087890625,-0.1474580019712448,-1.9205467700958252,0.2980356216430664
1783174246109469200,6.14146923828125,-0.32614079117774963,-2.1837050914764404,-0.08831079304218292
1783174246119538200,6.1515380859375,-0.4343319535255432,-2.0600898265838623,-0.36140599846839905
1783174246129607200,6.161607177734375,-0.4413244426250458,-1.6706292629241943,-0.3941285312175751
1783174246139675100,6.171675048828125,-0.4200223386287689,-1.179455041885376,-0.22103983163833618
1783174246149744000,6.181744140625,-0.40112048387527466,-0.7634690403938293,0.033657677471637726
1783174246159813000,6.191813232421875,-0.29553014039993286,-0.5342033505439758,0.3207528293132782
1783174246169880600,6.201880615234375,-0.1172502413392067,-0.5106212496757507,0.5291900038719177
1783174246179949600,6.211949462890625,0.054789695888757706,-0.49075573682785034,0.5164302587509155
1783174246190017800,6.222017822265625,0.10109902173280716,-0.26405662298202515,0.31880977749824524
1783174246200086500,6.23208642578125,0.02902723103761673,0.13546226918697357,0.04775376617908478
1783174246210155500,6.242155517578125,-0.033780332654714584,0.5278933048248291,-0.20058993995189667
1783174246220223700,6.2522236328125,-0.012142680585384369,0.8045060038566589,-0.3483056426048279
1783174246230292500,6.26229248046875,0.10578364133834839,0.9770668745040894,-0.39851874113082886
1783174246240361700,6.27236181640625,0.2012859284877777,1.1179691553115845,-0.36196818947792053
1783174246250429700,6.2824296875,0.21706728637218475,1.187489628791809,-0.29570192098617554
1783174246260498400,6.29249853515625,0.20151709020137787,1.172721266746521,-0.2242429256439209
1783174246270566700,6.302566650390625,0.16889415681362152,1.0194659233093262,-0.19734321534633636
1783174246280635600,6.3126357421875,0.15667344629764557,0.7443036437034607,-0.11476684361696243
1783174246290704400,6.322704345703125,0.17520883679389954,0.5133828520774841,0.01126665435731411
1783174246300772600,6.332772705078125,0.14456278085708618,0.36582133173942566,0.02956070750951767
1783174246310841600,6.342841552734375,0.06756380945444107,0.3005724847316742,-0.023803645744919777
1783174246320910600,6.35291064453125,0.009169744327664375,0.2852523922920227,-0.08502838760614395
1783174246330978600,6.362978515625,0.0004687726905103773,0.3093336224555969,-0.14200766384601593
1783174246341047600,6.373047607421875,0.02228778414428234,0.2937277555465698,-0.15005812048912048
1783174246351115800,6.38311572265625,0.041678816080093384,0.26078566908836365,-0.12068501114845276
1783174246361184500,6.3931845703125,0.03075719252228737,0.24471643567085266,-0.07346716523170471
1783174246371253500,6.40325341796875,0.019060883671045303,0.19380894303321838,-0.034883856773376465
1783174246381321700,6.41332177734375,0.03627396002411842,0.13312242925167084,0.06823693215847015
1783174246391390500,6.423390380859375,0.057674188166856766,0.0641886293888092,0.16895592212677002
1783174246401459700,6.433459716796875,0.047863900661468506,-0.02855914831161499,0.21132467687129974
1783174246411527700,6.443527587890625,0.03429613634943962,-0.0789276733994484,0.15834617614746094
1783174246421596400,6.453596435546875,0.06471609324216843,-0.05728123337030411,0.02985052764415741
1783174246431664600,6.46366455078125,0.1009128987789154,0.027041681110858917,-0.07533863931894302
1783174246441733600,6.473733642578125,0.08144546300172806,0.1822802573442459,-0.1034616231918335
1783174246451802400,6.48380224609375,0.02516336366534233,0.3229694664478302,-0.07691753655672073
1783174246461870600,6.49387060546875,-0.01531082671135664,0.4246247112751007,0.009170472621917725
1783174246471939600,6.503939697265625,-0.008942333050072193,0.4680964946746826,0.10736146569252014
1783174246482008600,6.514008544921875,0.05138545483350754,0.47031357884407043,0.21591323614120483
1783174246492076500,6.52407666015625,0.1339731365442276,0.4366717040538788,0.3572923541069031
1783174246502145500,6.5341455078125,0.1527084857225418,0.39072659611701965,0.44653835892677307
1783174246512213800,6.5442138671875,0.12740860879421234,0.41844892501831055,0.48617878556251526
1783174246522282500,6.554282470703125,0.07140792161226273,0.5235657691955566,0.4519265294075012
1783174246532351500,6.5643515625,0.012434937991201878,0.5386025309562683,0.32633107900619507
1783174246542419700,6.574419677734375,0.014089826494455338,0.38192903995513916,0.16423164308071136
1783174246552488400,6.584488525390625,0.07551486790180206,0.10525206476449966,-0.004747559316456318
1783174246562557700,6.5945576171875,0.15721558034420013,-0.46494990587234497,-0.23622259497642517
1783174246572625700,6.604625732421875,0.2859489619731903,-1.0572175979614258,-0.4489270746707916
1783174246582694700,6.614694580078125,0.3715858459472656,-1.2444837093353271,-0.49206867814064026
1783174246592762400,6.624762451171875,0.3121461868286133,-0.984457790851593,-0.40826377272605896
1783174246602831600,6.63483154296875,0.18948577344417572,-0.3441190719604492,-0.23565179109573364
1783174246612900600,6.644900634765625,0.12634038925170898,0.30291762948036194,0.1382014900445938
1783174246622968600,6.654968505859375,0.2115096151828766,0.5529759526252747,0.6261985898017883
1783174246633037600,6.66503759765625,0.37747323513031006,0.2192661166191101,0.8553013801574707
1783174246643106800,6.67510693359375,0.3485952615737915,-0.4965319335460663,0.6146413683891296
1783174246653174500,6.685174560546875,0.11055860668420792,-1.1898103952407837,0.12668034434318542
1783174246663243500,6.695243408203125,-0.15899057686328888,-1.6106951236724854,-0.32099011540412903
1783174246673311500,6.7053115234375,-0.35677826404571533,-1.6164183616638184,-0.6226522922515869
1783174246683380500,6.71538037109375,-0.3437838852405548,-1.2154743671417236,-0.6715889573097229
1783174246693449500,6.725449462890625,-0.08177262544631958,-0.5704401135444641,-0.36357957124710083
1783174246703517700,6.735517578125,0.25644242763519287,0.007399529684334993,0.0027028070762753487
1783174246713586700,6.745586669921875,0.4556545317173004,0.3185423016548157,0.26510700583457947
1783174246723655700,6.75565576171875,0.4800032675266266,0.3575458824634552,0.4320467412471771
1783174246733723600,6.7657236328125,0.44712603092193604,0.08130247890949249,0.41164344549179077
1783174246743792600,6.775792724609375,0.4148607850074768,-0.380429208278656,0.23021158576011658
1783174246753860400,6.7858603515625,0.3998614251613617,-0.7860338687896729,0.008361156098544598
1783174246763929600,6.7959296875,0.4721281826496124,-0.8328841924667358,-0.2346522957086563
1783174246773998600,6.80599853515625,0.60457843542099,-0.5322113633155823,-0.4740060865879059
1783174246784066600,6.816066650390625,0.6724368333816528,-0.153580442070961,-0.5548276901245117
1783174246794135600,6.826135498046875,0.5992176532745361,0.2895008623600006,-0.42341846227645874
1783174246804203500,6.83620361328125,0.4613412320613861,0.7942665219306946,-0.22156469523906708
1783174246814272800,6.846272705078125,0.35402971506118774,1.1091703176498413,-0.04835992678999901
1783174246824341500,6.856341552734375,0.27276015281677246,1.0965956449508667,0.013012622483074665
1783174246834409500,6.866409423828125,0.26004281640052795,0.8848353624343872,0.020543208345770836
1783174246844478700,6.876478759765625,0.3526957631111145,0.6271087527275085,0.019149310886859894
1783174246854547500,6.88654736328125,0.44175034761428833,0.385934978723526,0.01418374478816986
1783174246864615700,6.89661572265625,0.43372172117233276,0.2991414964199066,0.010998603887856007
1783174246874684700,6.9066845703125,0.3983238637447357,0.3706081509590149,-0.08674342930316925
1783174246884752400,6.91675244140625,0.34740182757377625,0.5606417655944824,-0.22234733402729034
1783174246894821600,6.926821533203125,0.3061891198158264,0.6848087906837463,-0.3276129961013794
1783174246904890600,6.936890625,0.26904815435409546,0.6299271583557129,-0.37319353222846985
1783174246914958600,6.94695849609375,0.1833503097295761,0.3978773355484009,-0.3068627417087555
1783174246925027600,6.957027587890625,0.07292632013559341,0.16193963587284088,-0.2118038684129715
1783174246935096600,6.9670966796875,0.029935823753476143,-0.038862332701683044,-0.14648571610450745
1783174246945164800,6.977164794921875,0.05734774097800255,-0.17689716815948486,-0.08783066272735596
1783174246955233500,6.987233642578125,0.1460542231798172,-0.22092635929584503,-0.05377974733710289
1783174246965302800,6.997302734375,0.23246687650680542,-0.11887750029563904,-0.07958098500967026
1783174246975370800,7.007370849609375,0.2653864324092865,0.13466577231884003,-0.1720869541168213
1783174246985439500,7.017439453125,0.2110358327627182,0.4595770239830017,-0.28772780299186707
1783174246995507500,7.027507568359375,0.09627293050289154,0.6669335961341858,-0.3901965916156769
1783174247005576700,7.03757666015625,0.010543113574385643,0.6874082088470459,-0.4044485092163086
1783174247015645400,7.0476455078125,-0.0023804393131285906,0.5388180017471313,-0.290093332529068
1783174247025713700,7.057713623046875,0.065174899995327,0.3347967565059662,-0.10875202715396881
1783174247035782700,7.06778271484375,0.17748956382274628,0.117023766040802,0.03594385087490082
1783174247045851600,7.0778515625,0.2712338864803314,0.022869033738970757,0.13637298345565796
1783174247055919600,7.087919677734375,0.32084566354751587,0.03158998116850853,0.13522326946258545
1783174247065988600,7.097988525390625,0.2909855246543884,0.12996208667755127,0.09043662250041962
1783174247076056600,7.108056640625,0.2006891816854477,0.29363760352134705,0.07664482295513153
1783174247086125600,7.11812548828125,0.11684595793485641,0.4441376328468323,0.04137339070439339
1783174247096194600,7.128194580078125,0.09390711039304733,0.44316837191581726,0.01946893334388733
1783174247106262800,7.1382626953125,0.18061137199401855,0.28779688477516174,0.006415184121578932
1783174247116331500,7.14833154296875,0.36826756596565247,0.10138095170259476,0.0276426300406456
1783174247126400500,7.158400390625,0.505591869354248,-0.17243514955043793,0.12916578352451324
1783174247136468700,7.16846875,0.5527899265289307,-0.6062284708023071,0.18765872716903687
1783174247146537500,7.178537353515625,0.5185206532478333,-1.1058340072631836,0.13004550337791443
1783174247156605400,7.18860546875,0.35363730788230896,-1.4425054788589478,0.11399818956851959
1783174247166674700,7.1986748046875,0.10755376517772675,-1.3941960334777832,0.157266303896904
1783174247176744000,7.208743896484375,-0.04633474349975586,-1.0926361083984375,0.18520256876945496
1783174247186812200,7.218812255859375,0.01642744243144989,-0.7847939729690552,0.16886141896247864
1783174247196881200,7.228881103515625,0.1632169932126999,-0.7936645746231079,0.031304486095905304
1783174247206950000,7.238949951171875,0.13720324635505676,-1.1655539274215698,-0.23339533805847168
1783174247217018000,7.24901806640625,-0.10735838860273361,-1.4765591621398926,-0.5564968585968018
1783174247227087000,7.259087158203125,-0.43611204624176025,-1.385970950126648,-0.7441139221191406
1783174247237155000,7.269155029296875,-0.5825883150100708,-0.9967973828315735,-0.6637541651725769
1783174247247224000,7.27922412109375,-0.4953388571739197,-0.5934062004089355,-0.37005382776260376
1783174247257293000,7.28929296875,-0.3123731017112732,-0.38556668162345886,0.014278769493103027
1783174247267361300,7.299361328125,-0.23353393375873566,-0.18723760545253754,0.393396258354187
1783174247277430000,7.309429931640625,-0.20249956846237183,-0.010745357722043991,0.7463189959526062
1783174247287499000,7.3194990234375,-0.0953371673822403,0.12790200114250183,0.9631956815719604
1783174247297567200,7.329567138671875,0.11162562668323517,0.07178135961294174,1.0186960697174072
1783174247307636000,7.339635986328125,0.34569671750068665,-0.23485954105854034,0.927821695804596
1783174247317704000,7.349703857421875,0.47352835536003113,-0.43048664927482605,0.829376220703125
1783174247327773200,7.359773193359375,0.42390406131744385,-0.29845404624938965,0.7294328212738037
1783174247337842000,7.369842041015625,0.30237510800361633,0.070583775639534,0.6032644510269165
1783174247347910100,7.37991015625,0.23299898207187653,0.4439253807067871,0.47008800506591797
1783174247357979100,7.389979248046875,0.24847526848316193,0.7490243315696716,0.3331299126148224
1783174247368047900,7.4000478515625,0.28641441464424133,0.9262065887451172,0.23607473075389862
1783174247378116000,7.4101162109375,0.30713099241256714,0.9838283061981201,0.22067756950855255
1783174247388185000,7.42018505859375,0.316783607006073,0.9882249236106873,0.3025287389755249
1783174247398253000,7.430253173828125,0.3368437886238098,0.9388452172279358,0.4271966516971588
1783174247408322000,7.440322021484375,0.3593754768371582,0.8046586513519287,0.5046773552894592
1783174247418391000,7.45039111328125,0.3292897641658783,0.6395846009254456,0.5497134923934937
1783174247428459000,7.460458984375,0.25163519382476807,0.5143742561340332,0.5538307428359985
1783174247438528000,7.470528076171875,0.1620393991470337,0.4472697675228119,0.4692426025867462
1783174247448597000,7.480596923828125,0.05371825024485588,0.4314393997192383,0.3718760907649994
1783174247458665200,7.490665283203125,-0.026062440127134323,0.43519487977027893,0.3190961182117462
1783174247468734000,7.50073388671875,-0.04541643336415291,0.4415643513202667,0.27674251794815063
1783174247478802000,7.510802001953125,-0.021583635360002518,0.47355443239212036,0.2261243611574173
1783174247488871200,7.52087109375,0.014661186374723911,0.5077019929885864,0.14659704267978668
1783174247498940000,7.53093994140625,0.008366643451154232,0.49808064103126526,0.03212100267410278
1783174247509008000,7.5410078125,-0.037622153759002686,0.4565283954143524,-0.10197848081588745
1783174247519077000,7.5510771484375,-0.07259926199913025,0.4017741084098816,-0.17738747596740723
1783174247529145900,7.561145751953125,-0.10033954679965973,0.3271307647228241,-0.22258025407791138
1783174247539214000,7.571214111328125,-0.12810906767845154,0.24871031939983368,-0.2517848312854767
1783174247549283000,7.581282958984375,-0.15720143914222717,0.25580233335494995,-0.24870671331882477
1783174247559351000,7.59135107421875,-0.16106058657169342,0.33621078729629517,-0.2711959183216095
1783174247569420000,7.601419921875,-0.12761475145816803,0.4180169701576233,-0.2879386842250824
1783174247579489000,7.611489013671875,-0.045536138117313385,0.4739779531955719,-0.25814715027809143
1783174247589557000,7.621556884765625,0.07287705689668655,0.4591563940048218,-0.16159823536872864
1783174247599626000,7.6316259765625,0.14900527894496918,0.40422219038009644,-0.08833372592926025
1783174247609695000,7.641695068359375,0.14504913985729218,0.4097155034542084,-0.043527908623218536
1783174247619763200,7.65176318359375,0.0777779147028923,0.4682474732398987,-0.022296933457255363
1783174247629832000,7.66183203125,-0.033467117697000504,0.4691537618637085,-0.017488062381744385
1783174247639900000,7.67189990234375,-0.14552584290504456,0.366712749004364,-0.03174462541937828
1783174247649969200,7.68196923828125,-0.2028501182794571,0.22882679104804993,-0.03498675674200058
1783174247660038000,7.692037841796875,-0.14650516211986542,0.08340828865766525,-0.0013381808530539274
1783174247670105900,7.70210595703125,0.052156541496515274,0.07374260574579239,0.09079014509916306
1783174247680175000,7.712175048828125,0.2468966841697693,0.13037148118019104,0.2310636341571808
1783174247690243800,7.722243896484375,0.2640319764614105,0.05757291615009308,0.2896028161048889
1783174247700312000,7.73231201171875,0.1822230964899063,-0.0647442489862442,0.3434317111968994
1783174247710381000,7.742381103515625,0.07115250825881958,-0.18986648321151733,0.3177705407142639
1783174247720449000,7.752448974609375,0.043294508010149,-0.3424488306045532,0.28842630982398987
1783174247730518000,7.76251806640625,0.1138823926448822,-0.5504992604255676,0.3495083153247833
1783174247740587000,7.7725869140625,0.2635246515274048,-0.7194331288337708,0.49403825402259827
1783174247750655000,7.782655029296875,0.3785090148448944,-0.8580426573753357,0.538397490978241
1783174247760724000,7.792723876953125,0.460048109292984,-0.9891641736030579,0.36606138944625854
1783174247770793000,7.80279296875,0.401180237531662,-1.0760316848754883,-0.0641842633485794
1783174247780861200,7.812861083984375,0.10248803347349167,-0.9910451173782349,-0.5826014876365662
1783174247790930000,7.822929931640625,-0.2923080325126648,-0.6996998190879822,-0.9353930950164795
1783174247800998000,7.832997802734375,-0.5130361318588257,-0.18497134745121002,-0.9257631897926331
1783174247811067100,7.843067138671875,-0.37696507573127747,0.28454291820526123,-0.6859931945800781
1783174247821136000,7.853135986328125,-0.051141876727342606,0.46590638160705566,-0.41821110248565674
1783174247831203800,7.863203857421875,0.27223697304725647,0.37479591369628906,-0.06136351078748703
1783174247841273000,7.873273193359375,0.49704328179359436,0.06626866012811661,0.37852996587753296
1783174247851342000,7.883342041015625,0.6400004625320435,-0.3243808448314667,0.7284956574440002
1783174247861410000,7.89341015625,0.6170151829719543,-0.7158722281455994,0.8122922778129578
1783174247871479000,7.90347900390625,0.3961411118507385,-1.0027059316635132,0.6379542946815491
1783174247881547000,7.913547119140625,0.09897612035274506,-1.058510184288025,0.2781505286693573
1783174247891616000,7.923615966796875,-0.08098112791776657,-0.8765201568603516,-0.10974445194005966
1783174247901685000,7.93368505859375,-0.08181854337453842,-0.5681877136230469,-0.4737395942211151
1783174247911753000,7.9437529296875,0.07328342646360397,-0.16579551994800568,-0.7691813111305237
1783174247921822000,7.953822021484375,0.256414532661438,0.25165244936943054,-0.9442614316940308
1783174247931891000,7.963890869140625,0.2471320778131485,0.512505054473877,-1.0471265316009521
1783174247941959200,7.973959228515625,0.1095457524061203,0.5887784361839294,-1.0938746929168701
1783174247952028200,7.984028076171875,0.0043985601514577866,0.4430020749568939,-0.9019079804420471
1783174247962095900,7.994095947265625,0.02390475384891033,0.31072691082954407,-0.4856560230255127
1783174247972165000,8.0041650390625,0.05759613588452339,0.2981272339820862,-0.06960795819759369
1783174247982234000,8.014234130859375,0.03769576922059059,0.4350590705871582,0.1973499059677124
1783174247992301800,8.0243017578125,0.04670790955424309,0.6183841824531555,0.22792086005210876
1783174248002371000,8.03437109375,0.09802857041358948,0.7650701999664307,0.17347313463687897
1783174248012440000,8.044440185546875,0.17301732301712036,0.7804310321807861,0.07936661690473557
1783174248022508000,8.054508056640625,0.24350322782993317,0.6574200987815857,0.022677656263113022
1783174248032577000,8.064576904296874,0.2690719664096832,0.47588837146759033,0.04548283666372299
1783174248042645000,8.07464501953125,0.21824882924556732,0.2152644395828247,0.13055269420146942
1783174248052714000,8.0847138671875,0.16706126928329468,-0.03472702577710152,0.27995017170906067
1783174248062783000,8.094782958984375,0.20518124103546143,-0.18397732079029083,0.39899319410324097
1783174248072851000,8.104850830078124,0.20572853088378906,-0.28305333852767944,0.47605574131011963
1783174248082920200,8.114920166015626,0.1304803490638733,-0.2751407027244568,0.5155907273292542
1783174248092989000,8.124989013671875,0.06674664467573166,-0.05487412214279175,0.3941463232040405
1783174248103057200,8.13505712890625,0.024194365367293358,0.2322738766670227,0.16008992493152618
1783174248113126100,8.145126220703125,0.0005990245845168829,0.44478505849838257,-0.09351623803377151
1783174248123195000,8.15519482421875,-0.020763812586665154,0.4722762107849121,-0.23696239292621613
1783174248133263000,8.16526318359375,-0.045559436082839966,0.31538885831832886,-0.1845788210630417
1783174248143332000,8.17533203125,-0.05274291709065437,0.1534191220998764,0.009111728519201279
1783174248153400000,8.185400146484374,-0.034767646342515945,0.078155517578125,0.18873848021030426
1783174248163469000,8.195468994140626,0.004256641026586294,0.09720517694950104,0.31360214948654175
1783174248173538800,8.205538818359376,0.027459431439638138,0.14787447452545166,0.391328901052475
1783174248183606800,8.215606689453125,0.03724673017859459,0.21782563626766205,0.4120306372642517
1783174248193676000,8.225676025390625,0.05824176222085953,0.3418205678462982,0.3556451201438904
1783174248203744000,8.235743896484376,0.05691737309098244,0.4621190130710602,0.3168385326862335
1783174248213812700,8.245812744140625,0.04788845777511597,0.5026541948318481,0.31844282150268555
1783174248223882000,8.255882080078125,0.06285012513399124,0.46436208486557007,0.34157025814056396
1783174248233950000,8.265949951171875,0.0679125264286995,0.37697362899780273,0.3485938310623169
1783174248244019000,8.27601904296875,0.04283370077610016,0.31668785214424133,0.3287964165210724
1783174248254088000,8.286087890625,0.06532277166843414,0.33214032649993896,0.2848643660545349
1783174248264156000,8.296156005859375,0.14709727466106415,0.44178280234336853,0.23634561896324158
1783174248274225000,8.306224853515625,0.1946035474538803,0.5137565732002258,0.12347099184989929
1783174248284294000,8.3162939453125,0.18573462963104248,0.38014841079711914,-0.0733831524848938
1783174248294361900,8.32636181640625,0.0948989987373352,-0.0413554310798645,-0.31738701462745667
1783174248304430800,8.336430908203125,-0.0896742194890976,-0.6780778765678406,-0.5824057459831238
1783174248314498800,8.346498779296875,-0.20598351955413818,-1.2509336471557617,-0.6739766597747803
1783174248324568000,8.356568115234374,-0.1595972180366516,-1.370952844619751,-0.5521743297576904
1783174248334636800,8.36663671875,0.02436676248908043,-0.9943696856498718,-0.42911234498023987
1783174248344704800,8.376704833984375,0.27019986510276794,-0.49283072352409363,-0.5625149011611938
1783174248354774000,8.38677392578125,0.46364763379096985,-0.23325614631175995,-0.8328907489776611
1783174248364843000,8.396843017578124,0.51459801197052,-0.46871429681777954,-0.9155802726745605
1783174248374910700,8.40691064453125,0.3882313072681427,-1.0655816793441772,-0.8314532041549683
1783174248384980000,8.41697998046875,0.17904724180698395,-1.7067365646362305,-0.6194280982017517
1783174248395048000,8.4270478515625,0.1758274883031845,-1.8110445737838745,-0.24456903338432312
1783174248405117000,8.437116943359374,0.38850313425064087,-1.3622537851333618,0.22924461960792542
1783174248415186000,8.44718603515625,0.602114737033844,-0.6424415707588196,0.5097476840019226
1783174248425254000,8.45725390625,0.7273731827735901,0.18021735548973083,0.5714409947395325
1783174248435323000,8.467322998046875,0.6923206448554993,0.7550747990608215,0.46540218591690063
1783174248445392000,8.477391845703124,0.4399968087673187,0.7753968834877014,0.35018861293792725
1783174248455459800,8.4874599609375,0.08419930189847946,0.2772669494152069,0.2085864543914795
1783174248465529000,8.497529052734375,-0.129577174782753,-0.30616211891174316,0.08864940702915192
1783174248475596800,8.5075966796875,-0.14995373785495758,-0.6749767065048218,0.03364357352256775
1783174248485666000,8.517666015625,-0.06883285194635391,-0.8018914461135864,-0.028885824605822563
1783174248495733000,8.52773291015625,0.005133511032909155,-0.6383908987045288,-0.13230782747268677
1783174248505802000,8.537802001953125,0.013710970990359783,-0.2033822387456894,-0.2622644901275635
1783174248515870000,8.547869873046874,-0.044067639857530594,0.2536923587322235,-0.44444069266319275
1783174248525939000,8.55793896484375,-0.09923329204320908,0.700804591178894,-0.4716833233833313
1783174248536007000,8.5680068359375,-0.1572563797235489,1.0047266483306885,-0.34659838676452637
1783174248546076000,8.578075927734375,-0.18569643795490265,1.0910131931304932,-0.12399306893348694
1783174248556145000,8.588144775390624,-0.14290902018547058,0.9212294816970825,0.08830108493566513
1783174248566212900,8.598212890625,-0.06325303018093109,0.5743464231491089,0.20835551619529724
1783174248576282000,8.6082822265625,-0.05705558881163597,0.18887411057949066,0.2718085050582886
1783174248586350800,8.618350830078125,-0.08773639798164368,-0.0973304808139801,0.3085072636604309
1783174248596418800,8.628418701171874,-0.08959129452705383,-0.16342800855636597,0.3010770380496979
1783174248606488000,8.638488037109376,-0.03896185755729675,-0.11232414841651917,0.2420395165681839
1783174248616556000,8.64855615234375,0.008400330320000648,0.012969860807061195,0.1785084754228592
1783174248626624800,8.658624755859375,0.036953650414943695,0.171860009431839,0.07232028990983963
1783174248636694000,8.668694091796874,0.05944164842367172,0.32658329606056213,-0.03906668722629547
1783174248646762000,8.678761962890626,0.0743924230337143,0.48759299516677856,-0.10829909145832062
1783174248656831000,8.6888310546875,0.007650410756468773,0.5094916820526123,-0.1252242773771286
1783174248666900000,8.69889990234375,-0.0742635726928711,0.35769709944725037,-0.07261580973863602
1783174248676968000,8.708968017578124,-0.11396358162164688,0.13977117836475372,0.022885683923959732
1783174248687037000,8.719036865234376,-0.15359796583652496,-0.03218928351998329,0.11719420552253723
1783174248697105000,8.72910498046875,-0.17585773766040802,-0.06743329018354416,0.17831748723983765
1783174248707174000,8.739173828125,-0.15448424220085144,0.04043208435177803,0.19793376326560974
1783174248717243000,8.749242919921874,-0.12717965245246887,0.2719734311103821,0.14263588190078735
1783174248727310800,8.759310791015626,-0.1549307405948639,0.5721961855888367,0.04580860957503319
1783174248737380000,8.769380126953125,-0.2031368911266327,0.7633221745491028,-0.024563824757933617
1783174248747448800,8.77944873046875,-0.2679353356361389,0.8360595107078552,-0.018770117312669754
1783174248757516800,8.789516845703124,-0.3450538218021393,0.7737327814102173,0.04805658385157585
1783174248767586000,8.7995859375,-0.4117621183395386,0.6271283626556396,0.19452819228172302
1783174248777654800,8.80965478515625,-0.43360456824302673,0.39369797706604004,0.33383655548095703
1783174248787722800,8.81972265625,-0.4391865134239197,0.22858363389968872,0.4437342882156372
1783174248797792000,8.8297919921875,-0.4357547461986542,0.18078656494617462,0.4818965792655945
1783174248807860000,8.83985986328125,-0.4295199513435364,0.13862203061580658,0.36304590106010437
1783174248817929000,8.849928955078125,-0.39329031109809875,0.10149116814136505,0.18381625413894653
1783174248827998000,8.859998046875,-0.3621669113636017,0.17353306710720062,0.03972490131855011
1783174248838066000,8.87006591796875,-0.3321371078491211,-0.04624297469854355,-0.06641298532485962
1783174248848136000,8.880135986328124,-0.2399306446313858,-0.4157026410102844,0.05361813306808472
1783174248858205000,8.890204833984376,-0.1342790424823761,-0.8837420344352722,0.13277845084667206
1783174248868273000,8.90027294921875,-0.08883655816316605,-1.1568801403045654,0.0936044231057167
1783174248878342000,8.910341796875,-0.18985344469547272,-1.2905404567718506,-0.08366569876670837
1783174248888411000,8.920410888671874,-0.3929113447666168,-1.130553960800171,-0.22938422858715057
1783174248898479000,8.93047900390625,-0.5599203109741211,-0.721007227897644,-0.2321283519268036
1783174248908547800,8.9405478515625,-0.5641506910324097,-0.42302969098091125,-0.23936639726161957
1783174248918615800,8.95061572265625,-0.4519210755825043,-0.3119063675403595,-0.1656556874513626
1783174248928685000,8.96068505859375,-0.3149905800819397,-0.31214720010757446,-0.08578485995531082
1783174248938753800,8.97075390625,-0.23645876348018646,-0.4143310785293579,-0.1641875058412552
1783174248948822000,8.980822021484375,-0.291640967130661,-0.785811722278595,-0.4528075158596039
1783174248958891000,8.99089111328125,-0.5160418748855591,-1.2403203248977661,-0.9414016604423523
1783174248968959700,9.000959716796874,-0.8369106650352478,-1.5608842372894287,-1.5604063272476196
1783174248979028000,9.011028076171876,-1.0951225757598877,-1.7194563150405884,-1.926112174987793
1783174248989097000,9.021096923828125,-1.160888671875,-1.448292851448059,-1.8684306144714355
1783174248999165000,9.0311650390625,-0.9631319046020508,-0.8654228448867798,-1.5453039407730103
1783174249009234000,9.04123388671875,-0.5842562317848206,-0.23558004200458527,-1.124552607536316
1783174249019303000,9.051302978515626,-0.2009596824645996,0.2879577577114105,-0.7042120695114136
1783174249029371100,9.06137109375,0.0508248396217823,0.7071169018745422,-0.3646942675113678
1783174249039440000,9.07143994140625,0.15320421755313873,0.9135971069335938,-0.17550329864025116
1783174249049508900,9.0815087890625,0.15669918060302734,0.9260533452033997,-0.18264968693256378
1783174249059577000,9.0915771484375,0.10087426006793976,0.8387232422828674,-0.3398369252681732
1783174249069645800,9.101645751953125,0.006621894426643848,0.7018336653709412,-0.5220311880111694
1783174249079715000,9.111715087890625,-0.027913711965084076,0.5735353231430054,-0.644516110420227
1783174249089783000,9.121782958984374,0.052680496126413345,0.5421490669250488,-0.694780707359314
1783174249099851800,9.131851806640626,0.23886261880397797,0.641889214515686,-0.7019461989402771
1783174249109920000,9.141919921875,0.4139879047870636,0.7053489685058594,-0.6330609917640686
1783174249119989000,9.151989013671875,0.5221801400184631,0.6668250560760498,-0.4684853255748749
1783174249130057700,9.1620576171875,0.5299304127693176,0.6360461711883545,-0.23289754986763
1783174249140126000,9.1721259765625,0.46057501435279846,0.6962903141975403,-0.022763492539525032
1783174249150195000,9.18219482421875,0.3111732304096222,0.7024455666542053,0.13669654726982117
1783174249160264000,9.192263916015625,0.16419869661331177,0.6402514576911926,0.30210012197494507
1783174249170332000,9.202331787109374,0.1289444863796234,0.5550854802131653,0.48948824405670166
1783174249180400000,9.212400146484375,0.19959601759910583,0.47972920536994934,0.6598618626594543
1783174249190468000,9.222468017578125,0.3054080009460449,0.459456205368042,0.7615868449211121
1783174249200537000,9.232537109375,0.3021450936794281,0.4242106080055237,0.7929112315177917
1783174249210606000,9.242606201171874,0.20958924293518066,0.3233540952205658,0.7866756319999695
1783174249220674000,9.252674072265625,0.11701776087284088,0.2409718781709671,0.7730022072792053
1783174249230743300,9.262743408203125,0.08984408527612686,0.21471725404262543,0.7885949611663818
1783174249240812000,9.27281201171875,0.13890856504440308,0.22828952968120575,0.8691185712814331
1783174249250880000,9.2828798828125,0.1653643250465393,0.13797807693481445,0.9830560684204102
1783174249260949200,9.29294921875,0.152740940451622,0.04951531067490578,1.1087104082107544
1783174249271017000,9.303016845703125,0.12900498509407043,0.04042487591505051,1.1511443853378296
1783174249281086200,9.313086181640625,0.10134220868349075,0.16470102965831757,1.1168817281723022
1783174249291155200,9.3231552734375,0.082084521651268,0.37944066524505615,1.0626604557037354
1783174249301223000,9.333222900390625,0.07467560470104218,0.6017765402793884,1.0160176753997803
1783174249311292200,9.343292236328125,0.04069818928837776,0.4227820038795471,1.2281914949417114
1783174249321361200,9.353361083984375,0.029472168534994125,0.03128346428275108,1.2559388875961304
1783174249331429000,9.36342919921875,-0.07753242552280426,-0.4326992332935333,1.0605298280715942
1783174249341498000,9.373498046875,-0.18797796964645386,-0.9157601594924927,0.7472169399261475
1783174249351566000,9.383566162109375,-0.34470275044441223,-1.3847541809082031,0.4026181399822235
1783174249361635000,9.393635009765624,-0.5653986930847168,-1.724426507949829,0.17703188955783844
1783174249371704000,9.4037041015625,-0.7593772411346436,-1.7396422624588013,0.16974450647830963
1783174249381772000,9.41377197265625,-0.8308764696121216,-1.3271441459655762,0.4130900800228119
