time,seconds_elapsed,z,y,x
1783169488873547800,0.0675478515625,-0.012687047615647316,0.07742225324339233,0.04607773269983008
1783169488883617000,0.077616943359375,0.0013689502656459808,0.07516817243997939,0.03527984613191802
1783169488893686800,0.087686767578125,0.026346739655733108,0.05196058475992176,0.010359221156011334
1783169488903755800,0.097755859375,0.005086509484052658,0.029068106894043738,0.009329416883969679
1783169488913824800,0.10782470703125,-0.001967500680685043,0.006963281407672912,0.003225884977634996
1783169488923894800,0.117894775390625,0.00611468348801136,-0.02672784792780876,0.01705671863381285
1783169488933963800,0.1279638671875,0.022026538369059562,-0.06754828115394339,-0.015855622048629447
1783169488944033000,0.138032958984375,0.017021861949563025,-0.08866090128216891,-0.0375398132534232
1783169488954102800,0.148102783203125,0.0054430678367614746,-0.07653978045359254,-0.032903824015846475
1783169488964171800,0.158171875,0.0007692308068275451,-0.0619816234701313,-0.02784087807047181
1783169488974241800,0.16824169921875,-0.009247720816731453,-0.081992721230397,-0.02441715983264148
1783169488984310800,0.178310791015625,-0.011471826606988906,-0.07171891790209338,-0.016498322132648898
1783169488994379800,0.1883798828125,-0.01114274078309536,-0.05830458805835805,-0.002186148400045931
1783169489004449800,0.19844970703125,-0.02743278132677078,-0.04146579562469851,-0.019104467776743694
1783169489014518800,0.208518798828125,-0.03142214322388172,-0.035224302852666006,-0.02610818165950477
1783169489024587800,0.218587890625,-0.020730068817734718,-0.034211600412474945,-0.019827731416840105
1783169489034657800,0.22865771484375,-0.0028647417813539504,-0.05633012334734667,-0.03046276013981551
1783169489044726800,0.238726806640625,-0.024362287840247153,-0.05753962700127158,-0.030894420422194525
1783169489054795800,0.248795654296875,-0.03732464526593685,-0.07590378410499543,-0.026979900159849784
1783169489064865800,0.25886572265625,-0.018885902255773544,-0.04665292963874526,-0.011098522615456023
1783169489074934800,0.268934814453125,0.007445055308938026,-0.05309907813740428,-0.012384055214235558
1783169489085004800,0.2790048828125,0.003418284010887146,-0.04926365099325776,-0.014097087943507357
1783169489095073800,0.28907373046875,-0.026942367461323738,-0.01432709959038766,-0.0038288604060420766
1783169489105142800,0.299142822265625,-0.011373042407631873,0.014147498389915563,0.009144269575411453
1783169489115212800,0.309212890625,0.0010644143611192702,0.023877502281276972,0.015301477030897513
1783169489125281800,0.31928173828125,-0.003712298521399498,0.03245947093196446,0.006840572910034097
1783169489135350800,0.329350830078125,-0.006695113724470138,0.051805024305451655,-0.0010433030744316056
1783169489145420800,0.3394208984375,-0.004296235889196396,0.02593833923464408,0.0029866008956218135
1783169489155490000,0.349489990234375,-0.016563012266159055,0.04116002217773348,-0.004800280987774022
1783169489165559800,0.359559814453125,-0.020600304958224295,0.0449578618244268,0.005026975016272627
1783169489175628800,0.36962890625,-0.005337269374728203,0.027701049474673344,0.007763030650350265
1783169489185697800,0.37969775390625,-0.02329670443534851,0.03564205562399002,0.012794659008854068
1783169489195767800,0.389767822265625,-0.012227028888463973,0.04495669278064742,0.015447022981429472
1783169489205836800,0.3998369140625,0.016800912675261497,0.05538013371271081,0.024274577590753323
1783169489215905800,0.40990576171875,0.014256488889455795,0.06848240193258971,0.01449322025477886
1783169489225975800,0.419975830078125,-0.020759294912219048,0.06958313428268302,0.022262931807665153
1783169489236044800,0.430044921875,-0.019712416207790375,0.07684590552700683,0.03272290535783395
1783169489246113800,0.44011376953125,-0.011491115829348563,0.0698393968989607,0.023133307734294794
1783169489256183800,0.450183837890625,0.012139350605010986,0.04072089554152917,0.009552261287835427
1783169489266252800,0.460252685546875,-0.0000011690437793731689,0.023989463339326902,0.001338157835160382
1783169489276322800,0.47032275390625,-0.009140753310918808,-0.012909022086544427,0.028020595718664117
1783169489286391800,0.480391845703125,-0.0060059624165296555,-0.034009474569652226,0.0002378730096388608
1783169489296460800,0.490460693359375,-0.011249123767018317,-0.025534267928800543,-0.01710106466561556
1783169489306530800,0.50053076171875,-0.021130466312170026,-0.04467860649162903,-0.009153845687932335
1783169489316599800,0.510599853515625,-0.016499883902072906,-0.034647681141644716,-0.007458677408914081
1783169489326668800,0.520668701171875,-0.005135024800896644,-0.02348081056429073,-0.01997388928872533
1783169489336738800,0.53073876953125,-0.012470774516463279,-0.029235592965036628,-0.0034913218476343897
1783169489346807800,0.540807861328125,-0.01815758798122406,-0.017113750617252663,0.0056948506407439705
1783169489356876800,0.550876708984375,-0.013370353704690932,0.0012807148597668856,0.005311897471453994
1783169489366946800,0.56094677734375,-0.014264672195911406,-0.02218943731319159,0.003907309636846185
1783169489377015800,0.571015869140625,0.012825579303503035,-0.01476415528380312,-0.022346591503126546
1783169489387085800,0.5810859375,-0.022034721675515175,-0.026770540858642198,0.0024832179507473483
1783169489397154800,0.59115478515625,-0.01828968992829323,-0.01138525800181087,-0.002223617166490294
1783169489407223800,0.601223876953125,-0.021570611295104025,-0.03934395833224989,-0.010979261883650906
1783169489417293800,0.6112939453125,-0.001955225721001625,-0.006422642042196821,0.0003175780491903424
1783169489427362800,0.62136279296875,-0.01362929690182209,-0.004392255026020575,-0.01105276094470173
1783169489437431800,0.631431884765625,-0.01857669017612934,0.0004016487366054207,-0.006712498684111051
1783169489447501800,0.641501708984375,-0.020369418811798094,0.022142428966844454,0.004769981747632846
1783169489457570800,0.65157080078125,0.009565116202831268,0.03657385886467528,0.018825856331340037
1783169489467640800,0.661640869140625,0.023333529314398763,0.05689647939268034,0.006592347469739615
1783169489477709800,0.671709716796875,-0.009137830701470374,0.0538985716517549,-0.002065654692379758
1783169489487778800,0.68177880859375,-0.017064532047510145,0.043550191550166345,0.015134121107356622
1783169489497848800,0.691848876953125,-0.01900923637449741,0.04245410797572694,0.01620103338623885
1783169489507917800,0.701917724609375,0.001343231302499771,0.026707337146031202,0.010988824296439997
1783169489517986800,0.71198681640625,-0.007784662526845932,0.006805309800407849,0.005930412962287664
1783169489528057000,0.72205712890625,-0.0035959786653518675,0.0005164684720220975,-0.023415147749823517
1783169489538126000,0.7321259765625,-0.010931143859028816,-0.030519225867674683,-0.013311061265505849
1783169489548195000,0.742195068359375,-0.020659926190972327,-0.032171048195310865,-0.002784525285148993
1783169489558265000,0.75226513671875,-0.004200958821177482,-0.02859237685778644,-0.02036590254730545
1783169489568334000,0.762333984375,-0.017519874599575994,-0.03294338884125463,-0.024638593164132905
1783169489578403800,0.77240380859375,-0.005550619864463806,-0.01853401094502769,-0.01588629118152894
1783169489588473000,0.78247314453125,-0.004953823015093803,-0.01618878582601901,0.010059845483792015
1783169489598542000,0.7925419921875,-0.003159340813755989,-0.014598692206537816,0.011352250781352631
1783169489608612000,0.802612060546875,-0.012585340806841849,-0.0051542797739268275,0.00044875754765234886
1783169489618680800,0.812680908203125,-0.01886953564286232,-0.0032416647853679022,0.001913295408571139
1783169489628750000,0.82275,0.0001344400346279144,0.01579093191511929,-0.007610383672174066
1783169489638820000,0.832820068359375,-0.004203296908736229,0.008960334693116601,-0.0016380540971877053
1783169489648889000,0.84288916015625,-0.012577742022275924,0.013333241131273097,-0.011730221814848481
1783169489658959000,0.852958984375,-0.020204583638906478,0.00768459968585521,0.0034815585054457187
1783169489669028000,0.863028076171875,-0.0022498247534036633,0.009771023171627893,-0.0158864327454241
1783169489679097000,0.87309716796875,-0.009284545695781707,0.023218403618305454,0.01790114270185586
1783169489689167000,0.8831669921875,-0.02320084284543991,0.026565599720936733,0.007213086883700453
1783169489699236000,0.893236083984375,-0.03232873667478561,0.020087811691709794,0.0008840710918419062
1783169489709305000,0.90330517578125,-0.0029991818159818646,0.04611786378081888,0.000369148406223394
1783169489719375000,0.913375,0.012262100201845169,0.0379252118248376,0.004161005836701951
1783169489729444000,0.923444091796875,-0.0007557868033647537,0.017539453799591865,0.02092803450867068
1783169489739513000,0.93351318359375,-0.015572832185029983,0.014682897607982158,0.004934150200244039
1783169489749583000,0.9435830078125,-0.0015004676908254623,0.0001174067014362663,0.00022368008750490843
1783169489759652000,0.953652099609375,-0.014530629655718802,-0.005219049822539091,0.0022400888106785715
1783169489769721000,0.96372119140625,-0.014537643918395042,-0.017754585254460106,-0.011980890373978764
1783169489779791000,0.973791015625,-0.006160276195406913,-0.023431064554874318,0.006738226780411787
1783169489789860000,0.983860107421875,-0.021127543702721595,-0.025252277216222134,-0.00812863082604017
1783169489799930000,0.99393017578125,-0.01559212140738964,-0.014882578048680442,-0.016971323638991453
1783169489809999000,1.0039990234375,-0.020084172129631043,-0.01636751024365658,-0.01960127941693645
1783169489820068000,1.014068115234375,-0.024725275933742522,-0.0242493563845288,-0.008013863606262021
1783169489830137900,1.024137939453125,-0.02741758375763893,-0.005056904363655485,-0.014099110937234944
1783169489840207000,1.03420703125,-0.0012310030996799469,0.017336200012185145,-0.01591422493464779
1783169489850276000,1.044276123046875,0.00819908854663372,0.018680554692691656,-0.016986831735377197
1783169489860346000,1.05434619140625,-0.004819382980465889,-0.0003214208239573054,-0.005804969084868207
1783169489870414800,1.064414794921875,-0.016937106275558472,0.0053489209966151975,-0.0013872850733576342
1783169489880485000,1.074485107421875,-0.01633154159784317,0.0030615635446854866,0.0025014020614093167
1783169489890553900,1.084553955078125,-0.0037526305317878723,0.006248465935513377,-0.006073479261365719
1783169489900623000,1.094623046875,-0.022152795097231864,0.009928033514379058,-0.0006167482254328206
1783169489910693000,1.104693115234375,-0.014517185652256012,0.008675008095847443,-0.000752973791770637
1783169489920762000,1.11476220703125,-0.025290508601069447,0.0026236470514559187,-0.012535889341658913
1783169489930830800,1.124830810546875,-0.013618775507807731,0.019195182834076695,-0.016931224524043498
1783169489940901000,1.134901123046875,-0.011224573847651482,0.00854129186371574,0.002780766992061399
1783169489950970000,1.14497021484375,-0.019756839871406553,0.016668911192892117,-0.005408215719088912
1783169489961039000,1.1550390625,-0.00748889445066452,0.020691129613411612,-0.003832678064634092
1783169489971109000,1.165109130859375,-0.0019511340677738189,0.008668121697334573,0.016167080884287133
1783169489981178000,1.17517822265625,-0.01272562606036663,0.0016917958617093973,0.03192322004723828
1783169489991248100,1.185248046875,-0.01362403620481491,-0.00910963208687026,0.01576357811731286
1783169490001317000,1.195317138671875,-0.002099018105864525,-0.0035797536163358016,0.0001441394447349012
1783169490011386000,1.20538623046875,0.0019429507613182068,0.00014334257700247688,-0.0008444788669701665
1783169490021456100,1.2154560546875,-0.015116905111074446,-0.01060093922370579,0.00874979036510922
1783169490031525000,1.225525146484375,-0.019307927060127256,-0.025733078436530193,-0.004344710106845014
1783169490041594000,1.235593994140625,-0.007639701098203658,-0.007352787615335546,-0.012286951515311374
1783169490051664100,1.2456640625,0.005073650002479553,0.00036561844199895855,-0.013628716946509667
1783169490061733000,1.255733154296875,0.01045475851893425,-0.00994318770102691,-0.0017677585911937057
1783169490071802000,1.265802001953125,-0.008251110994815826,-0.011776220947620458,0.0038929112187353894
1783169490081872000,1.275871826171875,-0.0006190086811780929,0.020359728534845634,0.014911231037718242
1783169490091941000,1.285941162109375,0.019731705430150032,0.017428670918475834,0.002441853893897496
1783169490102011000,1.296010986328125,-0.019325462716817853,-0.00454953936340753,0.010342808877327478
1783169490112080100,1.306080078125,-0.012738485541939735,0.006996683637064415,0.0047498568416340274
1783169490122148900,1.31614892578125,0.004921089789271354,0.01392878902176162,-0.02140399515707977
1783169490132219100,1.32621923828125,0.004473930543661117,-0.00027368867511395363,-0.0009996374626411125
1783169490142288000,1.336287841796875,-0.015127426505088805,0.013864178803353569,0.014464364053052849
1783169490152357000,1.346357177734375,-0.01976560769975185,0.007026439454511273,-0.004654310345556587
1783169490162427000,1.356427001953125,-0.03877367503046989,-0.015498807967593892,-0.010835958122555165
1783169490172496100,1.36649609375,-0.0169271694034338,0.011583926945645362,0.013140120578813365
1783169490182564900,1.37656494140625,0.00012976385951042174,-0.0018850397117552346,0.016750351531803608
1783169490192635100,1.38663525390625,-0.0009182838886976242,-0.0072058945245109494,0.006198566945758648
1783169490202704000,1.396703857421875,0.0052186114311218255,0.012608497920143418,0.017874441924598066
1783169490212774100,1.406774169921875,-0.011540800189971924,0.017342485905787908,0.001765931960288435
1783169490222843100,1.416843017578125,-0.012291910818219185,-0.011510962174134328,-0.0080578534450382
1783169490232912100,1.426912109375,-0.014834581038355827,-0.018700992409233,-0.01376800211961381
1783169490242982100,1.436982177734375,-0.012439210334420204,0.0013255495153367519,-0.006470935880043544
1783169490253051100,1.447051025390625,-0.030098785665631293,-0.005898099861573428,-0.01946674805076327
1783169490263120100,1.4571201171875,-0.00017360300123691558,-0.0022338280332507565,-0.004558375690411776
1783169490273190100,1.467190185546875,-0.004962006321549415,-0.011119158978108315,0.0026586841155076396
1783169490283259100,1.477259033203125,-0.014541735571622848,-0.013339122882788068,0.012217055483721196
1783169490293328100,1.487328125,-0.01170037466585636,-0.008563862171838991,-0.015075509088183753
1783169490303398100,1.497398193359375,-0.012297171515226364,0.0013835724460426718,-0.01346980462432839
1783169490313467100,1.507467041015625,-0.01154839897453785,0.007792631204170174,-0.014102508470718748
1783169490323537200,1.517537109375,-0.011398761370778084,0.018026700743706894,0.009453705417341552
1783169490333606000,1.52760595703125,-0.02172083342075348,0.021216290565254165,-0.003386980123748071
1783169490343675100,1.537675048828125,-0.028604163193702695,0.005672200417518616,0.013003525119717233
1783169490353745000,1.547744873046875,-0.009600772038102149,-0.011309151425142772,0.007619512260123156
1783169490363814100,1.557814208984375,-0.011097732597589493,0.007892721444624476,-0.02084177643074654
1783169490373883100,1.567883056640625,-0.0016688099950551987,0.015300063675234558,0.012251158682722597
1783169490383953200,1.577953125,-0.009000468057394026,0.01637335317926481,0.0016530461703427135
1783169490394022000,1.58802197265625,-0.019175240591168402,-0.002409919819096103,-0.0036059383703628553
1783169490404091100,1.598091064453125,-0.017382511955499648,-0.0035120769412955266,-0.0023688297568820417
1783169490414161000,1.608160888671875,-0.014390344402194022,0.004354535097826738,0.01974834147111978
1783169490424230100,1.618230224609375,-0.013495441389083861,-0.005813851077645086,0.00018211966783273964
1783169490434299000,1.628298828125,-0.031004794594645498,-0.007461526953126303,0.006418246711581014
1783169490444369200,1.638369140625,-0.023673721054196357,0.007411303736385889,0.00539030103648547
1783169490454438000,1.64843798828125,0.005650573107600212,0.00536423501346726,-0.003426289220829494
1783169490464508200,1.658508056640625,-0.01769581568837166,0.0038424277070909737,0.0028637188680469988
1783169490474577000,1.668576904296875,-0.020839958932995794,0.007949063874897546,0.006943261532951146
1783169490484646100,1.678646240234375,-0.008422375908493995,-0.004055673165549524,0.0029243995467200874
1783169490494716200,1.688716064453125,-0.006481178712844848,-0.00835974530132953,-0.024919191070646045
1783169490504785200,1.69878515625,-0.011420388680696487,-0.011464839743776246,-0.010679726381227373
1783169490514854000,1.70885400390625,-0.013217793491482733,0.001971249840618111,-0.00031462347370106724
1783169490524924700,1.718924560546875,-0.003193243083357811,-0.021661481616063974,0.00471399094380904
1783169490534994000,1.728993896484375,-0.002446224108338356,-0.03124569067843258,-0.0008036627993918955
1783169490545062700,1.739062744140625,-0.020254852521419522,-0.006917127011273987,-0.001582067859941162
1783169490555133000,1.7491328125,-0.008882979157567023,-0.007612849623896181,0.010899862804776056
1783169490565201700,1.75920166015625,-0.0011035773277282715,-0.002382173295645043,0.005831551131117157
1783169490575272000,1.76927197265625,-0.016515081471204757,0.005629502920107916,0.0022238454953534526
1783169490585340700,1.779340576171875,-0.01651449694931507,0.009204717358644119,0.011236803141562267
1783169490595410000,1.789409912109375,-0.008882979157567023,0.0024378193228854796,0.014269905493455007
1783169490605479700,1.799479736328125,-0.0019990648627281186,0.007859497311746235,0.0073102362483972675
1783169490615549000,1.809548828125,-0.015165420427918434,0.0021809950176044364,0.021640950284688733
1783169490625617700,1.81961767578125,-0.006336801806092262,-0.0008149011460365727,0.011548773433873429
1783169490635688000,1.82968798828125,-0.024593173986673354,-0.002394500770966988,0.007220388840744271
1783169490645756700,1.839756591796875,-0.006487023931741714,-0.006923654933471698,0.005349804629315622
1783169490655826000,1.849825927734375,-0.017261515924334524,-0.003863319798070006,0.0019039978572633117
1783169490665895700,1.859895751953125,-0.019057167169451713,0.015283610297355334,0.010376706580352037
1783169490675965000,1.86996484375,-0.012474866169691085,0.007964820849744137,0.0034379750920459627
1783169490686033700,1.88003369140625,-0.010380524238944052,0.014128357581316957,0.0022230691772187126
1783169490696104000,1.89010400390625,-0.0011053308933973312,-0.0077974443766055624,0.016257910106051713
1783169490706172700,1.900172607421875,0.005927051961421966,0.0012962092564208433,0.007307172075053677
1783169490716242700,1.91024267578125,-0.009486790269613266,-0.00856850409762701,-0.0010138577842386438
1783169490726312000,1.92031201171875,-0.02923895396590233,-0.003731295482814312,-0.000027431429619900882
1783169490736381000,1.930380859375,-0.016371289086341858,-0.010427802013349719,0.002954379126452841
1783169490746451000,1.940450927734375,-0.003953706061840057,-0.021148559091286732,-0.0108755138148088
1783169490756519700,1.950519775390625,-0.02116261501610279,-0.020575675123755355,-0.009297450843127443
1783169490766589000,1.9605888671875,0.0032271453529596327,-0.010415803331590723,-0.0037578135969815775
1783169490776658700,1.97065869140625,-0.0036567689418792724,-0.01394523326648632,-0.0055709274335531515
1783169490786728000,1.98072802734375,-0.013831541475653648,-0.003889429203572217,-0.0010883203930919989
1783169490796796700,1.990796630859375,-0.028046529310941693,0.006864549723954405,0.02424149730505887
1783169490806867000,2.000866943359375,-0.009342997884750365,0.023825776660616974,0.014453340335539541
1783169490816935700,2.010935791015625,-0.014431260934472083,0.016679845862148795,0.0068571724183857435
1783169490827006000,2.021005859375,-0.002160977426171303,0.010226208176778164,0.0026122283250093457
1783169490837074700,2.03107470703125,-0.014579729494452475,0.007924881565000395,0.012309907699213363
1783169490847144000,2.04114404296875,-0.00350654681622982,-0.0007671393144410104,0.005387392126768827
1783169490857213700,2.051213623046875,-0.006648936495184898,-0.000049880723445676266,0.0028738018706440925
1783169490867283000,2.061282958984375,-0.006349661287665367,-0.0006630145029746927,0.0052872927531599995
1783169490877351700,2.0713515625,-0.0050052609413862225,-0.008045039629237727,0.011856346112280152
1783169490887422000,2.081421875,-0.007402969732880592,0.0005160209474503062,0.00684718988048844
1783169490897490700,2.09149072265625,-0.026558921101689337,-0.0076252478811657054,0.012383845151681453
1783169490907560000,2.101559814453125,0.0017208324432373045,0.0066182696455740365,0.0007225969198159873
1783169490917629700,2.111629638671875,-0.0038163434177637097,0.004446074422355741,0.001697214105632156
1783169490927699000,2.121698974609375,-0.010549451065063477,0.0022560969472746363,0.023858667433355
1783169490937768700,2.131768798828125,-0.009950316128134728,0.005626514095289166,0.01424853391186334
1783169490947838000,2.141837890625,-0.012045242580771446,-0.0010835551697178742,0.013488965982524677
1783169490957906700,2.15190673828125,-0.0032160394370555874,0.0018926795955165289,-0.0052205933256540445
1783169490967976700,2.161976806640625,0.0017225860089063643,0.0035440110160969195,0.0037553613449912517
1783169490978045700,2.172045654296875,-0.011146247914433478,-0.016139820701314603,-0.006627062590094283
1783169490988115000,2.182114990234375,-0.001869301003217697,0.0014203105601249262,-0.010396096267411484
1783169490998185000,2.19218505859375,-0.004264087185263633,0.003920794739504345,-0.01298583876597695
1783169491008253700,2.202253662109375,-0.004116203147172927,0.008606555102672428,-0.0067924366191029545
1783169491018322700,2.21232275390625,-0.005464695146679878,0.013785768388456198,0.0003190850196871906
1783169491028392700,2.222392822265625,-0.005465864190459251,0.026558414211613125,-0.0012111202222760767
1783169491038462000,2.2324619140625,-0.0026227497190237045,0.038818893278529866,0.006185839894926175
1783169491048531000,2.242531005859375,0.005606149443984031,0.01964148127987282,0.014048042903700843
1783169491058601000,2.25260107421875,-0.011750643548369407,0.035868039549724194,-0.004912449825089425
1783169491068669700,2.262669677734375,-0.01638824022114277,0.02416639080881141,-0.0007900452659931034
1783169491078740000,2.272739990234375,-0.007558452555537223,0.012276973543991335,-0.0023516959589906035
1783169491088808700,2.28280859375,-0.0065104048073291775,0.0185725094746449,0.004065906865196302
1783169491098878000,2.2928779296875,-0.010102291819453239,0.002251103395037353,0.003114104299386963
1783169491108947700,2.30294775390625,-0.009804770177602767,-0.0034171925989212467,0.002902288179611787
1783169491119017000,2.313016845703125,-0.019383330383896828,0.006124608943692874,-0.015875340529251842
1783169491129085700,2.323085693359375,-0.011304068824648857,-0.010536513951676898,-0.002156538713071495
1783169491139156000,2.333156005859375,-0.025669863307476042,-0.0041112004617811174,0.0016768745705019682
1783169491149224700,2.343224609375,-0.0008300210833549499,-0.014761399354424793,-0.012290029388386756
1783169491159294000,2.3532939453125,-0.008908113598823547,-0.01352659457917325,-0.010039802776183932
1783169491169363700,2.36336376953125,-0.02207622272968292,-0.019384739172982515,-0.0011517638510093091
1783169491179433000,2.373432861328125,-0.009956161347031593,-0.010237510455504525,-0.0016463424349203704
1783169491189502700,2.383502685546875,-0.009358195453882216,-0.028576455486158375,0.005878527511423454
1783169491199572000,2.393572021484375,-0.0193844994276762,-0.017100713039166292,0.013594864909257738
1783169491209640700,2.403640625,-0.02806289592385292,-0.01704455327198375,-0.002156566112535074
1783169491219710700,2.413710693359375,-0.014444704937934875,-0.0038298193872673436,-0.0052335350056178865
1783169491229779700,2.42377978515625,0.0036620296388864514,-0.0009559353182325139,-0.015391876994399353
1783169491239849000,2.433848876953125,0.001866378393769264,0.006796117280377075,0.0009622326282784342
1783169491249918700,2.443918701171875,0.0032137013494968414,0.013118783246551174,0.013009137443173675
1783169491259987700,2.45398779296875,-0.0009755670338869094,0.017290497706935273,0.009768191893724723
1783169491270056700,2.464056640625,-0.00516483541727066,0.016778024990018455,0.00964444678304717
1783169491280126700,2.474126708984375,-0.017735563176870344,0.019535710217303128,-0.00072106254985556
1783169491290195700,2.48419580078125,-0.001723170530796051,0.0223632275440963,0.019188447132613508
1783169491300265700,2.494265625,-0.011451368340849876,0.029000580916053148,0.0004813903087750077
1783169491310335000,2.5043349609375,-0.02177694752216339,-0.017255937850207556,-0.00228369049038738
1783169491320403700,2.51440380859375,-0.00935761093199253,-0.00713418556174729,-0.0014215572357177734
1783169491330474000,2.524473876953125,-0.0012765958070755003,-0.03173420028116088,0.00971574018727988
1783169491340542700,2.534542724609375,0.005157236632704735,-0.01080029772070702,-0.004473218157608062
1783169491350612000,2.544612060546875,-0.007711597290635109,-0.012043959372560493,-0.0012160795251838863
1783169491360681700,2.554681640625,-0.0060655836492776866,-0.011758534593880175,-0.015256688041100277
1783169491370751000,2.5647509765625,-0.01923427730202675,-0.0011312644856749101,0.00672881506467238
1783169491380819700,2.57481982421875,-0.012054010409116744,0.009866263707028701,0.006890764160733669
1783169491390890000,2.584889892578125,-0.0023269816428422925,0.010861480722879058,-0.00044207207853905856
1783169491400958700,2.594958740234375,0.01817453911602497,0.010329159377887845,-0.007605607032356783
1783169491411028000,2.605028076171875,-0.007860650372505187,0.012577933818520978,-0.00446716287615709
1783169491421097700,2.61509765625,-0.00845920078754425,0.013940952100302093,-0.005673022401425987
1783169491431167000,2.6251669921875,-0.01938274586200714,0.012754130635643377,0.0033365422778762876
1783169491441236700,2.63523681640625,-0.01459434254169464,-0.004046722674113698,0.0007673950427677481
1783169491451306000,2.645305908203125,-0.0011263736814260481,-0.00128476084722206,0.010880792778125032
1783169491461374700,2.655374755859375,-0.010404489636421203,0.001357348876108881,0.007856960578076541
1783169491471444700,2.66544482421875,-0.010404489636421203,0.01761069240489742,0.020764199416199697
1783169491481513700,2.675513671875,-0.010254852032661438,0.013040409364271909,0.004685226073628292
1783169491491583000,2.6855830078125,0.00021978023052215574,-0.00286883800115902,-0.01209155680737458
1783169491501652700,2.69565283203125,0.00964694926738739,-0.007007586340280249,-0.006311703897453844
1783169491511721700,2.7057216796875,-0.015191139391064644,0.006774366672872565,-0.01585378628456965
1783169491521790700,2.715790771484375,-0.0023228899896144866,0.001888969251490198,-0.005120722280908376
1783169491531860700,2.72586083984375,-0.008607669347524643,0.006352273369859903,0.0014178948407527058
1783169491541930000,2.735929931640625,-0.004119710278511047,-0.008520470554684289,-0.018435135414125395
1783169491552000000,2.746,-0.005317980152368545,-0.012235883481777272,-0.004281339714163914
1783169491562069000,2.756069091796875,-0.02357376781105995,-0.002363541660411283,0.0022024054151028394
1783169491572137700,2.7661376953125,-0.027165070301294326,-0.02392190539529547,0.0038765857050195333
1783169491582208000,2.7762080078125,-0.006663549542427063,-0.013829449983267112,-0.01113740702085197
1783169491592277000,2.786277099609375,-0.00412087932229042,0.004035849653650075,-0.008383349939202889
1783169491602346000,2.796345947265625,-0.008311316749453544,-0.0029864501985721287,0.002616292578773573
1783169491612416000,2.806416015625,-0.015194062000513075,0.0056368185768835245,-0.0017186313529964534
1783169491622485000,2.816485107421875,0.012341010656952858,0.0033908662809990346,-0.004218805005121976
1783169491632554000,2.826553955078125,0.006953472399711609,0.004458102786866948,-0.0009019355420954525
1783169491642624000,2.8366240234375,-0.023572598767280576,0.02785028521963395,0.007465148248896002
1783169491652693000,2.84669287109375,-0.007111877831816673,0.01179991691703908,-0.011678126301430164
1783169491662762000,2.856761962890625,-0.010403905114531516,0.016956537061813288,0.004174573137750849
1783169491672832000,2.86683203125,-0.01653846234679222,0.00508313478345517,0.01888940938711166
1783169491682901000,2.87690087890625,-0.016539046868681906,0.011923342367308213,-0.010449159895209595
1783169491692971000,2.886970947265625,-0.0033715222597122192,0.011345638377475552,-0.002108105594618246
1783169491703040000,2.8970400390625,-0.01429506733417511,-0.016506254277355036,0.004610270274430513
1783169491713109000,2.90710888671875,-0.017587094616889953,-0.01317872642299626,0.001320453215111047
1783169491723178800,2.9171787109375,-0.005617255359888077,-0.013442026134836487,0.00376588273900561
1783169491733248000,2.927248046875,-0.000678045392036438,-0.006551965227001346,0.002270931473514065
1783169491743317000,2.93731689453125,-0.012950666987895964,-0.0022601771840592847,-0.0029386929335538294
1783169491753387000,2.947386962890625,-0.004721767824888229,0.01315444593168795,-0.007216635114233941
1783169491763455700,2.957455810546875,-0.00457096117734909,-0.004686600613384507,-0.004948470986541361
1783169491773525000,2.96752490234375,-0.007713935378193855,0.008183105526212603,0.01714142407546751
1783169491783594800,2.9775947265625,-0.009810030874609946,0.00027726887168828395,0.012660506668593734
1783169491793664000,2.9876640625,-0.01818973668515682,-0.013123726566438563,-0.007435712091857567
1783169491803733800,2.997733642578125,-0.02252981171607971,-0.0002168850205373019,-0.015933536989893762
1783169491813803000,3.007802978515625,-0.011156769308447837,0.009878803528193383,-0.007515755058126523
1783169491823871700,3.017871826171875,0.013234160104393959,-0.011679450608836486,-0.0008771664270199835
1783169491833942000,3.02794189453125,0.002160977426171303,0.004853321782685816,0.00600727759078145
1783169491844010800,3.0380107421875,-0.014299158987402916,0.00040488187330774963,0.017782242729654535
1783169491854080000,3.048080078125,-0.030310382589697836,-0.002908466758648865,0.007316296096425503
1783169491864150000,3.05814990234375,-0.01265372986793518,0.00023918361731339245,-0.0037544754290021955
1783169491874219000,3.068218994140625,0.002760696884989738,-0.0030418108147336168,-0.010561607293738052
1783169491884287700,3.078287841796875,0.0018628712624311446,0.008711906040133909,0.016852953389752654
1783169491894358000,3.08835791015625,-0.027317630514502523,0.0026439021049067374,0.011998617826914413
1783169491904427000,3.098427001953125,-0.007714519900083541,-0.0073647885803831735,0.0042427612694446
1783169491914496000,3.10849609375,-0.006668225717544555,-0.015503506975597702,0.012087848746636883
1783169491924566000,3.11856591796875,-0.011308160477876663,-0.01070765556776896,-0.005696512874867767
1783169491934635000,3.128635009765625,-0.01160802020728588,-0.023884692357177845,-0.000979384692478925
1783169491944705000,3.138705078125,-0.02163315513730049,-0.0055626984613249076,-0.02301820715437643
1783169491954774000,3.14877392578125,-0.020585107389092444,-0.016331404600525273,0.005618333072122186
1783169491964843000,3.158843017578125,-0.011309329521656036,-0.006450349749741144,-0.014554339324869214
1783169491974912800,3.168912841796875,-0.019090484917163846,-0.010473417553631589,-0.009978537575621158
1783169491984982000,3.17898193359375,-0.0015823007553815841,-0.006827964590210467,0.013912616488384082
1783169491995051000,3.189051025390625,-0.020436054307222364,0.009281102496525272,0.0041759887767024335
1783169492005121000,3.19912109375,-0.0077174425095319745,0.0008707823520060628,-0.009852801437256857
1783169492015189800,3.209189697265625,-0.018192659294605253,0.013821632002992554,0.014893864344386384
1783169492025259000,3.219259033203125,-0.010260112729668617,0.011023927575862034,0.0028163999944459646
1783169492035328800,3.229328857421875,-0.00023439327776432036,0.008508734451117925,0.0035398645639419554
1783169492045398000,3.23939794921875,-0.009362287107110023,0.004931154525559396,-0.005463526102900505
1783169492055467800,3.2494677734375,-0.004870820906758308,-0.010712322609731926,-0.004550110185565426
1783169492065537000,3.259537109375,-0.01414776781797409,-0.000624758001952432,0.003708599593816325
1783169492075605800,3.269605712890625,0.0053045361489057535,0.002177791563654318,0.008858913295390083
1783169492085676000,3.279676025390625,-0.013848492610454559,-0.0011695872020674868,-0.008045231425482779
1783169492095744800,3.289744873046875,-0.009808861830830573,-0.0027352427833247928,-0.0012208196323830634
1783169492105814000,3.29981396484375,-0.022379005068540573,-0.006374170107836835,0.005374103386932984
1783169492115883800,3.3098837890625,-0.01220364801287651,0.009843353188899345,-0.026655412879260255
1783169492125953000,3.319953125,-0.000682137045264244,-0.012130016521085052,-0.014175377344107254
1783169492136021800,3.330021728515625,-0.009960837522149085,-0.011098668745928443,0.010282096232613547
1783169492146092000,3.340092041015625,-0.012356208226084709,0.0012767602038569748,-0.0018231329070869833
1783169492156160800,3.350160888671875,-0.02058744547665119,-0.006297109116520733,0.010143135286495089
1783169492166231000,3.36023095703125,-0.011310498565435409,-0.012847914432897232,-0.020359153146110472
1783169492176300000,3.370300048828125,-0.009665069445967674,-0.008908752919640392,-0.004105069831805304
1783169492186369000,3.380369140625,-0.012357961791753767,0.011282267984794453,-0.004107891976553947
1783169492196439000,3.39043896484375,-0.022831425011157987,0.011232592757325618,-0.003581055090855807
1783169492206508000,3.400508056640625,-0.008166355320811272,-0.002398754537687637,-0.009102384928753598
1783169492216577000,3.410576904296875,-0.02582300804257393,-0.0015051392993656917,-0.006595041750324889
1783169492226646800,3.420646728515625,-0.0074181673020124435,0.013793351190001702,0.010671132082818075
1783169492236716000,3.430716064453125,-0.010411503899097441,0.013377810925361699,0.013522028001910075
1783169492246785000,3.440784912109375,-0.009811784440279006,0.014997091823420487,0.0042783714389428495
1783169492256855000,3.45085498046875,-0.00547287845313549,0.006718270837771706,-0.029297159559698773
1783169492266924000,3.460924072265625,-0.016695698735117913,-0.0011454391414998097,-0.004968664391199126
1783169492276994000,3.470994140625,-0.01355389357805252,0.015039812153717502,0.000663605874730274
1783169492287062800,3.481062744140625,-0.00352875864803791,0.0031979329582070928,-0.006792911543138325
1783169492297132000,3.491132080078125,0.0009597849428653717,-0.013564903595834038,0.00860707569248043
1783169492307201800,3.501201904296875,-0.0020335516542196275,-0.013256755528692155,-0.0013668313737958669
1783169492317271000,3.51127099609375,-0.011610358294844627,-0.003565944286691956,0.006560838086623698
1783169492327339800,3.52133984375,-0.02223521268367767,-0.008879732321132905,-0.004543981838878244
1783169492337410000,3.53141015625,-0.026274843463301657,0.008038153230724855,-0.01022594559858553
1783169492347478800,3.541478759765625,-0.024030279406905174,0.007215639600390568,0.0016507720148656517
1783169492357548000,3.551548095703125,-0.010263619861006736,-0.019696291623474096,-0.004075615408457816
1783169492367617800,3.56161767578125,0.004251812225580215,-0.006750515439826995,0.009397869877144693
1783169492377687000,3.57168701171875,-0.012956512206792831,0.00995014716477599,-0.011547723121102898
1783169492387755800,3.581755859375,0.0005132102191448212,0.006415707694622688,-0.016291784976189955
1783169492397826000,3.591825927734375,-0.005471709409356117,0.0055964226344134655,-0.004184226882085204
1783169492407894800,3.601894775390625,-0.004873743516206741,0.009596534254401922,0.0019425580356735735
1783169492417965000,3.611965087890625,-0.005173603245615959,-0.001607818789128214,-0.022709579596621916
1783169492428033800,3.62203369140625,0.001110007068514824,-0.006181341816321947,-0.013819193450734018
1783169492438103000,3.63210302734375,-0.025524317356944083,0.00009747359168250114,-0.01742731007845141
1783169492448173000,3.642173095703125,-0.018043021690845488,0.0011020018585724755,-0.0014374032588209955
1783169492458242000,3.652241943359375,0.0008119009047746658,0.0023600710616912693,0.009815072375908493
1783169492468310800,3.662310791015625,-0.004274608579277992,0.006663814403908327,-0.008685675620334222
1783169492478380800,3.672380859375,-0.023877134671807288,0.0020431551662040874,-0.002557173669524491
1783169492488450000,3.682449951171875,-0.004125555497407913,0.005573731311992742,-0.011434901263238862
1783169492498519000,3.69251904296875,-0.01400222186744213,-0.0001233341187238693,-0.00028962146318517625
1783169492508589000,3.702589111328125,-0.0024789573341608044,0.004278120277193375,0.0021696082571987063
1783169492518658000,3.712657958984375,-0.000682137045264244,0.0005460165102034807,0.0009983999202027916
1783169492528727800,3.722727783203125,-0.004573299264907836,-0.0003784824901493266,-0.005920667886408045
1783169492538796800,3.732796875,-0.008014964151382446,0.015417212365055456,-0.0007222407267894595
1783169492548865800,3.74286572265625,-0.011456629037857055,-0.012132665135897695,0.0045941593898460266
1783169492558935800,3.752935791015625,-0.015645897421240805,-0.018334684414067305,0.005102903496427461
1783169492569004800,3.7630048828125,-0.013850246176123618,-0.009049239102564752,0.00844813140425831
1783169492579073800,3.77307373046875,-0.02342646829485893,-0.0036146970655536277,-0.006756671185977756
1783169492589143800,3.783143798828125,-0.012353285616636275,0.01140006284529809,0.004982354989834129
1783169492599212800,3.793212890625,-0.015345453169941901,0.0009456787856994196,-0.006624971097707748
1783169492609281800,3.80328173828125,-0.011155015742778777,-0.002798476178687997,0.0032245972028467802
1783169492619351800,3.813351806640625,-0.0012789338946342468,0.002756678296998143,-0.009795500025758519
1783169492629420800,3.8234208984375,-0.018188567641377447,0.002741193033498712,-0.0011368676759768276
1783169492639489800,3.83348974609375,-0.005619008925557136,0.0008728007791563868,-0.00658357050823979
1783169492649559800,3.843559814453125,0.003809329155087471,-0.0010517832084093242,0.02002948280032724
1783169492659628800,3.85362890625,-0.016989128723740577,0.004412834306457079,0.012644943773280829
1783169492669698800,3.86369873046875,-0.023572598767280576,0.00046321989784482866,0.0025271986563690004
1783169492679767800,3.873767822265625,-0.013395488145947456,0.02211861883299425,0.009420045176334678
1783169492689836800,3.8838369140625,-0.011600421422719954,0.011633711770968511,-0.002615936385747045
1783169492699906800,3.89390673828125,-0.01384498547911644,0.011360575651703403,0.0063624933697748924
1783169492709975800,3.903975830078125,-0.002920271360874176,0.0039046929880743844,0.014023063726071268
1783169492720044800,3.914044921875,-0.0027706337571144104,0.005053808224271051,-0.0013498985053040087
1783169492730114800,3.92411474609375,-0.01474164205789566,0.0034690506503218784,0.007428003709437326
1783169492740183800,3.934183837890625,-0.004118541234731674,0.009901750578940846,-0.0005907963668461888
1783169492750252800,3.944252685546875,0.003214285871386528,-0.007598309641890228,-0.01308618473475799
1783169492760322800,3.95432275390625,0.000671031129360199,-0.0009076072310563177,-0.002065764290234074
1783169492770391800,3.964391845703125,0.002765373060107231,0.010786502090794965,0.00009130414579994976
1783169492780461800,3.9744619140625,-0.01100245552957058,0.00279615179086104,0.003076037311321124
1783169492790530800,3.98453076171875,-0.01175005902647972,0.009804624047130346,0.022278047178406268
1783169492800599800,3.994599853515625,-0.016388824743032455,0.006025484534329734,0.0066374652530997984
1783169492810669800,4.004669921875,-0.011302315258979796,-0.009450161753385327,0.00459522796892561
1783169492820738800,4.01473876953125,-0.007111877831816673,0.006538110231584869,0.0032962741995695975
1783169492830807800,4.024807861328125,0.0026157354563474656,0.011823635719344019,-0.004604644251242279
1783169492840877800,4.0348779296875,-0.013994038560986518,0.0010762143967673183,-0.00579499568012543
1783169492850946800,4.04494677734375,-0.00995323873758316,-0.0023768943323288112,0.012738878267584368
1783169492861015800,4.055015869140625,-0.02162497183084488,0.0007999136394588277,-0.002663246126193553
1783169492871085800,4.0650859375,-0.006061491996049881,0.007959356940048746,-0.00289889977928251
1783169492881154800,4.07515478515625,-0.0032177930027246474,-0.0015614223641343414,0.0000021599910454824565
1783169492891224800,4.085224853515625,-0.013693594309687614,0.005891903016227297,-0.014277842204738407
1783169492901293800,4.0952939453125,-0.0002256254494190216,-0.003961478376341984,0.014620006705913692
1783169492911362800,4.10536279296875,-0.0032189620465040204,0.0015471289773005992,0.01547279674350284
1783169492921432800,4.115432861328125,0.0014203881919384001,-0.0029855642825830724,-0.007725452286051586
1783169492931501800,4.125501708984375,-0.009801847568154335,0.008451241243374534,0.002059298016829416
1783169492941570800,4.13557080078125,-0.011296470040082931,0.0009555037766811438,0.01294069814973045
1783169492951640800,4.145640869140625,-0.003964811977744102,-0.008670557966304476,0.006648196709668264
1783169492961709800,4.155709716796875,-0.011894435933232307,0.002283889136498328,-0.002241212188685313
1783169492971778800,4.16577880859375,-0.009498480707406998,-0.00040558969278354194,0.006515058149560354
1783169492981848800,4.175848876953125,-0.004111526972055435,-0.0017761610933579503,0.001166043538111262
1783169492991917800,4.185917724609375,-0.02984919481873512,-0.001178647291357629,-0.012437009244179353
1783169493001987600,4.195987548828125,-0.02072071646749973,0.000018944445776287465,-0.018978832103079185
1783169493012056800,4.206056884765625,-0.01024608420431614,0.002025162851787172,-0.00611236823333893
1783169493022125800,4.216125732421875,-0.0186263745367527,-0.005297188526089303,-0.01708655208307318
1783169493032195800,4.22619580078125,-0.017877601996064186,-0.003158532529580407,0.00668641896136105
1783169493042264600,4.2362646484375,-0.026406945410370825,-0.005884779155696742,0.013832874916214495
1783169493052333800,4.246333740234375,-0.022367899152636525,-0.013492445714399217,-0.004420990213449113
1783169493062403800,4.25640380859375,-0.020123335096240043,0.011445988912833854,-0.0027380512283416464
1783169493072472800,4.266472900390625,-0.008750877210497856,0.009213517153030261,0.0029379074822645634
1783169493082541800,4.276541748046875,-0.0009685527712106704,-0.00571282012227457,-0.00803412094300147
1783169493092611800,4.28661181640625,-0.021916648253798483,0.0022626499856472945,-0.009901718612900004
1783169493102680800,4.296680908203125,-0.019672084197402,0.005253433866042178,0.006736231186147779
1783169493112750800,4.306750732421875,-0.02311491812765598,-0.00990553855478065,0.021850346118514424
1783169493122819800,4.31681982421875,-0.015034487524628638,-0.012860732815274969,-0.005674785100249573
1783169493132888800,4.326888916015625,-0.020720131945610044,-0.0028288370676222254,-0.002881478287023492
1783169493142958800,4.336958740234375,-0.025357728618383406,-0.004049604184366762,0.001804492138698697
1783169493153027800,4.34702783203125,-0.005305705192685127,0.010619865403173025,-0.00472027455412317
1783169493163096800,4.357096923828125,-0.005904255607724189,-0.00984715714775957,-0.0040677197963697835
1783169493173166800,4.367166748046875,-0.00949614261984825,0.008402931422507389,-0.011718179750605486
1783169493183235800,4.37723583984375,-0.0036620296388864514,-0.007910631560650654,-0.005655381713458337
1783169493193304800,4.387304931640625,-0.010097615644335747,0.008196239002421498,0.0001970523754833266
1783169493203374800,4.397374755859375,-0.006056815820932388,0.003385285923583433,-0.01453417788625229
1783169493213443800,4.40744384765625,-0.012789923468232154,-0.0019910254034562966,0.003918470351677388
1783169493223513900,4.417513916015625,-0.007702244940400123,0.01126114528166363,0.009002833544416352
1783169493233582800,4.427582763671875,-0.01144376955628395,0.00522150664110668,0.017353062098729423
1783169493243651800,4.43765185546875,-0.006056231299042702,0.009030107427120675,0.016467940694116986
1783169493253721600,4.4477216796875,0.00815992558002472,-0.0062004940413637084,0.001886352602718398
1783169493263790800,4.457790771484375,-0.008749123644828796,-0.0058471048932755365,0.0046553560917498545
1783169493273859800,4.46785986328125,-0.0030628947019577025,-0.01711448126961477,0.00442272551280912
1783169493283929900,4.477929931640625,-0.021468319964408872,-0.004596986101171933,-0.005753243464208207
1783169493293998600,4.48799853515625,-0.012490063738822936,-0.0048259542851475995,-0.004578144403384067
1783169493304067800,4.49806787109375,-0.016830138769745824,0.0010007699738023802,0.008721952510112896
1783169493314137600,4.5081376953125,-0.021468319964408872,0.0004105444291140884,-0.002338142357673496
1783169493324206800,4.518206787109375,-0.016381810480356217,-0.018946829529618844,-0.0077895852971356355
1783169493334276900,4.52827685546875,-0.014286884027719497,-0.014848248804104514,-0.0072686575624160464
1783169493344345900,4.538345947265625,-0.012043489015102386,0.004843731970433146,-0.000008000643365085124
1783169493354414600,4.54841455078125,-0.012043489015102386,-0.005542199095990508,0.005755156860081478
1783169493364484900,4.55848486328125,-0.006805588361620903,0.000865558187616989,0.007806550131668337
1783169493374553900,4.568553955078125,-0.014885434442758558,0.00823790445337072,0.0014164335360284893
1783169493384622800,4.578622802734375,-0.017427520141005515,0.009447385274409316,-0.002137244924134575
1783169493394692900,4.58869287109375,-0.010393968242406845,0.006532945432700216,-0.002211036246130243
1783169493404761900,4.598761962890625,0.00412087932229042,-0.013079659095848909,-0.00822722322915215
1783169493414830800,4.608830810546875,0.007712766334414482,0.00793032264180947,0.009249899074085988
1783169493424900900,4.61890087890625,-0.0033610008656978605,0.02225821453335229,0.010361641441960818
1783169493434969900,4.628969970703125,-0.011741291198134421,0.010646609562914819,0.004009637500159442
1783169493445039900,4.639039794921875,-0.007553191858530044,-0.0033928390423767266,0.0002365715351188555
1783169493455108900,4.64910888671875,0.0008259294301271438,0.007560713011282496,0.001210202340246178
1783169493465177900,4.659177734375,-0.01847732145488262,0.005297238758439198,-0.001483123830379918
1783169493475247900,4.669247802734375,-0.019525369203090667,-0.008371696034027263,-0.0004488808452384546
1783169493485316900,4.67931689453125,-0.01294131463766098,-0.00042283765510655935,0.002512978334771469
1783169493495385900,4.6893857421875,-0.009051905983686447,-0.013790177418803796,0.0031483855949016285
1783169493505455600,4.69945556640625,-0.015037994655966757,-0.006268714139098301,-0.0070980639355955645
1783169493515524900,4.70952490234375,-0.0099514851719141,-0.007717214180668816,0.001842093335883692
1783169493525593900,4.71959375,-0.009950316128134728,-0.0010242193480487912,-0.007001590424333699
1783169493535663600,4.72966357421875,-0.0014215572357177734,0.002625631229276769,0.005278497525351122
1783169493545732600,4.739732666015625,0.0021709142982959746,0.003954217518493533,0.00896369797727093
1783169493555802600,4.749802734375,-0.009050736939907074,0.00005849785474129021,-0.00281876548146829
1783169493565871600,4.75987158203125,-0.020721885511279105,0.005771546305879019,0.00005627849819138646
1783169493575940600,4.769940673828125,-0.01578326006531715,0.002765679020783864,0.0029441408602287993
1783169493586010600,4.7800107421875,-0.01682955424785614,0.0007727790373610332,-0.007023318198951892
1783169493596079600,4.79007958984375,-0.016979191851615904,0.004425287362653762,0.0091660156163387
1783169493606148600,4.800148681640625,-0.011890344280004501,-0.0021358384183375163,-0.0033135084621608254
1783169493616218600,4.810218505859375,-0.02416121231019497,0.0012868523396085947,-0.0028959589035250245
1783169493626287600,4.82028759765625,-0.008000935626029968,0.009660073610441758,-0.005604007719247602
1783169493636356600,4.830356689453125,0.0023240590333938596,0.010409220610465853,-0.016672514222352764
1783169493646426600,4.840426513671875,-0.00036941783428192136,-0.0004882356080925092,-0.00976384451217018
1783169493656495600,4.85049560546875,-0.01742693561911583,-0.0012945378891425206,-0.008655061286361888
1783169493666565600,4.860565673828125,-0.01323708271384239,0.007779762589442543,0.015040373842720873
1783169493676634600,4.870634521484375,-0.0050075990289449685,0.002539140255912207,0.002489346297434531
1783169493686703600,4.88070361328125,-0.013386720317602158,-0.0006589799319626763,-0.008146682505961508
1783169493696773600,4.890773681640625,-0.02176467256247997,0.0141875746719772,0.0015414983875351026
1783169493706842600,4.900842529296875,-0.010840542966127395,-0.003485764323105104,0.0050899937825044615
1783169493716911600,4.91091162109375,-0.004854454293847084,-0.010292236317426432,0.0006708210668060928
1783169493726981600,4.920981689453125,-0.010540098714828491,0.00864888270732481,0.009285175883444026
1783169493737050600,4.931050537109375,0.0009814122527837753,0.008125178493629209,0.004676686574146151
1783169493747119600,4.94111962890625,-0.011439093381166457,0.017024825658206826,0.0016776600217912345
1783169493757189600,4.951189697265625,-0.020568156254291533,0.008015183347091078,0.01846327466322109
1783169493767258600,4.961258544921875,-0.014881342789530754,-0.0007907439523143693,-0.0073118254172848535
1783169493777328400,4.971328369140625,-0.007101356437802314,0.001201836370700039,0.012670146713196299
1783169493787397600,4.981397705078125,0.003973579806089401,-0.00167643161250744,0.0033737324831075964
1783169493797466600,4.991466552734375,-0.008146481576561927,-0.0064468654512893405,0.0025122202829457817
1783169493807536600,5.00153662109375,0.00038169279396533964,-0.005927622783579863,0.0012467851907014846
1783169493817605400,5.01160546875,-0.0018634557843208311,-0.002605355626228265,0.011454706508829259
1783169493827674600,5.021674560546875,-0.02790039883852005,-0.0034620409542229025,-0.0034790697208372874
1783169493837744600,5.03174462890625,-0.010991349613666533,-0.003405470195086673,0.004242975898575968
1783169493847813600,5.041813720703125,-0.007849544456601142,-0.0026784482619026675,-0.0052503902422962705
1783169493857882600,5.051882568359375,-0.012038228318095206,0.013506268743774853,-0.009073766189045273
1783169493867952600,5.06195263671875,-0.016976853764057158,0.006071241638506762,0.005143221807084046
1783169493878021600,5.072021728515625,-0.025655250260233877,-0.014895855372073129,0.014523683891701512
1783169493888091600,5.082091552734375,-0.015329086557030677,-0.010015147825540043,-0.0021690420016180724
1783169493898160600,5.09216064453125,-0.009642273092269896,0.0009147744740708731,-0.008503880179487168
1783169493908229600,5.102229736328125,-0.0027601123631000517,-0.009816903573391027,-0.0029292264188872648
1783169493918299600,5.112299560546875,-0.017874094864726065,0.0006012127295834944,-0.002258565182285383
1783169493928368600,5.12236865234375,-0.016526771908998487,0.00022161599458195267,-0.0011813781045610084
1783169493938437600,5.132437744140625,-0.016077274575829505,-0.0010505936150322667,0.01327559722648002
1783169493948507600,5.142507568359375,-0.0051531449794769285,-0.006687133630702737,-0.014872807856625876
1783169493958576600,5.15257666015625,-0.01637596526145935,-0.0019803236296400428,-0.002104899857379496
1783169493968645600,5.162645751953125,-0.01817103198468685,-0.0014433649254380725,-0.01685894017254468
1783169493978715600,5.172715576171875,-0.01802197890281677,0.013977808945393189,0.003043984505510889
1783169493988784600,5.18278466796875,-0.019667992544174194,0.0056792101136175915,-0.0018758814410539343
1783169493998854700,5.192854736328125,-0.012185527834296226,-0.01325040798629634,0.00995817064102739
1783169494008923600,5.202923583984375,-0.025654081216454506,0.009974738183338194,0.002281069275038317
1783169494018992600,5.21299267578125,-0.011887421670556068,0.00904219287384767,-0.0008310394300846383
1783169494029062400,5.2230625,-0.004703063124418258,0.004260484155802987,0.013670592460012993
1783169494039131600,5.233131591796875,-0.010088263294100761,0.0010433989725541323,0.00530717563056387
1783169494049200600,5.24320068359375,-0.014427169281244278,-0.011085475904215127,-0.007765081043541431
1783169494059270700,5.253270751953125,-0.007844283759593963,-0.0024723586300155146,0.006915364312450401
1783169494069339400,5.26333935546875,-0.01996492966413498,-0.0032238208847120402,0.01574741243380122
1783169494079408600,5.27340869140625,-0.025799627166986465,-0.004628851677314378,0.008072557823825627
1783169494089478400,5.283478515625,-0.019814707538485524,0.014709027563082053,-0.0036353927937103434
1783169494099547600,5.293547607421875,-0.011285948646068572,-0.0024437353237299246,0.010693750340002589
1783169494109617700,5.30361767578125,-0.020713117682933806,-0.004381219892064109,-0.0005346594325499608
1783169494119686700,5.313686767578125,-0.01996609870791435,-0.005357193351327442,0.004063176051992923
1783169494129755400,5.32375537109375,-0.020264789393544196,-0.009271256955945864,-0.00010682594191748648
1783169494139825700,5.33382568359375,-0.0084440032184124,-0.009350025847158393,0.005880043615074828
1783169494149894700,5.343894775390625,-0.01158756194114685,-0.009244378082174808,0.009502184201567433
1783169494159963600,5.353963623046875,0.00038344635963439937,0.006476438605645671,0.012742654826981014
1783169494170033700,5.36403369140625,-0.00724924047589302,0.0005867914785863831,0.033022025301726536
1783169494180102700,5.3741025390625,-0.009045476242899895,0.015268268881039692,0.017788494373927825
1783169494190171600,5.384171630859375,-0.0066512745827436446,0.00723254963599611,-0.01038816868928261
1783169494200241700,5.39424169921875,-0.021465981876850126,-0.011040102392528206,-0.00400894338041544
1783169494210310700,5.404310546875,-0.015330840122699736,-0.01128358772562351,-0.0035365537954261525
1783169494220380700,5.414380615234375,-0.013684826481342316,0.0017355642214883118,0.003896473149000667
1783169494230449700,5.42444970703125,-0.01727612897157669,0.0011127926806453615,0.0035956224723253396
1783169494240518700,5.4345185546875,0.006216390296816826,0.006290848339092918,0.018481020382465792
1783169494250588700,5.444588623046875,-0.005007014507055282,-0.0008872905288124457,-0.013466799816489218
1783169494260657700,5.45465771484375,-0.019819968235492706,-0.00020029464534018188,-0.004725978209124878
1783169494270726700,5.4647265625,-0.01637713430523872,0.0032853555133333426,0.016399131507915443
1783169494280796400,5.47479638671875,-0.01637596526145935,-0.0013445099441334605,-0.011600841547828167
1783169494290865700,5.48486572265625,-0.0056026423126459115,-0.0019757113866042345,-0.0010568429760169236
1783169494300934700,5.4949345703125,-0.008746201035380362,-0.012078263500961474,-0.006725408398034051
1783169494311004700,5.505004638671875,-0.01832300767600536,-0.02316444265807513,-0.005859936975385062
1783169494321073400,5.515073486328125,-0.012786416336894035,0.002341950883110985,0.015820454837125724
1783169494331143700,5.525143798828125,-0.007847206369042396,-0.0016197695218259467,-0.003007703049154952
1783169494341212400,5.53521240234375,-0.018471476235985756,0.01081362299316097,-0.0018239000920671968
1783169494351281700,5.54528173828125,-0.010840542966127395,0.005264044308313168,0.003499628451676108
1783169494361351400,5.555351318359375,0.008163432711362838,-0.007858111355546862,0.00546143461051397
1783169494371420700,5.565420654296875,-0.009942132821679115,0.005298092708387412,0.0044403251015814015
1783169494381489400,5.575489501953125,-0.02011807439923286,0.014260776905505918,0.004617599630937911
1783169494391559700,5.5855595703125,-0.00590250204205513,-0.008212139824451879,-0.0009473410198232159
1783169494401628400,5.59562841796875,-0.018322423154115676,-0.006517044610669836,0.012046114797028712
1783169494411697700,5.60569775390625,-0.0027571897536516187,0.0007463157221209258,0.005235585398809053
1783169494421767700,5.615767578125,-0.004852116206288337,0.008333528581261634,0.006175848223874345
1783169494431836700,5.625836669921875,-0.015476386073231697,0.004092310814931988,0.006126131897210143
1783169494441906700,5.63590673828125,-0.02939209870100021,0.004236473092553206,0.01332344125646632
1783169494451975700,5.6459755859375,-0.006496960803866386,0.0027881602806504816,-0.007302861226117238
1783169494462044700,5.656044677734375,-0.00874152486026287,-0.007055092443549074,0.005336365192430094
1783169494472114700,5.66611474609375,-0.0015589198797941208,-0.006089115221914835,0.006429539857152849
1783169494482183700,5.67618359375,0.003379705566167831,-0.002162402198277414,0.0022590857720933854
1783169494492252700,5.686252685546875,0.008766659301519394,0.014534337716456501,-0.004585400694655254
1783169494502322700,5.69632275390625,-0.020862170764803886,-0.001287350096530281,-0.001675162104028277
1783169494512391700,5.7063916015625,-0.007245733344554901,-0.010654751770175061,-0.009045955733512528
1783169494522460700,5.716460693359375,-0.01772095012962818,-0.0142657270752592,-0.002916207107109949
1783169494532530700,5.72653076171875,-0.006348492243885994,-0.013000081920460796,0.0142449674150208
1783169494542600000,5.736599853515625,-0.01832008506655693,0.001502970175165683,-0.002309934609918855
1783169494552669700,5.746669677734375,0.0018815759629011153,0.006336189884738996,-0.008031047636503353
1783169494562739000,5.756739013671875,-0.00006488192975521087,0.005112219314044341,0.0020312272663926705
1783169494572807700,5.7668076171875,-0.008744447469711304,0.011230487565207295,0.009393125203368253
1783169494582878000,5.7768779296875,-0.015628361764550208,-0.00573793629722204,0.01965378135573119
1783169494592946700,5.78694677734375,-0.01637596526145935,-0.02520354727024678,-0.0018235210661543533
1783169494603016000,5.797015869140625,-0.004105681753158569,-0.010468668313277885,0.020192390877613795
1783169494613085700,5.807085693359375,-0.02700140417218208,0.0003241310875630006,-0.008438874952145852
1783169494623155000,5.817155029296875,-0.018172201028466225,-0.0038139002989279105,-0.0037477214612299573
1783169494633225000,5.827224853515625,-0.01308335345685482,-0.013339177681715227,-0.0018423855968285351
1783169494643294000,5.8372939453125,-0.006798574098944664,-0.0059078860366484146,0.005035683479113504
1783169494653362700,5.84736279296875,-0.02490530867576599,-0.0053339723059441894,-0.0027739582253620025
1783169494663433000,5.857432861328125,-0.01488017374575138,0.0024419223925564435,0.006282066811015829
1783169494673502000,5.867501953125,-0.007846621847152709,-0.009061504929093644,0.011108706082752905
1783169494683571000,5.877571044921875,-0.0014127894073724745,-0.007941547288722359,0.004910130003839731
1783169494693641000,5.887640869140625,-0.010541267758607864,0.005142299358476884,0.0028654998331796378
1783169494703710000,5.8977099609375,-0.02146364378929138,0.005807745563844218,0.011964405030058696
1783169494713779000,5.907779052734375,-0.00829670370221138,0.0034646302035311236,0.004320151054323651
1783169494723848700,5.9178486328125,-0.0056026423126459115,0.0033452279078308492,0.0024717604083940386
1783169494733918000,5.92791796875,-0.011736030501127242,0.008807763063465245,0.0033759564062347635
1783169494743987700,5.93798779296875,-0.024904724153876304,0.016244730964070184,-0.0017418112991843373
1783169494754057000,5.948056884765625,-0.010690320840477942,0.0050789746315684165,-0.012775205389712937
1783169494764125700,5.958125732421875,-0.020566402688622473,0.004679371721576899,0.00541991529003717
1783169494774196000,5.968196044921875,-0.0069482117027044295,-0.009009710809774696,-0.0018081545336637644
1783169494784264700,5.9782646484375,-0.00006488192975521087,-0.004887077921815216,0.001363260310376063
1783169494794334000,5.988333984375,-0.02445698038637638,0.01089047848850023,0.01465994142408017
1783169494804403700,5.99840380859375,-0.012635609689354895,-0.00028289032829925415,0.0015345526235178112
1783169494814473000,6.008472900390625,-0.0030582185268402096,-0.007581002314062789,-0.01010748401780147
1783169494824541700,6.018541748046875,-0.01637596526145935,-0.005642572464235126,-0.00014447280487511307
1783169494834612000,6.028612060546875,-0.018471476235985756,0.0012250939487013965,0.00462675561835058
1783169494844680700,6.0386806640625,-0.00889583863914013,0.006379622601089067,0.0018205847569741308
1783169494854751000,6.0487509765625,-0.00769932233095169,0.0014117025619838385,-9.589812252670527e-8
1783169494864819700,6.05881982421875,-0.011887421670556068,-0.004805523418472148,0.011402227402920835
1783169494874889000,6.068888916015625,-0.00006605097353458404,0.007383201019908301,0.0021150833246763793
1783169494884958700,6.078958740234375,-0.008594809865951538,0.011924086719402111,0.00394836316644214
1783169494895028000,6.089028076171875,-0.01443009189069271,-0.0015385164125822483,0.004784640460647642
1783169494905096700,6.0990966796875,-0.01697334663271904,0.00015643267072737216,-0.011480101244989781
1783169494915167000,6.1091669921875,-0.00934241336286068,-0.01416026197336614,0.005683662526449188
1783169494925235700,6.119235595703125,0.013850830698013305,0.005821760389464907,0.019382211572467348
1783169494935305000,6.129304931640625,-0.023557985720038414,0.000296603759820573,-0.02033157101944089
1783169494945375000,6.139375,-0.016374796217679975,-0.0017746952220564706,-0.007539556058822199
1783169494955444000,6.14944384765625,-0.003057634004950523,-0.004468564815376885,0.005693658764078281
1783169494965514000,6.159513916015625,-0.007696984243392944,0.0042277646297123285,0.0027995310580357907
1783169494975582700,6.169582763671875,-0.007995674929022789,0.003104966578283347,0.0063946968726348126
1783169494985652000,6.17965185546875,-0.01921849521100521,0.0026798730340087786,0.002271301366272382
1783169494995721700,6.1897216796875,-0.018919220003485678,-0.005556784743769094,0.0002184330902295187
1783169495005791000,6.199791015625,0.0005342530071735382,-0.003924717429373413,-0.002855960253276862
1783169495015860000,6.20985986328125,-0.018320669588446616,0.005487897925754078,0.0012876149580115452
1783169495025930000,6.219929931640625,-0.025801380732655525,-0.013443889298359863,0.02414718378484249
1783169495035998700,6.229998779296875,-0.014578560450673102,0.0013241064769215882,0.010231818216945975
1783169495046068000,6.24006787109375,-0.019366963770985603,0.007639061777386814,-0.0005808640612987801
1783169495056137700,6.2501376953125,0.0024789573341608044,0.0013856456721201538,0.02046616631769575
1783169495066207000,6.26020703125,-0.0038058220237493514,0.0034761699442751705,0.029115213421802035
1783169495076276700,6.27027685546875,-0.01727437540590763,0.0033854046545922756,0.0052829545047599815
1783169495086346000,6.280345947265625,-0.015926467928290368,-0.008016749683092348,-0.008222072129999288
1783169495096414700,6.290414794921875,0.0015823007553815841,0.0072855767311761155,0.019500791884260252
1783169495106485000,6.300485107421875,-0.002757774275541305,-0.007355806122906506,0.0037186414972180497
1783169495116553700,6.3105537109375,-0.0011123451560735701,0.0032468638335820285,-0.009839238702785223
1783169495126623000,6.320623046875,-0.0023088614642620083,-0.0022316315095871684,0.010240010656556114
1783169495136692700,6.330692626953125,-0.009491466444730758,-0.007997282364219427,-0.008529032887052744
1783169495146762000,6.340761962890625,-0.01173661502301693,0.012141789157269522,-0.002275767478835769
1783169495156831700,6.350831787109375,-0.011886252626776695,0.008234561718814074,0.004330352787929587
1783169495166901000,6.36090087890625,-0.00395487510561943,-0.014958673208905383,0.004864121737913229
1783169495176969700,6.3709697265625,-0.004704232168197631,-0.008478499143058434,0.010506415640935301
1783169495187039700,6.381039794921875,-0.015627777242660523,0.004079419367318041,0.009427032039547338
1783169495197108700,6.391108642578125,-0.0020107553005218504,-0.0065849222151096905,0.0006590027648489922
1783169495207178000,6.401177978515625,-0.005750526350736617,0.007839913545153104,0.023863028514641334
1783169495217248000,6.411248046875,-0.01173661502301693,0.0054583430377067995,0.013544787822989747
1783169495227316700,6.421316650390625,0.0006827215671539307,-0.002180143350944854,0.01058581471981015
1783169495237385700,6.4313857421875,-0.0026098902374505997,0.00019390143717173486,0.0061432337290607385
1783169495247455700,6.441455810546875,0.0014303250640630722,-0.013443291076738386,0.0038574380465550345
1783169495257525000,6.45152490234375,-0.009642273092269896,-0.01438962288298644,-0.0031817490083863955
1783169495267594800,6.4615947265625,-0.007995090407133101,0.014756346436683087,0.014427904500183648
1783169495277664000,6.4716640625,-0.003505377772450447,-0.0035172006409848106,0.013023581527057104
1783169495287732700,6.481732666015625,-0.021612112349271774,-0.01037103032481391,0.0033469540740363297
1783169495297803000,6.491802978515625,-0.0070984338283538815,-0.010397566705290228,-0.006988543713092803
1783169495307871700,6.501871826171875,-0.004257072922587394,-0.010837428560433909,0.007836273983074352
1783169495317941000,6.51194091796875,-0.0020125088661909103,-0.013891103342897258,-0.005549441687529907
1783169495328010800,6.5220107421875,-0.013236498191952705,0.0024418904265156014,0.007189957169862464
1783169495338080000,6.532080078125,-0.02640460732281208,-0.007264214282738976,0.006218714684643782
1783169495348148700,6.542148681640625,-0.0033610008656978605,-0.004562115717190318,-0.0018464544171700253
1783169495358219000,6.552218994140625,0.006963993793725967,-0.007486757292505353,0.0014163878702558577
1783169495368287700,6.562287841796875,-0.012040566405653952,-0.0019852372667752203,-0.008615943985525518
1783169495378357800,6.572357666015625,0.0042705169260501856,0.005280552485119551,0.013269382114824839
1783169495388426800,6.5824267578125,0.0032230536997318268,0.015846561959339305,0.01835674554882571
1783169495398496000,6.59249609375,0.0035240824729204177,0.005058612263551913,0.020905891175521538
1783169495408565800,6.602565673828125,-0.011738953110575675,-0.0016981045881984754,0.018511876745033077
1783169495418635000,6.612635009765625,-0.006502806022763252,0.0007021523534087463,-0.006028649172373115
1783169495428703700,6.622703857421875,-0.009945055431127548,0.0065433617954375215,-0.0067226136527489865
1783169495438773800,6.632773681640625,-0.009946224474906921,0.004032863112119958,0.010070485608815216
1783169495448842800,6.6428427734375,0.004717091649770736,-0.011813653181446716,0.023126243239268658
1783169495458912800,6.652912841796875,-0.012789923468232154,-0.002909836731827818,0.0013379066734109074
1783169495468981800,6.662981689453125,-0.01952303111553192,0.012979180696327239,0.0044941193817416205
1783169495479050800,6.67305078125,-0.014884265398979185,0.002620078271324746,0.0097541816346813
1783169495489121000,6.68312109375,-0.004560439783334732,0.00911012071063742,-0.002791818109038286
1783169495499189800,6.693189697265625,-0.007103694525361061,0.013792835166770965,0.0019883471058914437
1783169495509258800,6.7032587890625,-0.007253332129120826,-0.005040496651548892,0.002302070963871665
1783169495519328800,6.713328857421875,-0.010395137286186218,0.005837346117664128,0.005166561583476141
1783169495529397800,6.723397705078125,-0.0038122517645359038,0.00699717911069747,0.005799525724770501
1783169495539466800,6.733466796875,-0.00620703794658184,-0.008133106071758083,-0.004797490809066221
1783169495549536800,6.743536865234375,-0.00845218652486801,0.006777366914134472,0.0014668302827049045
1783169495559605800,6.753605712890625,-0.015635376027226446,-0.003947532049380242,0.007153862943174317
1783169495569676000,6.763676025390625,-0.010097615644335747,0.001830170002649538,0.011749803298152983
1783169495579744800,6.773744873046875,-0.009498480707406998,-0.0023694462448125703,-0.007075527876801788
1783169495589813800,6.783813720703125,0.0018728081345558165,0.006173345739534124,0.0038648952672258015
1783169495599883800,6.7938837890625,-0.006956395009160041,0.0010850689900806173,0.006370169786154292
1783169495609953000,6.803953125,-0.008902268379926682,-0.007856837280490435,0.00793049617174547
1783169495620021800,6.814021728515625,-0.008303133442997932,0.0029517122453311456,0.008113172962004318
1783169495630092000,6.824092041015625,-0.009949147084355354,-0.011006734412466175,-0.0021882170595461502
1783169495640160800,6.834160888671875,0.007857143241167068,-0.017710410469304768,0.003451683956990018
1783169495650230000,6.84422998046875,-0.0065092357635498045,-0.007158671549032442,-0.006640935851819813
1783169495660299800,6.8542998046875,-0.0017208324432373045,0.0023158254945883526,0.01091730712992139
1783169495670369000,6.864369140625,-0.008902852901816367,-0.004566243903036229,0.013665158233069814
1783169495680438800,6.874438720703125,-0.007406476864218712,0.007781908880756236,0.012874016988533549
1783169495690507800,6.8845078125,-0.0030658173114061354,-0.001597827118076384,0.006089307018159888
1783169495700576800,6.89457666015625,-0.0021668226450681687,0.01432038443852216,-0.0011778846729546784
1783169495710646800,6.904646728515625,-0.008300795355439186,-0.010208588038408196,0.007844726717588492
1783169495720715800,6.9147158203125,-0.02206803942322731,-0.009783357496815734,-0.0015278625878272576
1783169495730784800,6.92478466796875,-0.015035072046518326,0.01049170669557061,-0.0000484787842258811
1783169495740854800,6.934854736328125,-0.015934651234745977,-0.0034916552077746015,0.007914453785819932
1783169495750923800,6.944923828125,-0.01234393326640129,0.005139349349564872,0.006277203406230546
1783169495760993800,6.954993896484375,-0.0005213935256004333,0.007618927738233469,0.01177823480819352
1783169495771062800,6.965062744140625,-0.010846972706913947,0.0065094595258357,0.005964616625988855
1783169495781131800,6.9751318359375,-0.005011106160283088,0.002132358686462976,-0.0011981237433850765
1783169495791201800,6.985201904296875,-0.002466682374477386,-0.001726047474471852,-0.010908511902112512
1783169495801270800,6.995270751953125,-0.006655950757861137,-0.011115190622466615,-0.003799396849540062
1783169495811339800,7.00533984375,-0.017279051581025124,0.011465670860838145,0.005729967619897797
1783169495821409800,7.015409912109375,-0.026257892328500745,0.0013267459585797042,0.0005231836238875985
1783169495831478800,7.025478759765625,-0.003214285871386528,-0.003117752994620241,-0.006132744301087223
1783169495841547800,7.0355478515625,-0.016383564046025274,-0.00025497940806671975,-0.011449135284568182
1783169495851617800,7.04561767578125,-0.002468435940146446,-0.006182529126410373,0.006081196776940487
1783169495861686800,7.055686767578125,-0.02521335171163082,0.004788608816289342,-0.00584652037138585
1783169495871756800,7.0657568359375,-0.023417700466513633,-0.00924825053969398,0.00904165858430788
1783169495881826000,7.075825927734375,-0.019077040913701056,-0.011774992538336663,-0.00997174250865355
1783169495891894800,7.085894775390625,-0.00710720165669918,-0.00746781969659496,-0.0031523402508115395
1783169495901964800,7.09596484375,-0.00875379981994629,-0.0010973987486911938,-0.003984626356489025
1783169495912033800,7.10603369140625,-0.020425532913208005,0.0088149736889638,-0.006295602146023884
1783169495922103000,7.11610302734375,-0.008604162216186522,0.00542970603168942,0.008959939684183337
1783169495932172800,7.1261728515625,-0.01683423042297363,-0.014766360940621233,0.006837819263944402
1783169495942241800,7.13624169921875,-0.014290975680947303,-0.0059145121402572835,0.003472484716423787
1783169495952310800,7.146310791015625,-0.005910100826621055,0.006135050422605127,-0.008207883774442598
1783169495962380800,7.156380859375,-0.015337269863486288,0.009337029368267394,-0.0007520604763180017
1783169495972449800,7.16644970703125,-0.013092705807089804,0.00486183844928164,-0.0010942386772250757
1783169495982519800,7.176519775390625,-0.01488894157409668,0.004646935323276557,-0.006993334052641876
1783169495992588800,7.1865888671875,-0.011896189498901366,0.0035312976649962365,0.006547394083160907
1783169496002657800,7.19665771484375,-0.008303133442997932,0.0046600687994854525,-0.008242987053864635
1783169496012727800,7.206727783203125,0.000675122782588005,-0.008059917537961155,-0.009322640083311125
1783169496022796800,7.216796875,-0.01608311979472637,-0.014483164651645347,0.009383480592188425
1783169496032865800,7.22686572265625,-0.003065232789516449,-0.011075657763099296,-0.005606907495809718
1783169496042935800,7.236935791015625,-0.027156302472949027,0.015579832747974432,-0.005837770809349604
1783169496053004800,7.2470048828125,-0.016082535272836686,0.01046384600768797,-0.002018217087769881
1783169496063074800,7.25707470703125,-0.011293547430634498,-0.006109331459458917,0.013419983266387134
1783169496073143800,7.267143798828125,-0.014285714983940124,-0.009605082887038588,0.00990398363522254
1783169496083212800,7.277212890625,-0.006055062255263328,-0.0068175253945868455,-0.007874619532353244
1783169496093282800,7.28728271484375,-0.023560908329486846,-0.007894986466947012,0.009996155430702492
1783169496103351800,7.297351806640625,-0.01518120251893997,-0.014955668401066213,0.01629618715667166
1783169496113420800,7.3074208984375,-0.0015641805768013,0.003850076724006794,-0.0009410756758181378
1783169496123490800,7.31749072265625,0.0009790741652250289,0.005008265749225392,0.0012425291406922042
1783169496133559800,7.327559814453125,-0.006502221500873566,0.0012127139577409252,-0.0016504477878799661
1783169496143628800,7.33762890625,-0.004257657444477081,0.0036376989152282473,-0.01943926182221621
1783169496153698800,7.34769873046875,-0.023261633121967315,-0.002086112958518788,-0.016003391922288574
1783169496163767800,7.357767822265625,-0.0017126491367816924,-0.006847039183438756,-0.0007895292427623644
1783169496173837800,7.367837890625,-0.004106850796937942,-0.00822214976181276,0.023818207558803258
1783169496183906800,7.37790673828125,-0.0073988780796527855,-0.007776168693136423,-0.006790984447533265
1783169496193975800,7.387975830078125,-0.0003653261810541153,0.006541854824940674,-0.001885270323907025
1783169496204045800,7.3980458984375,-0.014731705185770988,0.006341811341349967,0.002686686367285438
1783169496214114800,7.40811474609375,-0.008746201035380362,0.002678251899080351,0.0022374264961341397
1783169496224183800,7.418183837890625,-0.007250409519672393,0.008918575627333484,-0.00588802599213086
1783169496234253800,7.42825390625,-0.018771920487284658,0.0010268999289022758,-0.005471622644388116
1783169496244322800,7.43832275390625,-0.013982348123192786,-0.013388081157626583,-0.006648653367394581
1783169496254392800,7.448392822265625,-0.0379237802028656,-0.007056010325578972,0.00428011130488012
1783169496264461800,7.4584619140625,-0.00784486828148365,-0.012720981851289979,0.006840454179025255
1783169496274530800,7.46853076171875,-0.020565818166732787,-0.017268918346078133,0.0064103739323792975
1783169496284600800,7.478600830078125,-0.01772270369529724,0.00010167484276462346,0.016013525157235562
1783169496294669800,7.488669921875,-0.010538929671049118,0.001867903630575165,-0.0004820844285190105
1783169496304738800,7.49873876953125,-0.0011117606341838836,0.012889598150155506,0.010631480492441914
1783169496314808800,7.508808837890625,0.007269114220142364,-0.0036882554921088737,0.011583534220000729
1783169496324877800,7.5188779296875,-0.004403203395009041,-0.004641336699551903,0.008568944772332906
1783169496334946800,7.52894677734375,-0.018470891714096067,0.00698330584897194,0.008773134708078577
1783169496345016800,7.539016845703125,0.0030780922710895537,-0.004974194516264833,0.009399189617973753
1783169496355085800,7.5490859375,-0.014730536141991614,0.015253445771243422,0.018977786356885917
1783169496365155600,7.559155517578125,-0.016825462594628332,0.004030397160397842,0.008935545028443449
1783169496375224800,7.569224853515625,-0.008893500551581382,0.0054046126896282656,0.016223368515633045
1783169496385293800,7.5792939453125,-0.02310848838686943,0.00031828586866613476,0.0009358926106244325
1783169496395363800,7.58936376953125,-0.007545593073964118,0.006696657227585092,0.0023146381844999266
1783169496405432600,7.5994326171875,0.008465630528330803,-0.0012281489888904616,0.002344311803556047
1783169496415501800,7.609501708984375,-0.012633856123685836,-0.005507867568125948,-0.011978045396343805
1783169496425571800,7.61957177734375,-0.0168225399851799,-0.0013373769504483788,0.010994897844200022
1783169496435640800,7.629640869140625,-0.0056003042250871654,-0.00184864637425635,0.0036304791565751654
1783169496445709800,7.639709716796875,-0.014428922846913337,0.0018655290103983134,0.00203026371859014
1783169496455779800,7.64977978515625,-0.008145312532782554,0.002444465976092033,0.0030517202873947095
1783169496465848800,7.659848876953125,-0.00395662867128849,-0.006498755468730815,-0.0023486409188015387
1783169496475918800,7.6699189453125,-0.019518939462304114,0.005127690877811983,0.0058819798438344145
1783169496485987800,7.67998779296875,-0.013383213186264037,0.004872789101558737,-0.002238316978700459
1783169496496056800,7.690056884765625,-0.011886252626776695,-0.013573543560015968,0.011032859800988807
1783169496506126800,7.700126953125,-0.005600888746976852,0.0029050966246286407,0.007637961232266389
1783169496516195800,7.71019580078125,-0.010089432337880134,0.006732107566879131,0.0013439436885528265
1783169496526264800,7.720264892578125,-0.0054506666213274,-0.01116659201614093,0.005620794457267039
1783169496536335000,7.730335205078125,-0.014577391406893729,-0.005244284728495404,-0.0017170376175316049
1783169496546404000,7.740404052734375,0.0009843348622322083,0.01142648962792009,0.0035051037778146563
1783169496556474000,7.75047412109375,-0.007996259450912474,-0.001258959685685113,0.009745450338954105
1783169496566543400,7.76054345703125,-0.011586977419257164,-0.004067518866970204,-0.00033200843334198
1783169496576612400,7.7706123046875,-0.012035305708646773,0.012681220663059501,0.0035636518649058415
1783169496586682400,7.780682373046875,-0.0021603929042816163,-0.010802316147857345,0.0013439847877481951
1783169496596751000,7.790751220703125,-0.010239654463529587,0.009586186390323563,-0.0034157358607742935
1783169496606820400,7.8008203125,-0.014278700721263885,0.010623415916995145,0.005824148709373548
1783169496616890000,7.81089013671875,-0.002007248169183731,0.011385614194837398,0.0017120509151602164
1783169496626959400,7.82095947265625,-0.018766075268387795,0.006509706121007912,-0.004159850492654368
1783169496637028000,7.831028076171875,-0.02385316927433014,-0.009274375928216613,-0.007856197959673591
1783169496647098400,7.841098388671875,-0.0026046295404434203,0.0078132264676271,-0.0016281994234537704
1783169496657167000,7.8511669921875,-0.005747603741288185,0.013119027558434753,0.003633881256636232
1783169496667237400,7.8612373046875,-0.01442483119368553,0.010534869983862154,-0.004910677993111312
1783169496677306000,7.87130615234375,-0.007691723546385765,0.00012927980232052503,-0.0006164696642197668
1783169496687375400,7.881375244140625,-0.016820201897621154,-0.0017193483056267723,0.020819171873293817
1783169496697445000,7.891445068359375,-0.007992752319574355,-0.006011702604149468,0.007082062648865394
1783169496707514400,7.901514404296875,-0.021459552136063573,0.0030570540496380996,-0.006798067208868451
1783169496717583000,7.9115830078125,-0.021459552136063573,0.003073617025371641,0.011895239650830626
1783169496727653400,7.9216533203125,-0.021459552136063573,0.0008482782592531293,0.0012636358608026058
1783169496737722000,7.93172216796875,0.001734276446700096,-0.01481441503316164,0.012641263112006708
1783169496747792100,7.941792236328125,-0.013977087426185607,-0.008138754927832633,0.008362124488083645
1783169496757861000,7.951861083984375,-0.010984919872879981,0.001967203853162937,-0.005400137443910352
1783169496767930400,7.961930419921875,-0.013977671948075294,-0.007980440827272832,-0.011553595739463343
1783169496778000100,7.972000244140625,-0.02011339822411537,-0.0019733824322000146,0.010844282992905937
1783169496788069400,7.9820693359375,-0.008740355816483497,0.005707226065127179,0.007773456146242096
1783169496798138000,7.99213818359375,0.0068231240183115,-0.01664863102326635,0.002781237349519506
1783169496808208100,8.0022080078125,-0.018764321702718734,-0.011490545007190666,-0.009897476262622513
1783169496818277000,8.012277099609374,0.00039046062231063843,-0.012963252474833278,-0.00611836414928548
1783169496828346400,8.022346435546876,-0.01741641422510147,-0.004639729264355265,-0.007211228286754339
1783169496838416400,8.03241650390625,-0.01726736114323139,0.002435561150428839,0.012680056185857392
1783169496848485000,8.042485107421875,-0.010532499930262566,0.003062255381140858,-0.00441098027608823
1783169496858555400,8.052555419921875,-0.009634089785814285,0.01091999227735214,0.010587591118365526
1783169496868624100,8.0626240234375,-0.019960253489017487,-0.011273340326244942,0.009930730078252964
1783169496878693400,8.072693359375,-0.011880407407879828,0.0034598946629092095,0.019174788500019347
1783169496888763100,8.08276318359375,0.003981763112545013,-0.0018060584746999665,0.008154573551472276
1783169496898832400,8.092832275390625,-0.01861293053328991,-0.0065967222507577385,-0.004219919249974191
1783169496908901000,8.102901123046875,-0.0169663323700428,-0.0038053790657548233,-0.005248202851787209
1783169496918971400,8.112971435546875,-0.02459843468368053,-0.007355833522370085,0.011425242952327243
1783169496929040100,8.1230400390625,-0.01397474933862686,-0.00858532508497592,-0.0014841969760367646
1783169496939110400,8.1331103515625,-0.02460018824934959,-0.005003534775180742,0.017909577170060947
1783169496949179100,8.14317919921875,-0.009038461980223655,-0.0012780982109950854,0.012480295830057001
1783169496959248400,8.153248291015625,-0.008441080608963966,-0.00010099898932967334,0.008782432259386404
1783169496969318100,8.163318115234375,-0.015026888740062713,-0.002704678681702353,-0.004024136382970027
1783169496979387400,8.173387451171875,-0.017421090400218962,0.0004204630349297076,-0.0014922113191336392
1783169496989456100,8.1834560546875,-0.011435586249828338,0.007244934193533845,0.007452612994308583
1783169496999526100,8.193526123046874,-0.011135141998529434,-0.008876732079870999,0.007631330562080256
1783169497009595100,8.20359521484375,-0.00006254384219646453,-0.008131516902870499,-0.003051514791417867
1783169497019664400,8.213664306640625,-0.01128653316795826,-0.0106368644870352,0.01217423468872439
1783169497029734100,8.223734130859375,-0.013980594557523726,0.004059773951931856,-0.006954038655292242
1783169497039803400,8.233803466796875,-0.010838204878568649,-0.0074291225208668035,0.0004377566630253568
1783169497049873200,8.243873046875,-0.014579729494452475,-0.014953855469892733,-0.0011987493644701316
1783169497059942100,8.253942138671874,-0.016675824990868567,-0.003334149391390383,0.0076727037520846345
1783169497070011100,8.26401123046875,-0.0048538697719573975,-0.000945687918853946,0.00020856015018653123
1783169497080081200,8.2740810546875,-0.02161269687116146,0.0129567268359242,0.011864807979948818
1783169497090150100,8.284150146484375,-0.004702478602528572,0.004071190395089797,-0.0009327827715082094
1783169497100219100,8.29421923828125,0.0008329436928033829,0.00009990757736377417,0.01632444057019893
1783169497110289400,8.304289306640625,0.007866495591402053,-0.004871350629720836,-0.006374430402740836
1783169497120358100,8.314358154296874,-0.013232991060614586,-0.0008192622273229062,0.0055089589800918475
1783169497130428400,8.324428466796874,-0.01861936027407646,0.005430724378419108,0.002078052949649282
1783169497140497200,8.3344970703125,-0.00859422534406185,0.011632309831748715,-0.005598591758613474
1783169497150566400,8.34456640625,-0.014280454286932944,-0.004896905196085572,0.0034517341893399132
1783169497160636200,8.35463623046875,-0.000813069948554039,-0.0038586527561070396,0.01764774789609946
1783169497170705400,8.364705322265625,-0.0051531449794769285,-0.0005702376360073685,-0.0030795398760819805
1783169497180774100,8.374774169921874,-0.022810966745018958,-0.0063264402422821145,0.008484627489745617
1783169497190844400,8.384844482421874,-0.01757365061342716,0.0035865897824987765,0.007453914468828589
1783169497200913200,8.3949130859375,-0.02131517522931099,-0.017483716440806166,0.0017253579213051123
1783169497210983200,8.404983154296875,-0.027599954587221143,-0.005846858298103325,0.0011835791948018595
1783169497221052200,8.41505224609375,-0.006201192727684974,-0.001386737084086053,0.011833869418990797
1783169497231121400,8.425121337890625,0.003375613912940025,-0.002064814442163333,0.00822188946690876
1783169497241191200,8.435191162109374,-0.024307927304506302,0.00009248232273384927,0.016411383634712545
1783169497251260200,8.44526025390625,-0.0213145907074213,0.004785768405231647,0.01045386803636793
1783169497261329200,8.4553291015625,-0.017124737802147863,0.0036138613819144665,-0.004342093458073213
1783169497271399200,8.465399169921875,0.009211480459570884,0.004691295054811053,0.013124123858660458
1783169497281468200,8.47546826171875,-0.021613281393051145,0.009488014112319797,0.02110081095942296
1783169497291537400,8.485537353515625,-0.005901332998275757,0.0016460364742437376,0.01060024967053905
1783169497301607200,8.495607177734374,-0.02864624876976013,-0.008542897015623748,0.009088032176415435
1783169497311676200,8.50567626953125,-0.0216109433054924,-0.0021480106300325132,-0.00288416343445424
1783169497321746400,8.515746337890626,-0.007095511218905448,-0.006249689778219908,0.009518925273814238
1783169497331815200,8.525815185546875,-0.01592412984073162,-0.01305493107996881,0.020325817132089287
1783169497341884200,8.53588427734375,-0.002307107898592949,0.0042477593882591464,0.004964531638775952
1783169497351954200,8.5459541015625,-0.00919160671532154,-0.013831584858137647,-0.004580144564225338
1783169497362023200,8.556023193359374,-0.005001169288158416,0.007823944224463775,-0.00685815879907459
1783169497372092200,8.566092041015626,-0.00021159692406654356,0.0200946067586774,-0.0008096632819157094
1783169497382162400,8.576162353515626,-0.00739478642642498,0.008278976249275729,-0.012383776653022505
1783169497392231200,8.586231201171875,-0.01801905629336834,-0.002765866250451654,0.002158031983836554
1783169497402301200,8.59630126953125,-0.015474632507562636,-0.003980797281453851,0.008989526538271456
1783169497412370200,8.6063701171875,-0.011434417206048965,-0.00248608119469136,0.005917653945414349
1783169497422439400,8.616439453125,-0.010837620356678962,-0.0016197763716918414,0.0006050714873708785
1783169497432509200,8.62650927734375,-0.00784311471581459,-0.00186781001574127,-0.00604957322939299
1783169497442578400,8.636578369140626,-0.01667173333764076,-0.0037383394282427614,0.008484444826655089
1783169497452647200,8.646647216796875,-0.023405425506830214,-0.0065751291901688085,-0.0043736987393116575
1783169497462717200,8.65671728515625,-0.00739478642642498,0.011174544710444751,-0.0037090334186563267
1783169497472786200,8.6667861328125,-0.024752748462557792,0.003766560875729192,-0.003283012859197333
1783169497482855400,8.67685546875,-0.01308159989118576,0.004938821808784268,0.009849266906455158
1783169497492925200,8.68692529296875,-0.013081015369296073,0.008391960220632608,0.00927349457880482
1783169497502994200,8.696994140625,-0.021011223846673963,-0.01360596625858452,-0.0026949975379044187
1783169497513064200,8.707064208984375,-0.010984335350990295,-0.002294303215947002,0.0033561100614489985
1783169497523133200,8.71713330078125,-0.008292027527093886,0.003229335026757326,0.003803904061298817
1783169497533201200,8.727201171875,-0.006644260320067406,-0.0087229936897289,0.021771682258578947
1783169497543271400,8.737271484375,-0.026545477098226546,0.002628414558118675,0.002145971653284505
1783169497553340200,8.747340087890626,-0.012929624199867248,0.01452258791315835,-0.01605519974133931
1783169497563409400,8.757409423828125,-0.021757658299803733,0.010813721174572128,0.0059816362594487145
1783169497573479200,8.767479248046875,-0.026097148808836935,0.003979867982980795,0.01103201498419512
1783169497583548400,8.77754833984375,-0.008290273961424828,0.0035046539699542336,0.017519545806013045
1783169497593618200,8.7876181640625,-0.01726911470890045,0.011293748360034078,0.0001005423316033557
1783169497603687200,8.797687255859374,-0.0032031799554824826,0.0016387664832407608,-0.008979662731382995
1783169497613756200,8.807756103515626,-0.004849778118729591,0.009816483448282814,-0.004375872430088929
1783169497623826200,8.817826171875,-0.005147884282469749,0.006050735423306469,0.014141908899345435
1783169497633895200,8.827895263671875,-0.02265489940047264,0.013646764059853739,0.016259846334811298
1783169497643964400,8.83796435546875,-0.0073918638169765466,0.01006852426388068,-0.0064064466759329655
1783169497654034200,8.8480341796875,-0.021308160966634748,-0.0037182053890894165,-0.0035051266107009723
1783169497664103200,8.858103271484374,-0.0020037410378456115,-0.012738015184481628,0.0012043342884629964
1783169497674173200,8.868173095703124,-0.0024538228929042814,-0.009303937666129787,0.003293511420325376
1783169497684242200,8.8782421875,-0.012477788779139519,-0.0019387152609066105,-0.011880046648276037
1783169497694311200,8.888311279296875,-0.023850831186771393,-0.004138972101407125,0.006631085744663141
1783169497704381200,8.898381103515625,-0.006793313401937485,-0.0037880169390002265,0.003871014480758458
1783169497714450200,8.9084501953125,-0.018916297394037246,-0.009665882296720519,-0.009179998475918546
1783169497724519200,8.918519287109374,0.0461760602414608,0.006640963251283392,0.01581313004719559
1783169497734589400,8.92858935546875,-0.00035889644026756285,-0.02545964548974298,0.006724248487409204
1783169497744658200,8.938658203125,-0.10016717814803124,-0.019875383650581353,0.0041010786432772875
1783169497754727200,8.94872705078125,-0.09553016599714756,0.0065979278271552175,-0.0030950936382403596
1783169497764797200,8.958797119140625,-0.006046294426918029,0.017830502318171782,0.01237131903024856
1783169497774866400,8.968866455078125,0.0798474436968565,0.025582376820268107,0.012420578699186443
1783169497784936200,8.978936279296875,0.011463058778643608,0.03072837967290543,-0.0047687259388854725
1783169497795005400,8.98900537109375,-0.04584872798323631,0.005865754794818349,0.01661478355259169
1783169497805074200,8.99907421875,-0.03163432466983795,0.01180757735039806,0.014515742613840848
1783169497815144200,9.009144287109375,0.02941781766414642,0.005639142964710481,-0.01524767818416003
