time,seconds_elapsed,z,y,x
1783169488873547800,0.0675478515625,0.0022330512292683125,0.005615962669253349,0.00015391060151159763
1783169488883617000,0.077616943359375,0.0014264083001762629,0.0014148144982755184,0.00012465682812035084
1783169488893686800,0.087686767578125,0.004281316883862019,0.003036945592612028,0.0001289178617298603
1783169488903755800,0.097755859375,0.004902984946966171,0.0016959025524556637,-0.0025862818583846092
1783169488913824800,0.10782470703125,0.005692345555871725,0.0005643251352012157,-0.0011316630989313126
1783169488923894800,0.117894775390625,0.000854101381264627,-0.0016985656693577766,0.004820689558982849
1783169488933963800,0.1279638671875,0.003471189644187689,-0.005638978444039822,0.000870156567543745
1783169488944033000,0.138032958984375,0.002098295371979475,-0.004153577610850334,0.001020769588649273
1783169488954102800,0.148102783203125,0.0006564598297700286,-0.004169023595750332,-0.0008405137341469526
1783169488964171800,0.158171875,0.002617469523102045,-0.006327933631837368,0.0007653210777789354
1783169488974241800,0.16824169921875,0.001570048276335001,-0.0036400053650140762,0.0028210149612277746
1783169488984310800,0.178310791015625,0.00009217567276209593,-0.004830559715628624,0.0006346497684717178
1783169488994379800,0.1883798828125,0.0007731459918431938,-0.0027636801823973656,-0.0015001401770859957
1783169489004449800,0.19844970703125,0.0021402891725301743,-0.0020651379600167274,-0.00045733549632132053
1783169489014518800,0.208518798828125,0.00018446380272507668,-0.003020946867763996,0.001547225983813405
1783169489024587800,0.218587890625,-0.0014973371289670467,-0.002369268797338009,0.002335952129215002
1783169489034657800,0.22865771484375,-0.0006917309947311878,-0.0012856293469667435,0.0005380520597100258
1783169489044726800,0.238726806640625,-0.0022842148318886757,0.00008122995495796204,0.000833290396258235
1783169489054795800,0.248795654296875,-0.00037605990655720234,-0.0008362289518117905,-0.000608811154961586
1783169489064865800,0.25886572265625,-0.003404180519282818,0.00198220182210207,-0.0018957629799842834
1783169489074934800,0.268934814453125,-0.003346390090882778,-0.002308683469891548,-0.002233984414488077
1783169489085004800,0.2790048828125,-0.002233474515378475,-0.0006054593250155449,-0.0003135316073894501
1783169489095073800,0.28907373046875,-0.0021905978210270405,0.0005322429351508617,-0.0002317724283784628
1783169489105142800,0.299142822265625,-0.0022333951201289892,0.000725326593965292,-0.0016586182173341513
1783169489115212800,0.309212890625,-0.0018267305567860603,-0.002473129890859127,0.00043089804239571095
1783169489125281800,0.31928173828125,-0.00395436305552721,0.0011744536459445953,-0.0023343509528785944
1783169489135350800,0.329350830078125,-0.002909072209149599,-0.004607801325619221,-0.0018387364689260721
1783169489145420800,0.3394208984375,-0.0019771791994571686,-0.001593620516359806,-0.0009984599892050028
1783169489155490000,0.349489990234375,-0.0012123193591833115,-0.0010189106687903404,-0.0019332293886691332
1783169489165559800,0.359559814453125,0.000015684287063777447,-0.0019737863913178444,-0.001382216578349471
1783169489175628800,0.36962890625,0.00002686958760023117,0.00041933031752705574,-0.000053032999858260155
1783169489185697800,0.37969775390625,-0.0016885657096281648,-0.00038629304617643356,-0.0010382761247456074
1783169489195767800,0.389767822265625,-0.0023833843879401684,-0.0015756608918309212,-0.002028173301368952
1783169489205836800,0.3998369140625,-0.0008107278263196349,-0.004259990528225899,0.0004053644370287657
1783169489215905800,0.40990576171875,-0.002104491461068392,-0.0027566365897655487,0.002311388961970806
1783169489225975800,0.419975830078125,0.0015763835981488228,-0.002762756310403347,0.0014927161391824484
1783169489236044800,0.430044921875,0.001636038301512599,-0.0014540785923600197,0.0016490437556058168
1783169489246113800,0.44011376953125,0.002180348616093397,0.0020197476260364056,-0.0009967118967324495
1783169489256183800,0.450183837890625,0.0007824553176760674,-0.003895665518939495,0.002445689868181944
1783169489266252800,0.460252685546875,0.001998520689085126,-0.0005099987611174583,-0.00032592425122857094
1783169489276322800,0.47032275390625,0.0018962553003802896,-0.006362561136484146,-0.0004476304166018963
1783169489286391800,0.480391845703125,0.0007653835928067565,-0.0011976053938269615,-0.002761360490694642
1783169489296460800,0.490460693359375,0.003551582805812359,0.00021653249859809875,0.00041872006841003895
1783169489306530800,0.50053076171875,-0.0004314112011343241,0.001674494706094265,0.0019122955854982138
1783169489316599800,0.510599853515625,0.0005433057085610926,0.001048385165631771,-0.0003002583980560303
1783169489326668800,0.520668701171875,-0.0005422284593805671,0.000967011321336031,0.0015233992598950863
1783169489336738800,0.53073876953125,-0.0003416924737393856,-0.0018958868458867073,0.0008964911103248596
1783169489346807800,0.540807861328125,0.0012467156630009413,0.0019985907711088657,0.0017773373983800411
1783169489356876800,0.550876708984375,-0.0017637215787544847,-0.00313651654869318,0.0009517574217170477
1783169489366946800,0.56094677734375,0.0012086918577551842,0.0006184102967381477,0.0004666512832045555
1783169489377015800,0.571015869140625,0.00020388117991387844,0.00026021525263786316,0.0003140522167086601
1783169489387085800,0.5810859375,-0.0021660770289599895,-0.0011281035840511322,0.004029073752462864
1783169489397154800,0.59115478515625,-0.0016193297924473882,0.0018538376316428185,0.0028405049815773964
1783169489407223800,0.601223876953125,-0.0013870426919311285,0.0003905673511326313,-0.0009448432829231024
1783169489417293800,0.6112939453125,-0.00007437053136527538,0.0008856491185724735,-0.0010899852495640516
1783169489427362800,0.62136279296875,0.00026176718529313803,0.0010349079966545105,-0.0012331358157098293
1783169489437431800,0.631431884765625,-0.0017774151638150215,0.0006511462852358818,0.0027474910020828247
1783169489447501800,0.641501708984375,-0.0012323724804446101,-0.0008825603872537613,-0.00036347401328384876
1783169489457570800,0.65157080078125,0.0013168052537366748,-0.002090836875140667,-0.00008916854858398438
1783169489467640800,0.661640869140625,-0.00019086990505456924,0.0008246558718383312,0.0019650189206004143
1783169489477709800,0.671709716796875,0.0016483091749250889,0.0005953577347099781,0.00108990422450006
1783169489487778800,0.68177880859375,0.003340048249810934,-0.0031744753941893578,0.0013362749014049768
1783169489497848800,0.691848876953125,0.0021983510814607143,0.0010194708593189716,-0.00199161097407341
1783169489507917800,0.701917724609375,-0.0009748447919264436,-0.0008972082287073135,0.0029150922782719135
1783169489517986800,0.71198681640625,0.0006725865532644093,-0.0005664434283971786,0.001437836792320013
1783169489528057000,0.72205712890625,0.0011322681093588471,-0.0005492651835083961,0.0018596334848552942
1783169489538126000,0.7321259765625,-0.001979635562747717,0.00023343786597251892,0.0014324623625725508
1783169489548195000,0.742195068359375,0.0016034276923164725,0.002336126286536455,-0.001355612650513649
1783169489558265000,0.75226513671875,0.0028652334585785866,-0.0006008073687553406,0.0034335502423346043
1783169489568334000,0.762333984375,-0.0005829272558912635,-0.000750809907913208,0.0010171798057854176
1783169489578403800,0.77240380859375,-0.0004993040347471833,-0.00169436726719141,0.0017428912688046694
1783169489588473000,0.78247314453125,-0.0013158691581338644,0.0003673494793474674,0.0016905865631997585
1783169489598542000,0.7925419921875,-0.0014735283330082893,0.0019697733223438263,0.002865307033061981
1783169489608612000,0.802612060546875,0.0022474403958767653,0.00146444421261549,-0.001548177096992731
1783169489618680800,0.812680908203125,-0.0012362406123429537,0.0016615181230008602,0.0014572001527994871
1783169489628750000,0.82275,-0.0005769486306235194,0.002594553865492344,-0.0004914677701890469
1783169489638820000,0.832820068359375,-0.0005958570400252938,0.00018279533833265305,0.0014489111490547657
1783169489648889000,0.84288916015625,-0.001277932315133512,0.0008470918983221054,0.0003701350651681423
1783169489658959000,0.852958984375,-0.001174868200905621,-0.0001843506470322609,-0.00035531027242541313
1783169489669028000,0.863028076171875,-0.0010405783541500568,0.0011524008587002754,0.0002974066883325577
1783169489679097000,0.87309716796875,0.0004574498161673546,0.001249073538929224,0.0000318894162774086
1783169489689167000,0.8831669921875,0.00008489331230521202,0.0014115087687969208,0.00011358433403074741
1783169489699236000,0.893236083984375,-0.000635225442238152,0.0006700847297906876,0.0023498404771089554
1783169489709305000,0.90330517578125,0.0001396284205839038,0.0037714755162596703,0.00029807700775563717
1783169489719375000,0.913375,0.0012720045633614063,0.0007272162474691868,-0.0006273714825510979
1783169489729444000,0.923444091796875,-0.0007112118182703853,0.0020047365687787533,0.0023454204201698303
1783169489739513000,0.93351318359375,0.00032315996941179037,0.000200711190700531,-0.0020426700357347727
1783169489749583000,0.9435830078125,0.0011823552194982767,-0.00045189354568719864,0.0028134610038250685
1783169489759652000,0.953652099609375,0.0006068461807444692,-0.0028711091727018356,-0.0003290688619017601
1783169489769721000,0.96372119140625,0.0023275939747691154,0.00024133175611495972,-0.0006874550599604845
1783169489779791000,0.973791015625,0.0006082570762373507,0.001014447771012783,-0.0011124953161925077
1783169489789860000,0.983860107421875,0.0016722573200240731,-0.0005736062303185463,0.0028883148916065693
1783169489799930000,0.99393017578125,-0.0005735864397138357,-0.0017738929018378258,-0.0006944357883185148
1783169489809999000,1.0039990234375,-0.002350038383156061,0.0016196789219975471,-0.0030508185736835003
1783169489820068000,1.014068115234375,-0.00016518100164830685,0.0018324651755392551,-0.00042547471821308136
1783169489830137900,1.024137939453125,-0.0006427849875763059,-0.0017851069569587708,0.0006359375547617674
1783169489840207000,1.03420703125,-0.0007008417742326856,-0.0006561931222677231,0.0002252780832350254
1783169489850276000,1.044276123046875,-0.0013388294028118253,-0.0002414090558886528,0.0012556668370962143
1783169489860346000,1.05434619140625,0.0015818594256415963,0.0008046808652579784,-0.0009100157767534256
1783169489870414800,1.064414794921875,0.00014285591896623373,0.0004583224654197693,0.0014921287074685097
1783169489880485000,1.074485107421875,-0.0006244007963687181,-0.0009907037019729614,0.0016913332510739565
1783169489890553900,1.084553955078125,-0.00201268307864666,-0.001700863242149353,0.0015147856902331114
1783169489900623000,1.094623046875,-0.001891775638796389,-0.0002478426322340965,-0.00039629871025681496
1783169489910693000,1.104693115234375,-0.0009936378337442875,-0.0028389254584908485,-0.00042155198752880096
1783169489920762000,1.11476220703125,-0.000989643158391118,0.0016178744845092297,-0.00016322522424161434
1783169489930830800,1.124830810546875,0.0008421443635597825,0.0016714222729206085,0.0013458027970045805
1783169489940901000,1.134901123046875,0.0008115179371088743,0.0019987248815596104,0.0004802753683179617
1783169489950970000,1.14497021484375,0.00010164582636207342,0.0006650923751294613,-0.001411415170878172
1783169489961039000,1.1550390625,-0.00034310214687138796,0.0003913193941116333,-0.0016162125393748283
1783169489971109000,1.165109130859375,0.0016784644685685635,-0.0007628099992871284,-0.00015201116912066936
1783169489981178000,1.17517822265625,-0.0014446243876591325,-0.0015846611931920052,0.00027409475296735764
1783169489991248100,1.185248046875,0.001631252933293581,-0.0009450167417526245,-0.0003085050266236067
1783169490001317000,1.195317138671875,0.001607550773769617,0.00038043828681111336,0.0018244205275550485
1783169490011386000,1.20538623046875,-0.00017105566803365946,0.0018775216303765774,0.0014764787629246712
1783169490021456100,1.2154560546875,0.002064401749521494,0.00009560026228427887,-0.0007624404970556498
1783169490031525000,1.225525146484375,0.0005220777238719165,0.0016243583522737026,-0.0006040160078555346
1783169490041594000,1.235593994140625,0.00018012779764831066,0.004191645421087742,-0.0016844600904732943
1783169490051664100,1.2456640625,-0.000821563764475286,0.002860432956367731,-0.0015707551501691341
1783169490061733000,1.255733154296875,-0.0014332918217405677,-0.0008187238126993179,-0.00003464403562247753
1783169490071802000,1.265802001953125,0.0008779627969488502,-0.00011023599654436111,-0.001198058482259512
1783169490081872000,1.275871826171875,-0.0014435147168114781,0.0005425051786005497,-0.00025023939087986946
1783169490091941000,1.285941162109375,0.0027753261383622885,-0.00024087168276309967,0.0010025789961218834
1783169490102011000,1.296010986328125,0.000670896319206804,0.002033201977610588,-0.0006544399075210094
1783169490112080100,1.306080078125,0.00005951395723968744,0.0013847267255187035,-0.0011190853547304869
1783169490122148900,1.31614892578125,-0.0024395964574068785,-0.002215600572526455,-0.00005195685662329197
1783169490132219100,1.32621923828125,-0.0005865094717592001,0.0007683411240577698,-0.0010931296274065971
1783169490142288000,1.336287841796875,-0.00145523261744529,0.000022922642529010773,0.0023767026141285896
1783169490152357000,1.346357177734375,-0.0008283770876005292,0.00047324690967798233,0.0029838639311492443
1783169490162427000,1.356427001953125,-0.0017865825211629272,-0.0006543360650539398,0.0011449512094259262
1783169490172496100,1.36649609375,0.002680656500160694,0.0010604900307953358,0.001545530278235674
1783169490182564900,1.37656494140625,-0.0006711980095133185,-0.0006726952269673347,0.00016867578960955143
1783169490192635100,1.38663525390625,0.0011881886748597026,0.00026245927438139915,0.0017574314260855317
1783169490202704000,1.396703857421875,-0.0002160961739718914,-0.002102161757647991,-0.0004133111797273159
1783169490212774100,1.406774169921875,0.003846647683531046,0.00022599007934331894,-0.0019271099008619785
1783169490222843100,1.416843017578125,-0.0007481039501726627,0.000272595789283514,-0.00024186167865991592
1783169490232912100,1.426912109375,-0.000746764475479722,0.00034728506579995155,-0.0008303322829306126
1783169490242982100,1.436982177734375,-0.0009680730290710926,0.00003809202462434769,-0.0027555315755307674
1783169490253051100,1.447051025390625,-0.0003216239856556058,-0.0003442000597715378,-0.002545646158978343
1783169490263120100,1.4571201171875,0.0017348689725622535,0.0011644805781543255,0.0026392624713480473
1783169490273190100,1.467190185546875,-0.0011003523832187057,0.00021812552586197853,0.002282180590555072
1783169490283259100,1.477259033203125,-0.00002044043503701687,0.002463436685502529,-0.001980741508305073
1783169490293328100,1.487328125,-0.00006391783244907856,-0.000687871128320694,-0.0012669602874666452
1783169490303398100,1.497398193359375,-0.00009374530054628849,0.0014738161116838455,0.0027048783376812935
1783169490313467100,1.507467041015625,0.0001873524161055684,0.002945725340396166,-0.000287030590698123
1783169490323537200,1.517537109375,-0.003071025013923645,-0.0018287897109985352,-0.0001661230344325304
1783169490333606000,1.52760595703125,-0.0001685459865257144,-0.000002796761691570282,-0.0021283712703734636
1783169490343675100,1.537675048828125,0.0005206800997257233,0.00007496681064367294,-0.0021834985818713903
1783169490353745000,1.547744873046875,-0.000554337864741683,0.0016873818822205067,0.001959345769137144
1783169490363814100,1.557814208984375,-0.0007154591148719192,-0.00015046540647745132,0.0026184781454503536
1783169490373883100,1.567883056640625,-0.001056636800058186,0.0010730018839240074,0.0002919046673923731
1783169490383953200,1.577953125,0.0015338200610131025,0.001242645550519228,0.00038005528040230274
1783169490394022000,1.58802197265625,-0.0018728956347331405,0.003065312746912241,-0.000770430313423276
1783169490404091100,1.598091064453125,-0.002187148667871952,0.0014114896766841412,0.0019766204059123993
1783169490414161000,1.608160888671875,-0.0011018437799066305,0.00018802424892783165,-0.0022125905379652977
1783169490424230100,1.618230224609375,-0.0014147651381790638,0.0008551459759473801,0.0006274043116718531
1783169490434299000,1.628298828125,0.0003259771619923413,0.004711274988949299,-0.0007065425161272287
1783169490444369200,1.638369140625,0.0012322509428486228,0.006005038507282734,0.0014045450370758772
1783169490454438000,1.64843798828125,0.0015274283941835165,0.0036714482121169567,0.000028518028557300568
1783169490464508200,1.658508056640625,0.001776167657226324,0.0032637184485793114,0.0014567715115845203
1783169490474577000,1.668576904296875,-0.0008050274336710572,0.00032957782968878746,-0.0028374330140650272
1783169490484646100,1.678646240234375,-0.0014103640569373965,0.0019226805306971073,-0.0017386125400662422
1783169490494716200,1.688716064453125,0.0009370255284011364,0.005308361724019051,0.0010985287372022867
1783169490504785200,1.69878515625,-0.0007905671373009682,0.0027234978042542934,0.00014458457008004189
1783169490514854000,1.70885400390625,0.00116848130710423,0.0025636968202888966,0.0021318718791007996
1783169490524924700,1.718924560546875,0.000543970032595098,0.0006898967549204826,0.002864507492631674
1783169490534994000,1.728993896484375,-0.0003448134521022439,0.005052295513451099,0.0002842771355062723
1783169490545062700,1.739062744140625,0.00004640489351004362,-0.0003696344792842865,0.0007942724041640759
1783169490555133000,1.7491328125,-0.0010588205186650157,0.0030208234675228596,0.0023283816408365965
1783169490565201700,1.75920166015625,0.0005819531506858766,0.002394714392721653,-0.00191536545753479
1783169490575272000,1.76927197265625,0.0009011399233713746,0.00014581391587853432,0.0003618404734879732
1783169490585340700,1.779340576171875,-0.0005449565360322595,-0.0017322469502687454,0.0006436028052121401
1783169490595410000,1.789409912109375,0.0006641903892159462,-0.0010298211127519608,0.0008063106797635555
1783169490605479700,1.799479736328125,0.0016399725573137403,0.0013196193613111973,0.00015463517047464848
1783169490615549000,1.809548828125,0.0009499156731180847,-0.0016978904604911804,-0.0005392015445977449
1783169490625617700,1.81961767578125,0.0005973131628707051,0.00011119432747364044,-0.001117374049499631
1783169490635688000,1.82968798828125,0.0003607574035413563,0.0008387798443436623,0.0008142737206071615
1783169490645756700,1.839756591796875,0.0018718349747359753,-0.0008286256343126297,-0.0008411470334976912
1783169490655826000,1.849825927734375,0.0022719406988471746,-0.00023619923740625381,0.0009256203193217516
1783169490665895700,1.859895751953125,-0.0006239806534722447,0.00166742829605937,-0.0002096851821988821
1783169490675965000,1.86996484375,0.002282501198351383,-0.0015267850831151009,-0.0011941976845264435
1783169490686033700,1.88003369140625,0.00103001669049263,-0.00020159687846899033,-0.0011984589509665966
1783169490696104000,1.89010400390625,0.0013010002439841628,0.0010877796448767185,0.0010718211997300386
1783169490706172700,1.900172607421875,0.0012674443423748016,0.0008238605223596096,0.002739492803812027
1783169490716242700,1.91024267578125,0.002789698541164398,0.001487933099269867,0.0007231237832456827
1783169490726312000,1.92031201171875,0.00021282397210597992,-0.0003139618784189224,-0.00010218983516097069
1783169490736381000,1.930380859375,0.001747226226143539,0.0024015111848711967,0.000655320705845952
1783169490746451000,1.940450927734375,-0.003601466305553913,-0.0005125198513269424,0.002101949881762266
1783169490756519700,1.950519775390625,0.00022970978170633316,0.0009217364713549614,-0.00005413568578660488
1783169490766589000,1.9605888671875,-0.00019586330745369196,0.0006098803132772446,0.0027264708187431097
1783169490776658700,1.97065869140625,-0.0011923913843929768,-0.0008482122793793678,0.0015842781867831945
1783169490786728000,1.98072802734375,-0.0020275586284697056,-0.0007105264812707901,-0.000014950055629014969
1783169490796796700,1.990796630859375,0.0036386430729180574,0.0017676809802651405,0.00014363275840878487
1783169490806867000,2.000866943359375,0.00004950095899403095,0.0003471509553492069,-0.001644147327169776
1783169490816935700,2.010935791015625,0.00015723903197795153,0.0014739292673766613,0.0014837521594017744
1783169490827006000,2.021005859375,-0.0009873874951153994,0.001081645954400301,-0.005149649456143379
1783169490837074700,2.03107470703125,-0.0003642282681539655,0.001506018452346325,-0.0007710990030318499
1783169490847144000,2.04114404296875,-0.0019330964423716068,0.0017941724509000778,0.00201962748542428
1783169490857213700,2.051213623046875,0.0009572455892339349,-0.0010775001719594002,0.0005904450081288815
1783169490867283000,2.061282958984375,-0.00039777078200131655,0.003094341140240431,-0.004331342875957489
1783169490877351700,2.0713515625,-0.0006999524775892496,0.0007309103384613991,0.0015309681184589863
1783169490887422000,2.081421875,0.0010188516462221742,0.0031059174798429012,-0.00442119687795639
1783169490897490700,2.09149072265625,0.0006123929633758962,0.0014090812765061855,-0.0028609756845980883
1783169490907560000,2.101559814453125,0.00032823369838297367,0.0019848570227622986,-0.00040687271393835545
1783169490917629700,2.111629638671875,0.002452709712088108,-0.0013194438070058823,0.00020484649576246738
1783169490927699000,2.121698974609375,0.00048143777530640364,-0.0010523293167352676,-0.0009730695746839046
1783169490937768700,2.131768798828125,-0.0033523407764732838,-0.00015138927847146988,-0.00004644016735255718
1783169490947838000,2.141837890625,-0.0012329976307228208,-0.0012957490980625153,0.0016814188566058874
1783169490957906700,2.15190673828125,-0.0003810920752584934,-0.0004187729209661484,0.00024021114222705364
1783169490967976700,2.161976806640625,-0.0009209148120135069,-0.00021876860409975052,0.0005012007895857096
1783169490978045700,2.172045654296875,0.0003886210615746677,-0.0004471326246857643,0.0007836197037249804
1783169490988115000,2.182114990234375,0.0014421675587072968,0.000049280934035778046,-0.0010451730340719223
1783169490998185000,2.19218505859375,-0.0029185120947659016,0.0011791260913014412,-0.0012515205889940262
1783169491008253700,2.202253662109375,-0.0008116854587569833,0.0007852446287870407,0.00016208551824092865
1783169491018322700,2.21232275390625,-0.002320279832929373,0.0015496965497732162,-0.00009022303856909275
1783169491028392700,2.222392822265625,-0.00007736578118056059,-0.0013496866449713707,-0.001974409678950906
1783169491038462000,2.2324619140625,0.0007350784726440907,0.003139745444059372,-0.0019575245678424835
1783169491048531000,2.242531005859375,0.00023360527120530605,0.0006494233384728432,0.002590355696156621
1783169491058601000,2.25260107421875,0.0021820636466145515,-0.0007923943921923637,0.0011726908851414919
1783169491068669700,2.262669677734375,0.0007056072936393321,0.002556531224399805,0.002609466202557087
1783169491078740000,2.272739990234375,0.002084040082991123,-0.000463360920548439,0.00015381351113319397
1783169491088808700,2.28280859375,0.0010768325300887227,0.00011747423559427261,0.0014185486361384392
1783169491098878000,2.2928779296875,0.0014465553686022758,0.0004177228547632694,-0.0002349738497287035
1783169491108947700,2.30294775390625,0.00036105088656768203,0.0005796425975859165,-0.00044749421067535877
1783169491119017000,2.313016845703125,0.0018011332722380757,0.001410168595612049,-0.0016095391474664211
1783169491129085700,2.323085693359375,-0.00009237427730113268,0.0008253385312855244,-0.001054802443832159
1783169491139156000,2.333156005859375,0.0033180583268404007,-0.0012745773419737816,0.00043377489782869816
1783169491149224700,2.343224609375,-0.00038986094295978546,-0.0033081667497754097,0.0006657361518591642
1783169491159294000,2.3532939453125,-0.0005731860874220729,-0.00019560381770133972,0.0022894362919032574
1783169491169363700,2.36336376953125,0.001292092027142644,0.0015232008881866932,-0.0016664231661707163
1783169491179433000,2.373432861328125,-0.0013459407491609454,0.0012413673102855682,-0.0007623191922903061
1783169491189502700,2.383502685546875,0.002841347362846136,0.0002525355666875839,-0.0007996032945811749
1783169491199572000,2.393572021484375,-0.0020622038282454014,0.0008401554077863693,-0.0012639905326068401
1783169491209640700,2.403640625,-0.0019418289884924889,-0.003627297468483448,-0.00001816381700336933
1783169491219710700,2.413710693359375,-0.0008357189362868667,0.00043442845344543457,-0.00003518024459481239
1783169491229779700,2.42377978515625,0.0016495429445058107,0.0010032798163592815,-0.0016176304779946804
1783169491239849000,2.433848876953125,0.00013701466377824545,0.0011023427359759808,0.0007557985372841358
1783169491249918700,2.443918701171875,0.0023389162961393595,-0.0018857242539525032,0.0028823327738791704
1783169491259987700,2.45398779296875,-0.0007010424742475152,-0.001505688764154911,-0.0007085027173161507
1783169491270056700,2.464056640625,0.0011258861050009727,-0.00014960765838623047,-0.0001005029771476984
1783169491280126700,2.474126708984375,0.0014746609376743436,-0.00015054456889629364,-0.0004334263503551483
1783169491290195700,2.48419580078125,-0.00073203444480896,-0.002075476571917534,-0.0003458084538578987
1783169491300265700,2.494265625,-0.0011385329999029636,0.002666675951331854,-0.0005053626373410225
1783169491310335000,2.5043349609375,0.0000409809872508049,0.000523097813129425,0.0006445904728025198
1783169491320403700,2.51440380859375,0.001625054981559515,0.0015276316553354263,0.0000115884467959404
1783169491330474000,2.524473876953125,0.002689520362764597,-0.001388530246913433,-0.000935697928071022
1783169491340542700,2.534542724609375,0.0017322947969660163,-0.0015375250950455666,-0.0013140225782990456
1783169491350612000,2.544612060546875,-0.0004538941429927945,0.00041057728230953217,-0.0010991054587066174
1783169491360681700,2.554681640625,-0.0006480939919129014,-0.0031614983454346657,-0.002175100613385439
1783169491370751000,2.5647509765625,-0.00009175960440188646,0.001554960384964943,-0.00035190023481845856
1783169491380819700,2.57481982421875,-0.0010488403495401144,-0.0005557248368859291,-0.0003565722145140171
1783169491390890000,2.584889892578125,0.0013085899408906698,-0.0007229717448353767,0.0006064267363399267
1783169491400958700,2.594958740234375,0.00010100239887833595,-0.002046714536845684,0.0012763228733092546
1783169491411028000,2.605028076171875,-0.0013163317926228046,-0.0014938423410058022,-0.0012568756937980652
1783169491421097700,2.61509765625,-0.00043771532364189625,-0.0012743966653943062,-0.0006638853810727596
1783169491431167000,2.6251669921875,-0.0009559664176777005,-0.0017638849094510078,0.004271218553185463
1783169491441236700,2.63523681640625,-0.0014050952158868313,0.0019269841723144054,-0.0004233834333717823
1783169491451306000,2.645305908203125,-0.00009961368050426245,0.0005211010575294495,0.0032685566693544388
1783169491461374700,2.655374755859375,0.00023989216424524784,-0.0003741094842553139,-0.0010910285636782646
1783169491471444700,2.66544482421875,0.0024732190649956465,-0.0014907736331224442,-0.0029421914368867874
1783169491481513700,2.675513671875,-0.0013338689459487796,-0.0011641411110758781,-0.001065489836037159
1783169491491583000,2.6855830078125,0.003684059251099825,-0.00012364424765110016,-0.0038152034394443035
1783169491501652700,2.69565283203125,0.000006972579285502434,-0.001953638158738613,0.0020572086796164513
1783169491511721700,2.7057216796875,-0.00037918577436357737,-0.0002611996605992317,0.0013911521527916193
1783169491521790700,2.715790771484375,-0.0009625769453123212,-0.00024919304996728897,-0.0004965148400515318
1783169491531860700,2.72586083984375,0.00024596555158495903,-0.0005003288388252258,0.00040869368240237236
1783169491541930000,2.735929931640625,0.0005879728123545647,0.002009199932217598,-0.0008090285118669271
1783169491552000000,2.746,-0.0003907389473170042,0.0015961439348757267,-0.0013792116660624743
1783169491562069000,2.756069091796875,-0.002202169504016638,-0.0013447264209389687,-0.0012187925167381763
1783169491572137700,2.7661376953125,0.0012761850375682116,-0.0020720353350043297,0.002546651056036353
1783169491582208000,2.7762080078125,-0.0021209497936069965,0.001425481867045164,0.00003264890983700752
1783169491592277000,2.786277099609375,-0.0023710206151008606,0.00152162229642272,-0.0004190232139080763
1783169491602346000,2.796345947265625,0.0016258233226835728,0.0017149215564131737,0.0011120839044451714
1783169491612416000,2.806416015625,-0.0016277605900540948,-0.0008592894300818443,0.0017792058642953634
1783169491622485000,2.816485107421875,-0.0022310358472168446,0.001146677415817976,0.0010179986711591482
1783169491632554000,2.826553955078125,0.000030254246667027473,0.0006185728125274181,-0.0017929680179804564
1783169491642624000,2.8366240234375,-0.0019461580086499453,0.0009268750436604023,-0.0022935171145945787
1783169491652693000,2.84669287109375,0.0011119499104097486,0.00005176011472940445,0.00024953531101346016
1783169491662762000,2.856761962890625,0.0012679591309279203,-0.001088615506887436,-0.0006325556896626949
1783169491672832000,2.86683203125,-0.001246331143192947,0.0012704120017588139,-0.0014653261750936508
1783169491682901000,2.87690087890625,-0.0005398646462708712,-0.001745489425957203,-0.0033798490185290575
1783169491692971000,2.886970947265625,-0.0013183066621422768,0.0002795783802866936,-0.00032067555002868176
1783169491703040000,2.8970400390625,-0.0005556686082854867,-0.0007585808634757996,0.001347038894891739
1783169491713109000,2.90710888671875,-0.00001771003007888794,0.001413492951542139,0.00026366510428488255
1783169491723178800,2.9171787109375,0.001477461657486856,-0.0007612006738781929,0.0024601761251688004
1783169491733248000,2.927248046875,0.00015999586321413517,0.0008460166864097118,-0.002916213357821107
1783169491743317000,2.93731689453125,-0.0014066114090383053,0.001473898533731699,-0.0012409007176756859
1783169491753387000,2.947386962890625,0.00046106346417218447,-0.0016300156712532043,-0.0010792468674480915
1783169491763455700,2.957455810546875,-0.0006875077961012721,-0.00106140598654747,-0.0006594352889806032
1783169491773525000,2.96752490234375,0.0018100047018378973,-0.001375126652419567,0.002147803083062172
1783169491783594800,2.9775947265625,-0.0009892112575471401,0.0007106950506567955,0.0016082790680229664
1783169491793664000,2.9876640625,0.0003932357067242265,-0.0006571048870682716,-0.0011643378529697657
1783169491803733800,2.997733642578125,-0.0005815166514366865,0.0006478889845311642,0.0014402905944734812
1783169491813803000,3.007802978515625,0.0017567387549206614,-0.0010607950389385223,-0.0001895639579743147
1783169491823871700,3.017871826171875,0.0007554348558187485,0.0010272348299622536,-0.0013539055362343788
1783169491833942000,3.02794189453125,-0.00008905353024601936,0.0006011286750435829,-0.002610384952276945
1783169491844010800,3.0380107421875,0.0002788493875414133,-0.004258144646883011,0.0010507008992135525
1783169491854080000,3.048080078125,0.002687945030629635,-0.0005435682833194733,-0.00325829372741282
1783169491864150000,3.05814990234375,0.0006707125576213002,-0.0015219170600175858,-0.0014570369385182858
1783169491874219000,3.068218994140625,-0.0009969588136300445,-0.001431901939213276,0.0037819333374500275
1783169491884287700,3.078287841796875,0.001648982404731214,0.0005764770321547985,-0.0009975319262593985
1783169491894358000,3.08835791015625,0.0029941450338810682,0.002067580819129944,-0.0006300157401710749
1783169491904427000,3.098427001953125,-0.0012206658720970154,0.000667475163936615,0.00008369446732103825
1783169491914496000,3.10849609375,0.0017423671670258045,-0.00003426801413297653,-0.00027157110162079334
1783169491924566000,3.11856591796875,-0.0010197281371802092,0.00020837271586060524,-0.0021136661525815725
1783169491934635000,3.128635009765625,-0.0001888219267129898,-0.000548764131963253,-0.0013037987519055605
1783169491944705000,3.138705078125,-0.0010563384275883436,0.0006822720170021057,0.000055384356528520584
1783169491954774000,3.14877392578125,-0.0019122783560305834,-0.0012490525841712952,-0.001925208605825901
1783169491964843000,3.158843017578125,-0.0002623009495437145,0.0016422034241259098,-0.00010885205119848251
1783169491974912800,3.168912841796875,-0.0011446061544120312,-0.001517636701464653,-0.00014533731155097485
1783169491984982000,3.17898193359375,-0.002751618856564164,-0.0011900644749403,-0.0014398032799363136
1783169491995051000,3.189051025390625,-0.0003049727529287338,0.0004349960945546627,0.000814562663435936
1783169492005121000,3.19912109375,0.002825790550559759,0.0015150317922234535,-0.0004425104707479477
1783169492015189800,3.209189697265625,-0.0012259426293894649,-0.0015478692948818207,-0.0021522599272429943
1783169492025259000,3.219259033203125,0.002631452865898609,-0.0017741229385137558,0.0013418057933449745
1783169492035328800,3.229328857421875,-0.0001717905979603529,0.0031018583104014397,-0.0016619737725704908
1783169492045398000,3.23939794921875,-0.0019949113484472036,-0.0010496694594621658,0.001885937643237412
1783169492055467800,3.2494677734375,0.000452000938821584,-0.0021165311336517334,0.004846041090786457
1783169492065537000,3.259537109375,-0.0023020347580313683,-0.0009652217850089073,0.001948140561580658
1783169492075605800,3.269605712890625,0.002003764035180211,0.0004278779961168766,0.0003720817621797323
1783169492085676000,3.279676025390625,-0.0007688726764172316,-0.000023194588720798492,-0.00022578169591724873
1783169492095744800,3.289744873046875,-0.0032019366044551134,-0.002066638320684433,0.002077053766697645
1783169492105814000,3.29981396484375,-0.0018721804954111576,0.0006322101689875126,-0.003042170312255621
1783169492115883800,3.3098837890625,0.0012261411175131798,-0.0005973707884550095,0.0007573615293949842
1783169492125953000,3.319953125,0.0005029935855418444,-0.0008012400940060616,-0.001114068552851677
1783169492136021800,3.330021728515625,0.001124042784795165,0.0010896045714616776,-0.0011636032722890377
1783169492146092000,3.340092041015625,-0.0021197269670665264,0.00171384634450078,0.00018990994431078434
1783169492156160800,3.350160888671875,0.0012470411602407694,-0.00021801050752401352,-0.002294552978128195
1783169492166231000,3.36023095703125,-0.002030658535659313,-0.0007764697074890137,-0.0019230626057833433
1783169492176300000,3.370300048828125,-0.0002793640596792102,0.0015484699979424477,-0.0005363544914871454
1783169492186369000,3.380369140625,-0.0007924075471237302,-0.001719234511256218,-0.0011171693913638592
1783169492196439000,3.39043896484375,0.0001857713796198368,0.0007910612039268017,0.001587270526215434
1783169492206508000,3.400508056640625,-0.002956186421215534,-0.0004944438114762306,0.0012438942212611437
1783169492216577000,3.410576904296875,0.000567442097235471,0.00002194289118051529,0.0005967461038380861
1783169492226646800,3.420646728515625,-0.00016354885883629322,0.0008945162408053875,0.0010923489462584257
1783169492236716000,3.430716064453125,-0.0008767434628680348,0.0011922577396035194,0.0016268454492092133
1783169492246785000,3.440784912109375,0.0012326203286647797,0.002257928252220154,0.0028552969451993704
1783169492256855000,3.45085498046875,-0.0004776617279276252,0.0017439383082091808,0.0010302327573299408
1783169492266924000,3.460924072265625,0.00023758923634886742,0.0005336496978998184,0.0035687596537172794
1783169492276994000,3.470994140625,-0.00023086077999323606,-0.0008693039417266846,-0.0009002906735986471
1783169492287062800,3.481062744140625,0.0017204441828653216,0.0007711076177656651,0.00011972780339419842
1783169492297132000,3.491132080078125,-0.001083864364773035,0.0009247721172869205,-0.001943689538165927
1783169492307201800,3.501201904296875,0.0023896568454802036,-0.0007729949429631233,-0.0008194739930331707
1783169492317271000,3.51127099609375,0.00042184710036963224,0.001539427787065506,0.0003712254110723734
1783169492327339800,3.52133984375,0.001782861421816051,0.000575236976146698,0.0010795588605105877
1783169492337410000,3.53141015625,-0.0008755059679970145,-0.0023041730746626854,-0.0039644683711230755
1783169492347478800,3.541478759765625,0.00046586879761889577,0.0031101638451218605,-0.0016013025306165218
1783169492357548000,3.551548095703125,-0.0006081840256229043,0.00041957199573516846,-0.0004952913150191307
1783169492367617800,3.56161767578125,-0.0017913669580593705,-0.0013539567589759827,0.0009344164282083511
1783169492377687000,3.57168701171875,-0.00040146324317902327,-0.001087374985218048,0.0005844770930707455
1783169492387755800,3.581755859375,-0.0013349211076274514,-0.0005910946056246758,0.003009599866345525
1783169492397826000,3.591825927734375,-0.0007796519203111529,0.00023155566304922104,-0.0011159027926623821
1783169492407894800,3.601894775390625,-0.00044022640213370323,0.00031931372359395027,-0.0023412927985191345
1783169492417965000,3.611965087890625,0.0022418431472033262,0.0018993671983480453,-0.0004051746800541878
1783169492428033800,3.62203369140625,0.00022879382595419884,0.00016416050493717194,-0.0014191847294569016
1783169492438103000,3.63210302734375,-0.000616227276623249,-0.000864085741341114,-0.0014596646651625633
1783169492448173000,3.642173095703125,0.001703912392258644,0.0013291728682816029,-0.0000935443677008152
1783169492458242000,3.652241943359375,-0.00047854811418801546,0.0008961427956819534,0.0023653521202504635
1783169492468310800,3.662310791015625,2.2852327674627304e-7,-0.00012638140469789505,0.0011409732978790998
1783169492478380800,3.672380859375,-0.0006762143457308412,-0.0010992344468832016,0.0012608154211193323
1783169492488450000,3.682449951171875,-0.0008225288474932313,0.0007711122743785381,-0.0012914054095745087
1783169492498519000,3.69251904296875,0.0013860305771231651,0.0001732325181365013,-0.0015768962912261486
1783169492508589000,3.702589111328125,0.0027518663555383682,-0.002054372802376747,0.002575742080807686
1783169492518658000,3.712657958984375,-0.00013100553769618273,0.0013597994111478329,-0.0019428434316068888
1783169492528727800,3.722727783203125,0.00010326504707336426,0.0009109312668442726,0.00014331424608826637
1783169492538796800,3.732796875,0.002741126110777259,0.000756201334297657,0.0010812794789671898
1783169492548865800,3.74286572265625,0.0016276293899863958,-0.0004346044734120369,-0.0011440927628427744
1783169492558935800,3.752935791015625,-0.0013753511011600494,0.0004998985677957535,-0.0021992370020598173
1783169492569004800,3.7630048828125,0.00021026853937655687,-0.0007885275408625603,-0.0021896841935813427
1783169492579073800,3.77307373046875,0.002402582671493292,-0.0027920231223106384,0.0008180898148566484
1783169492589143800,3.783143798828125,-0.001947071636095643,-0.000787070021033287,-0.0006576739251613617
1783169492599212800,3.793212890625,0.0005339292692951858,-0.00017427746206521988,0.0004637830425053835
1783169492609281800,3.80328173828125,-0.0010891647543758154,-0.00004194863140583038,0.001540276687592268
1783169492619351800,3.813351806640625,0.0014648066135123372,0.0007860278710722923,-0.0007351280655711889
1783169492629420800,3.8234208984375,-0.0023007169365882874,0.0009862515144050121,-0.00002023717388510704
1783169492639489800,3.83348974609375,0.00043754541547968984,0.00008530402556061745,0.001574463676661253
1783169492649559800,3.843559814453125,-0.0005387240089476109,-0.0030296053737401962,0.0014538592658936977
1783169492659628800,3.85362890625,-0.0008583033923059702,-0.001407473348081112,0.0012304200790822506
1783169492669698800,3.86369873046875,0.000013026059605181217,-0.0006996644660830498,0.0003397644031792879
1783169492679767800,3.873767822265625,-0.0009739415254443884,-0.001891961321234703,0.0002452221233397722
1783169492689836800,3.8838369140625,0.0038572223857045174,0.002746522892266512,-0.0017653140239417553
1783169492699906800,3.89390673828125,-0.0018733673496171832,-0.0011840369552373886,0.0024786991998553276
1783169492709975800,3.903975830078125,-0.0009858018020167947,-0.0019375430420041084,0.0016271627973765135
1783169492720044800,3.914044921875,-0.0009567731758579612,0.0004909937269985676,0.0011304833460599184
1783169492730114800,3.92411474609375,0.0007340952870436013,0.0010521500371396542,-0.00217943312600255
1783169492740183800,3.934183837890625,0.0023751351982355118,0.0005168546922504902,-0.0011903350241482258
1783169492750252800,3.944252685546875,0.0023158909752964973,-0.00141865573823452,0.0010689429473131895
1783169492760322800,3.95432275390625,0.0006450237706303596,-0.0018117381259799004,-0.0011670473031699657
1783169492770391800,3.964391845703125,0.0017992673674598336,0.0031050085090100765,0.0031535006128251553
1783169492780461800,3.9744619140625,-0.0004822626942768693,-0.0017464719712734222,-0.0009248645510524511
1783169492790530800,3.98453076171875,-0.0008683819323778152,-0.0006250198930501938,0.002726795617491007
1783169492800599800,3.994599853515625,0.0027002538554370403,-0.0017688469961285591,-0.0015286693815141916
1783169492810669800,4.004669921875,0.0001892100553959608,-0.0011826222762465477,0.0018900898285210133
1783169492820738800,4.01473876953125,0.0003607175895012915,0.000506887212395668,-0.002062307670712471
1783169492830807800,4.024807861328125,-0.0002706395462155342,-0.0015900544822216034,-0.0016402245964854956
1783169492840877800,4.0348779296875,0.001014601904898882,-0.0011218702420592308,0.0007393099367618561
1783169492850946800,4.04494677734375,-0.0009738078806549311,-0.0003008805215358734,0.0009071461390703917
1783169492861015800,4.055015869140625,-0.0011533049400895834,-0.0007379055023193359,0.0018230073619633913
1783169492871085800,4.0650859375,-0.00022021739277988672,-0.0028044385835528374,0.0005531089846044779
1783169492881154800,4.07515478515625,0.00045223080087453127,0.0014046868309378624,-0.0007124252151697874
1783169492891224800,4.085224853515625,-0.0010744627797976136,-0.0009039845317602158,-0.001439492916688323
1783169492901293800,4.0952939453125,-0.0011663419427350163,0.0005860542878508568,-0.0008402818348258734
1783169492911362800,4.10536279296875,0.002536004176363349,-0.0009534722194075584,0.0027116925921291113
1783169492921432800,4.115432861328125,0.0007157335057854652,0.000040685757994651794,0.002535391366109252
1783169492931501800,4.125501708984375,0.0013497262261807919,-0.0021487250924110413,0.00047610560432076454
1783169492941570800,4.13557080078125,-0.0010282101575285196,0.00020577572286128998,0.0000353523064404726
1783169492951640800,4.145640869140625,0.0013114854227751493,-0.000030108727514743805,-0.0007479935884475708
1783169492961709800,4.155709716796875,-0.0002430017339065671,-0.0010072225704789162,0.0020083782728761435
1783169492971778800,4.16577880859375,0.0020621696021407843,-0.0018778294324874878,-0.00227039260789752
1783169492981848800,4.175848876953125,-0.0023791841231286526,0.0003714766353368759,0.00019675982184708118
1783169492991917800,4.185917724609375,-0.001072858925908804,-0.00010375678539276123,-0.0005365381948649883
1783169493001987600,4.195987548828125,0.001110933255404234,-0.0008707474917173386,0.0030744418036192656
1783169493012056800,4.206056884765625,0.0004933122545480728,0.0007675033994019032,0.0002502438146620989
1783169493022125800,4.216125732421875,-0.0006057743448764086,-0.00042799022048711777,0.0009732921607792377
1783169493032195800,4.22619580078125,0.0023603104054927826,0.00214463472366333,-0.002039884217083454
1783169493042264600,4.2362646484375,-0.0007246952736750245,-0.0003805747255682945,0.0001678764820098877
1783169493052333800,4.246333740234375,0.0005184937035664916,-0.0000034598633646965027,-0.0008943367283791304
1783169493062403800,4.25640380859375,0.0010777575662359595,0.002241584938019514,0.0012923849280923605
1783169493072472800,4.266472900390625,0.001530257984995842,0.000545945018529892,0.0011071695480495691
1783169493082541800,4.276541748046875,-0.00027190311811864376,-0.0030501214787364006,0.0015537815634161234
1783169493092611800,4.28661181640625,-0.0011904602870345116,-0.0007107993587851524,0.0024998695589601994
1783169493102680800,4.296680908203125,0.0005680248723365366,0.0006886916235089302,-0.0021723804529756308
1783169493112750800,4.306750732421875,0.0009345125872641802,0.0005511404015123844,-0.0009532473050057888
1783169493122819800,4.31681982421875,0.0008325135568156838,0.0008515450172126293,0.001227615401148796
1783169493132888800,4.326888916015625,-0.0012169769033789635,-0.0006226878613233566,0.0008411577437072992
1783169493142958800,4.336958740234375,-0.001665187068283558,-0.00190713070333004,-0.0010848401580005884
1783169493153027800,4.34702783203125,-0.00014634954277426004,0.0010812566615641117,-0.0013994849286973476
1783169493163096800,4.357096923828125,-0.0006550133693963289,0.0005222591571509838,0.0005488835740834475
1783169493173166800,4.367166748046875,-0.0007115672342479229,0.001708303578197956,-0.0019660599064081907
1783169493183235800,4.37723583984375,0.000924412626773119,0.0009988374076783657,-0.002691771136596799
1783169493193304800,4.387304931640625,0.0014614242827519774,-0.0018303049728274345,-0.0008200358133763075
1783169493203374800,4.397374755859375,0.0010510311694815755,-0.0011749016121029854,-0.0010900807101279497
1783169493213443800,4.40744384765625,-0.0006156819872558117,-0.0004385290667414665,0.0011103760916739702
1783169493223513900,4.417513916015625,-0.0003930417587980628,0.0005566948093473911,-0.002804736839607358
1783169493233582800,4.427582763671875,0.00047406426165252924,0.00014153774827718735,-0.0006119306199252605
1783169493243651800,4.43765185546875,-0.0024538151919841766,-0.0003647292032837868,0.001465867506340146
1783169493253721600,4.4477216796875,-0.0018607747042551637,-0.0008400995284318924,0.0005926310550421476
1783169493263790800,4.457790771484375,0.00032062066020444036,-0.0004073353484272957,-0.0027054273523390293
1783169493273859800,4.46785986328125,0.0007254871306940913,-0.0008963979780673981,-0.000012510688975453377
1783169493283929900,4.477929931640625,0.0002740813069976866,-0.0002990514039993286,0.000011990312486886978
1783169493293998600,4.48799853515625,-0.0010247536702081561,0.0016938121989369392,0.0009741019457578659
1783169493304067800,4.49806787109375,-0.00038106762804090977,-0.000031383708119392395,0.0023703970946371555
1783169493314137600,4.5081376953125,-0.0007448879769071937,-0.00027965568006038666,-0.00011929403990507126
1783169493324206800,4.518206787109375,-0.0008181249722838402,-0.0002210661768913269,0.0024855437222868204
1783169493334276900,4.52827685546875,0.0004632915952242911,0.0023302659392356873,-0.002059637801721692
1783169493344345900,4.538345947265625,0.0010691607603803277,0.002989398315548897,-0.0012018333654850721
1783169493354414600,4.54841455078125,0.0010899952612817287,0.0002880264073610306,0.0032386521343141794
1783169493364484900,4.55848486328125,0.0010774784022942185,0.0019170818850398064,-0.001049836166203022
1783169493374553900,4.568553955078125,0.0013929145643487573,-0.0008834218606352806,0.00030256551690399647
1783169493384622800,4.578622802734375,-0.0021293822210282087,-0.0015148576349020004,-0.0007555084303021431
1783169493394692900,4.58869287109375,0.000053840805776417255,-0.0008560596033930779,0.0023907949216663837
1783169493404761900,4.598761962890625,-0.003244217950850725,0.00014821859076619148,-0.0009288354776799679
1783169493414830800,4.608830810546875,0.000020240782760083675,-0.00016618240624666214,-0.0014245330821722746
1783169493424900900,4.61890087890625,-0.0007885613013058901,-0.0009137317538261414,-0.00036193174310028553
1783169493434969900,4.628969970703125,0.0010721285361796618,0.002215995918959379,-0.002085451502352953
1783169493445039900,4.639039794921875,0.000475047854706645,0.0002444582059979439,-0.0002537292893975973
1783169493455108900,4.64910888671875,0.0014361636713147163,-0.0012043723836541176,-0.0011776501778513193
1783169493465177900,4.659177734375,-0.0016341947484761477,-0.0013915924355387688,0.0001965407282114029
1783169493475247900,4.669247802734375,0.0005186396883800626,-0.00017526280134916306,0.000797805143520236
1783169493485316900,4.67931689453125,-0.0005772510776296258,0.0006806771270930767,-0.00016386224888265133
1783169493495385900,4.6893857421875,0.001868122024461627,0.0008266759105026722,0.0004941211082041264
1783169493505455600,4.69945556640625,-0.002037936355918646,0.000839991495013237,0.0013745620381087065
1783169493515524900,4.70952490234375,0.0011750817066058517,0.0007455344311892986,0.0011359048075973988
1783169493525593900,4.71959375,0.0013316755648702383,-0.0001191943883895874,-0.0015293864998966455
1783169493535663600,4.72966357421875,-0.002103653270751238,-0.0010903878137469292,-0.0026160008274018764
1783169493545732600,4.739732666015625,0.0007525870460085571,-0.00021074526011943817,0.0012964489869773388
1783169493555802600,4.749802734375,-0.0025378530845046043,-0.0015967991203069687,0.0025899901520460844
1783169493565871600,4.75987158203125,0.0011397060006856918,-0.0019107861444354057,0.0015854458324611187
1783169493575940600,4.769940673828125,-0.0019557590130716562,-0.0005843536928296089,0.0020329910330474377
1783169493586010600,4.7800107421875,0.0001891508582048118,0.0002750484272837639,0.0003152519930154085
1783169493596079600,4.79007958984375,0.0012446397449821234,-0.000995805487036705,-0.001143998233601451
1783169493606148600,4.800148681640625,-0.0017708574887365103,0.0003901030868291855,-0.0023448176216334105
1783169493616218600,4.810218505859375,-0.00012604659423232079,-0.0005613146349787712,0.0005764607340097427
1783169493626287600,4.82028759765625,-0.0001012792345136404,-0.0003716973587870598,-0.00014552217908203602
1783169493636356600,4.830356689453125,-0.0004769213264808059,-0.0002035144716501236,0.0001573197077959776
1783169493646426600,4.840426513671875,-0.0028854841366410255,-0.001679438166320324,-0.0017431119922548532
1783169493656495600,4.85049560546875,-0.0020222582388669252,-0.00019789766520261765,0.000524292467162013
1783169493666565600,4.860565673828125,-0.0013663216959685087,-0.0011214818805456161,-0.0009582890197634697
1783169493676634600,4.870634521484375,-0.001290242769755423,0.0014927485026419163,-0.00003676326014101505
1783169493686703600,4.88070361328125,0.0016112711746245623,0.00008127326145768166,0.0010609917808324099
1783169493696773600,4.890773681640625,0.002759993076324463,0.0015218844637274742,0.0012375866062939167
1783169493706842600,4.900842529296875,0.000006817048415541649,-0.0021833712235093117,-0.0007645778823643923
1783169493716911600,4.91091162109375,-0.0007297410629689693,0.0006112153641879559,0.0011984501034021378
1783169493726981600,4.920981689453125,-0.00010256667155772448,-0.0017153220251202583,-0.0038224072195589542
1783169493737050600,4.931050537109375,0.0018830006010830402,0.0005069030448794365,-0.001934997271746397
1783169493747119600,4.94111962890625,-0.0007239676779136062,0.000049904920160770416,-0.001125928945839405
1783169493757189600,4.951189697265625,-0.000476242508739233,-0.0009762588888406754,-0.0003465146292001009
1783169493767258600,4.961258544921875,0.0004902185755781829,0.0006722374819219112,-0.0010304143652319908
1783169493777328400,4.971328369140625,0.001613205298781395,0.0002920394763350487,0.00017879600636661053
1783169493787397600,4.981397705078125,-0.002569821896031499,-0.0020922888070344925,-0.0010944614186882973
1783169493797466600,4.991466552734375,-0.0029037378262728453,-0.000906091183423996,0.002711853478103876
1783169493807536600,5.00153662109375,-0.002001725137233734,0.0009717033244669437,-0.002767334459349513
1783169493817605400,5.01160546875,0.0017416715854778886,-0.000141192227602005,0.002478464273735881
1783169493827674600,5.021674560546875,0.0010551087325438857,-0.000633876770734787,0.0012347681913524866
1783169493837744600,5.03174462890625,0.000008175498805940151,0.0015381956472992897,0.0006892418023198843
1783169493847813600,5.041813720703125,-0.000965209910646081,0.0008292621932923794,0.002473826054483652
1783169493857882600,5.051882568359375,-0.00012408941984176636,0.0007619638927280903,0.0015922175953164697
1783169493867952600,5.06195263671875,0.0004764533950947225,0.0006807376630604267,-0.000001417938619852066
1783169493878021600,5.072021728515625,-0.00027803052216768265,0.0008481936529278755,0.0035351573023945093
1783169493888091600,5.082091552734375,-0.0012146644294261932,-0.0009459778666496277,0.0036366237327456474
1783169493898160600,5.09216064453125,-0.002366187982261181,0.0008824439719319344,0.001023653894662857
1783169493908229600,5.102229736328125,-0.0025672568008303642,0.0010688654147088528,-0.0005659870803356171
1783169493918299600,5.112299560546875,0.00010230601765215397,0.0011850208975374699,-0.0009922555182129145
1783169493928368600,5.12236865234375,-0.0002148764906451106,-0.0002685319632291794,-0.0003035617992281914
1783169493938437600,5.132437744140625,-0.0009289999725297093,-0.0009320266544818878,-0.0005430921446532011
1783169493948507600,5.142507568359375,-0.0015444563468918204,-0.0015152590349316597,-0.0011710657272487879
1783169493958576600,5.15257666015625,-0.002349711023271084,-0.0010582907125353813,-0.0005618596915155649
1783169493968645600,5.162645751953125,0.0006732431938871741,-0.0008923755958676338,-0.000013514654710888863
1783169493978715600,5.172715576171875,-0.001920680166222155,0.000011442229151725769,-0.0016259397380053997
1783169493988784600,5.18278466796875,0.0012570035178214312,0.0005664452910423279,-0.0027119768783450127
1783169493998854700,5.192854736328125,-0.0006041059968993068,0.001128369476646185,-0.0021440195851027966
1783169494008923600,5.202923583984375,-0.0005367280682548881,-0.0007600784301757812,0.0007596248760819435
1783169494018992600,5.21299267578125,0.0005287493113428354,-0.0018717432394623756,-0.000586196081712842
1783169494029062400,5.2230625,0.00024112791288644075,0.0012098001316189766,0.0010362016037106514
1783169494039131600,5.233131591796875,0.0006636565085500479,-0.0002807779237627983,0.0013123461976647377
1783169494049200600,5.24320068359375,0.003362770192325115,0.0018100696615874767,-0.0012421580031514168
1783169494059270700,5.253270751953125,-0.002202710136771202,0.0005800118669867516,0.0012350124306976795
1783169494069339400,5.26333935546875,-0.0016447779489681125,-0.0017489222809672356,-0.0010049724951386452
1783169494079408600,5.27340869140625,-0.0024640513584017754,-0.0034457258880138397,-0.001863281475380063
1783169494089478400,5.283478515625,0.0004411909030750394,-0.0003154464066028595,-0.001311207888647914
1783169494099547600,5.293547607421875,-0.0010890132980421185,0.0008563813753426075,-0.0012867511250078678
1783169494109617700,5.30361767578125,-0.0024541495367884636,-0.0023673754185438156,0.0018038473790511489
1783169494119686700,5.313686767578125,0.001562046818435192,0.0008941958658397198,-0.0013641174882650375
1783169494129755400,5.32375537109375,0.0006733499467372894,-0.00023658201098442078,-0.002297821920365095
1783169494139825700,5.33382568359375,0.0007582397083751857,0.0010435916483402252,-0.0007442201022058725
1783169494149894700,5.343894775390625,0.00040350662311539054,-0.000553506426513195,0.0003447465132921934
1783169494159963600,5.353963623046875,0.002254934050142765,-0.00003615673631429672,-0.00038553238846361637
1783169494170033700,5.36403369140625,0.001754792290739715,0.0007963469251990318,0.00014124088920652866
1783169494180102700,5.3741025390625,-0.0010279787238687277,-0.0009022662416100502,-0.0030812632758170366
1783169494190171600,5.384171630859375,-0.0012357053346931934,0.0026850118301808834,-0.003297778544947505
1783169494200241700,5.39424169921875,-0.001188418478704989,-0.0010274220257997513,0.0017459860537201166
1783169494210310700,5.404310546875,-0.00183450139593333,-0.00023806095123291016,-0.0018146601505577564
1783169494220380700,5.414380615234375,0.0017847259296104312,-0.0010967561975121498,-0.00042803166434168816
1783169494230449700,5.42444970703125,-0.002194036729633808,-0.0009593367576599121,0.000009525567293167114
1783169494240518700,5.4345185546875,0.0016092153964564204,0.00043905992060899734,-0.0008230649400502443
1783169494250588700,5.444588623046875,0.0005969478515908122,-0.00036920979619026184,0.0017615328542888165
1783169494260657700,5.45465771484375,0.0010407743975520134,-0.003178388811647892,0.0011757633183151484
1783169494270726700,5.4647265625,-0.0011904219863936305,-0.003171730786561966,-0.0006490347441285849
1783169494280796400,5.47479638671875,0.0026562181301414967,0.000038839876651763916,-0.0013633733615279198
1783169494290865700,5.48486572265625,-0.0005110792117193341,0.00003670994192361832,-0.0005841325037181377
1783169494300934700,5.4949345703125,0.0016581000527366996,-0.000813889317214489,-0.001944257877767086
1783169494311004700,5.505004638671875,0.00021732994355261326,0.0004700212739408016,0.0015082641039043665
1783169494321073400,5.515073486328125,0.0010957622434943914,-0.0016125030815601349,-0.0020926573779433966
1783169494331143700,5.525143798828125,-0.0019690035842359066,-0.00023138802498579025,0.0008485377766191959
1783169494341212400,5.53521240234375,-0.001204927684739232,-0.0003321804106235504,-0.001890733139589429
1783169494351281700,5.54528173828125,-0.0009290240705013275,0.00027821632102131844,0.0034603564999997616
1783169494361351400,5.555351318359375,0.0004106492851860821,0.00008576316758990288,-0.001917063957080245
1783169494371420700,5.565420654296875,0.0015073390677571297,0.0007092091254889965,-0.00006110710091888905
1783169494381489400,5.575489501953125,0.0004193409695290029,0.001082930713891983,-0.0007208648603409529
1783169494391559700,5.5855595703125,-0.000110095483250916,-0.0011357488110661507,0.0017164602177217603
1783169494401628400,5.59562841796875,-0.0014221564633771777,-0.0009643323719501495,0.0006260974332690239
1783169494411697700,5.60569775390625,-0.0019159066723659635,-0.0016863150522112846,0.0012279718648642302
1783169494421767700,5.615767578125,0.0005445037386380136,0.0008829138241708279,-0.0015282996464520693
1783169494431836700,5.625836669921875,0.0004835173604078591,0.0003936910070478916,0.0013724151067435741
1783169494441906700,5.63590673828125,0.002127606887370348,-0.0008630482479929924,0.0010519498027861118
1783169494451975700,5.6459755859375,0.0017337254248559475,-0.0020755846053361893,0.00034860894083976746
1783169494462044700,5.656044677734375,0.0015972809633240104,-0.001060553826391697,-0.0017856357153505087
1783169494472114700,5.66611474609375,0.000510178622789681,-0.0008877143263816833,0.00014116126112639904
1783169494482183700,5.67618359375,-0.00029904593247920275,0.000050319358706474304,0.0010431697592139244
1783169494492252700,5.686252685546875,0.0019127093255519867,0.00037975283339619637,-0.0031467813532799482
1783169494502322700,5.69632275390625,-0.0022412631660699844,-0.0009019486606121063,-0.0005920080002397299
1783169494512391700,5.7063916015625,-0.0009144763462245464,-0.002784270793199539,-0.000553125748410821
1783169494522460700,5.716460693359375,-0.00035316753201186657,0.0018239105120301247,0.0001684972085058689
1783169494532530700,5.72653076171875,0.0023534030187875032,-0.0010259384289383888,0.00021110777743160725
1783169494542600000,5.736599853515625,-0.0005560140125453472,0.0005865306593477726,0.001015838235616684
1783169494552669700,5.746669677734375,-0.0014321941416710615,0.0009484542533755302,0.0025889675598591566
1783169494562739000,5.756739013671875,0.0026703434996306896,0.000377509742975235,-0.0011398447677493095
1783169494572807700,5.7668076171875,-0.000743029871955514,-0.0009615281596779823,0.001623451360501349
1783169494582878000,5.7768779296875,0.00024889223277568817,0.0019262242130935192,-0.0028662877157330513
1783169494592946700,5.78694677734375,-0.0008456669747829437,0.0005853227339684963,-0.0009397570975124836
1783169494603016000,5.797015869140625,-0.0009449325734749436,-0.0007920153439044952,-0.0006131501868367195
1783169494613085700,5.807085693359375,-0.0006256195483729243,0.0005747186951339245,-0.00022699194960296154
1783169494623155000,5.817155029296875,-0.00009177287574857473,-0.0015496471896767616,-0.000007429858669638634
1783169494633225000,5.827224853515625,0.0005830721347592771,-0.0008258000016212463,0.0006703448016196489
1783169494643294000,5.8372939453125,-0.00041537126526236534,0.0003923550248146057,-0.0014493425842374563
1783169494653362700,5.84736279296875,-0.0015056694392114878,-0.00025665760040283203,-0.0022195286583155394
1783169494663433000,5.857432861328125,-0.00038695347029715776,-0.0010444903746247292,-0.0018871750216931105
1783169494673502000,5.867501953125,-0.0011510143522173166,-0.0002862885594367981,0.0012713340111076832
1783169494683571000,5.877571044921875,-0.000011412426829338074,-0.0005744434893131256,0.0002510074991732836
1783169494693641000,5.887640869140625,0.0016751674702391028,-0.0011576758697628975,0.0012291865423321724
1783169494703710000,5.8977099609375,-0.00024134968407452106,-0.00005917344242334366,-0.0000305867288261652
1783169494713779000,5.907779052734375,-0.001407814328558743,0.0028687058947980404,0.0003869968932121992
1783169494723848700,5.9178486328125,0.0000964341452345252,-0.0038778288289904594,0.0011857200879603624
1783169494733918000,5.92791796875,0.00008098781108856201,0.0012514195404946804,-0.0009690434671938419
1783169494743987700,5.93798779296875,0.0008929527248255908,0.00142199220135808,-0.0021089555229991674
1783169494754057000,5.948056884765625,-0.001200824393890798,-0.0010158652439713478,0.001467403257265687
1783169494764125700,5.958125732421875,-0.0007357613649219275,-0.00022288691252470016,0.002733290661126375
1783169494774196000,5.968196044921875,-0.00017516606021672487,-0.004279946908354759,-0.002339498605579138
1783169494784264700,5.9782646484375,0.001514388364739716,-0.0007395939901471138,-0.0029149327892810106
1783169494794334000,5.988333984375,0.0012962755281478167,-0.00010922364890575409,-0.0040848590433597565
1783169494804403700,5.99840380859375,-0.0011020554229617119,-0.0007530758157372475,0.0010452962014824152
1783169494814473000,6.008472900390625,-0.00008845643606036901,-0.00019620917737483978,0.0003257100470364094
1783169494824541700,6.018541748046875,0.002705426886677742,0.001312538981437683,-0.00035533448681235313
1783169494834612000,6.028612060546875,0.001911005936563015,-0.0017876466736197472,0.0006433508824557066
1783169494844680700,6.0386806640625,0.0013008196838200092,-0.000049365684390068054,-0.002222849288955331
1783169494854751000,6.0487509765625,-0.0036409420426934958,-0.0016110427677631378,0.0004379148595035076
1783169494864819700,6.05881982421875,0.00026948103914037347,0.0006616800092160702,0.003994870465248823
1783169494874889000,6.068888916015625,0.00038905697874724865,-0.0018408922478556633,0.002163680735975504
1783169494884958700,6.078958740234375,-0.0005549684865400195,0.000017712824046611786,0.0017858275678008795
1783169494895028000,6.089028076171875,-0.0009254141477867961,-0.0011277133598923683,0.0024500200524926186
1783169494905096700,6.0990966796875,-0.0008426089771091938,-0.0003638109192252159,-0.0035506279673427343
1783169494915167000,6.1091669921875,0.0003108061500824988,0.002345156390219927,-0.001307714032009244
1783169494925235700,6.119235595703125,0.0011362519580870867,-0.00015470478683710098,-0.0010505036916583776
1783169494935305000,6.129304931640625,-0.0014952175552025437,-0.0010657720267772675,0.0008643092587590218
1783169494945375000,6.139375,-0.0008897572988644242,0.0004526246339082718,-0.001430814154446125
1783169494955444000,6.14944384765625,-0.0027025709860026836,0.0013240110129117966,0.0017428749706596136
1783169494965514000,6.159513916015625,-0.0008297798922285438,-0.000059254467487335205,0.0005879909731447697
1783169494975582700,6.169582763671875,0.0007974114851094782,0.0004664533771574497,-0.0010413310956209898
1783169494985652000,6.17965185546875,0.0017353122821077704,-0.00001212581992149353,-0.0038037339691072702
1783169494995721700,6.1897216796875,0.0008466154104098678,-0.0012342510744929314,0.002287714509293437
1783169495005791000,6.199791015625,0.0002527473261579871,-0.00019541475921869278,0.0012860603164881468
1783169495015860000,6.20985986328125,-0.0022823158651590347,0.00015425775200128555,-0.00013952981680631638
1783169495025930000,6.219929931640625,-0.0014167657354846597,0.00027798255905508995,0.000603067921474576
1783169495035998700,6.229998779296875,-0.0028482149355113506,-0.001079430803656578,-0.000027302419766783714
1783169495046068000,6.24006787109375,-0.0007555823540315032,-0.000529089942574501,-0.0015173079445958138
1783169495056137700,6.2501376953125,0.0004873148282058537,0.0004408336244523525,-0.0023817699402570724
1783169495066207000,6.26020703125,-0.001245547435246408,0.0007307701744139194,-0.00001699640415608883
1783169495076276700,6.27027685546875,0.0009443698800168931,-0.0011110715568065643,0.0013148505240678787
1783169495086346000,6.280345947265625,-0.0003428304335102439,-0.001165042631328106,0.002187953796237707
1783169495096414700,6.290414794921875,0.0011938135139644146,0.0009327293373644352,0.0003738084342330694
1783169495106485000,6.300485107421875,0.0008527531754225492,0.000741670373827219,-0.0011707786470651627
1783169495116553700,6.3105537109375,-0.002534255152568221,-0.001638929359614849,0.0016311329090967774
1783169495126623000,6.320623046875,-0.0009306202409788966,-0.0004349770024418831,0.0010709862690418959
1783169495136692700,6.330692626953125,-0.0005455272039398551,-0.0011020991951227188,0.00045446446165442467
1783169495146762000,6.340761962890625,0.0002993876696564257,0.0017999042756855488,-0.0018669473938643932
1783169495156831700,6.350831787109375,-0.0009419117122888565,-0.0018148040398955345,-0.0003265750128775835
1783169495166901000,6.36090087890625,0.00016229727771133184,-0.0027269218116998672,-0.004119060933589935
1783169495176969700,6.3709697265625,0.001825974090024829,0.002796740736812353,-0.0005757247563451529
1783169495187039700,6.381039794921875,-0.0006424705497920513,-0.000518294982612133,0.000637139193713665
1783169495197108700,6.391108642578125,-0.00043287978041917086,0.0007072919979691505,-0.0004164071287959814
1783169495207178000,6.401177978515625,-0.00042322592344135046,0.00021108100190758705,-0.001541484147310257
1783169495217248000,6.411248046875,-0.00038407742977142334,-0.0012872135266661644,-0.0007270895875990391
1783169495227316700,6.421316650390625,0.001606867997907102,0.0017377082258462906,0.0002261558547616005
1783169495237385700,6.4313857421875,-0.0015710820443928242,0.00009959796443581581,0.001278370851650834
1783169495247455700,6.441455810546875,0.001475235796533525,0.0001878882758319378,-0.0027043179143220186
1783169495257525000,6.45152490234375,0.0004275482497178018,-0.002033188007771969,0.0036891328636556864
1783169495267594800,6.4615947265625,0.00032343086786568165,-0.0012276563793420792,-0.0002462361007928848
1783169495277664000,6.4716640625,-0.0013024290092289448,0.0002543930895626545,0.0007244860753417015
1783169495287732700,6.481732666015625,0.00147073226980865,0.002149066422134638,-0.00011984119191765785
1783169495297803000,6.491802978515625,-0.001069657038897276,0.0017381408251821995,-0.001944106537848711
1783169495307871700,6.501871826171875,-0.00040082482155412436,0.0009431466460227966,0.00113726407289505
1783169495317941000,6.51194091796875,-0.0002727267565205693,0.0004973337054252625,0.0006011698860675097
1783169495328010800,6.5220107421875,-0.0016350282821804285,-0.0008740900084376335,0.00009820237755775452
1783169495338080000,6.532080078125,-0.0004949290305376053,0.002753402106463909,0.0008574696257710457
1783169495348148700,6.542148681640625,0.002069471636787057,-0.00036595016717910767,0.0014305498916655779
1783169495358219000,6.552218994140625,0.00019274197984486818,0.002484697848558426,-0.0016003935597836971
1783169495368287700,6.562287841796875,-0.0008312566205859184,0.00010234024375677109,-0.0042021619156003
1783169495378357800,6.572357666015625,-0.001192114781588316,-0.0013283099979162216,0.0013183050323277712
1783169495388426800,6.5824267578125,0.00018922006711363792,-0.0022192969918251038,0.0008113975636661053
1783169495398496000,6.59249609375,-0.0013580763479694724,0.0018572034314274788,0.0021898497361689806
1783169495408565800,6.602565673828125,0.00023451494053006172,-0.0007753064855933189,-0.0017709373496472836
1783169495418635000,6.612635009765625,-0.00010716868564486504,0.0006651971489191055,0.0011249841190874577
1783169495428703700,6.622703857421875,0.0011883670231327415,0.0017813905142247677,0.0005420073866844177
1783169495438773800,6.632773681640625,-0.0032758896704763174,0.0013515567407011986,0.00008820462971925735
1783169495448842800,6.6428427734375,-0.000009155948646366596,-0.00011111237108707428,0.0020945612341165543
1783169495458912800,6.652912841796875,0.0005663532065227628,-0.0001193685457110405,0.00018640654161572456
1783169495468981800,6.662981689453125,-0.0009269120637327433,0.0005119852721691132,-0.0004941772203892469
1783169495479050800,6.67305078125,-0.003536277450621128,-0.001046496443450451,0.000865366542711854
1783169495489121000,6.68312109375,0.0025352435186505318,0.0009505688212811947,0.0012479810975492
1783169495499189800,6.693189697265625,-0.0000347070163115859,-0.00019805226475000381,0.0022629117593169212
1783169495509258800,6.7032587890625,0.0013591342139989138,-0.0012701218947768211,0.000584740424528718
1783169495519328800,6.713328857421875,-0.0009479621658101678,-0.00015532225370407104,0.00029019475914537907
1783169495529397800,6.723397705078125,0.000052177696488797665,0.00002245977520942688,0.0005195720586925745
1783169495539466800,6.733466796875,0.001094805309548974,-0.0007538525387644768,-0.0006199947092682123
1783169495549536800,6.743536865234375,-0.0004763456527143717,-0.0020856810733675957,-0.0029046721756458282
1783169495559605800,6.753605712890625,0.0007199462852440774,-0.0026872893795371056,0.0014677057042717934
1783169495569676000,6.763676025390625,0.0009216416510753334,0.001087285578250885,0.0014927247539162636
1783169495579744800,6.773744873046875,0.002684121485799551,0.001905408687889576,0.0024615826550871134
1783169495589813800,6.783813720703125,0.000433105684351176,0.0015505924820899963,-0.0005374562460929155
1783169495599883800,6.7938837890625,-0.0002955351956188679,0.00002513360232114792,0.0001807983499020338
1783169495609953000,6.803953125,0.00012793438509106636,0.002100373152643442,0.0016532056033611298
1783169495620021800,6.814021728515625,-0.00017060607206076384,-0.0014208583161234856,0.0006225623656064272
1783169495630092000,6.824092041015625,-0.0012004903983324766,0.00034507038071751595,-0.002058083424344659
1783169495640160800,6.834160888671875,0.000541749584954232,0.0006870203651487827,-0.0008785694371908903
1783169495650230000,6.84422998046875,-0.001275355345569551,-0.0013771383091807365,-0.00129403593018651
1783169495660299800,6.8542998046875,-0.0006764105055481195,0.001601607073098421,-0.0007986882701516151
1783169495670369000,6.864369140625,0.0006649281131103635,-0.0005694357678294182,-0.00233753421343863
1783169495680438800,6.874438720703125,0.0034822861198335886,-0.0010594567283988,0.0022841154132038355
1783169495690507800,6.8845078125,-0.0010731106158345938,0.0006834450177848339,-0.00028702267445623875
1783169495700576800,6.89457666015625,-0.0015657953917980194,-0.000420435331761837,0.0010544115211814642
1783169495710646800,6.904646728515625,-0.0010408660164102912,0.00008836248889565468,-0.0009086520876735449
1783169495720715800,6.9147158203125,0.0003572934656403959,-0.0006261635571718216,0.0018820744007825851
1783169495730784800,6.92478466796875,-0.0009612152352929115,0.0010952292941510677,0.0005829602014273405
1783169495740854800,6.934854736328125,0.0006241645314730704,0.002853181678801775,0.0000061194878071546555
1783169495750923800,6.944923828125,-0.0004649150650948286,-0.00222026277333498,-0.00042340904474258423
1783169495760993800,6.954993896484375,-0.001245487597770989,0.0008184039033949375,-0.0012806807644665241
1783169495771062800,6.965062744140625,0.0009234507451765239,-0.0009449990466237068,-0.0010994307231158018
1783169495781131800,6.9751318359375,-0.0010592726757749915,0.00008910614997148514,0.00042203348129987717
1783169495791201800,6.985201904296875,-0.0003013036912307143,-0.0008492758497595787,0.0023760171607136726
1783169495801270800,6.995270751953125,-0.0006813368527218699,-0.00044847000390291214,0.0009320513345301151
1783169495811339800,7.00533984375,0.0015128273516893387,0.0010357764549553394,-0.00033636786974966526
1783169495821409800,7.015409912109375,-0.0003745548892766237,0.0010333796963095665,0.0011408873833715916
1783169495831478800,7.025478759765625,-0.0006613131845369935,-0.00060231052339077,-0.0022224998101592064
1783169495841547800,7.0355478515625,-0.0013212446356192231,0.0022027972154319286,0.000024941982701420784
1783169495851617800,7.04561767578125,-0.0011026965221390128,0.0004330226220190525,0.0006962469778954983
1783169495861686800,7.055686767578125,0.002240902278572321,0.0015355711802840233,-0.0017402791418135166
1783169495871756800,7.0657568359375,-0.0007562991231679916,-0.0019661923870444298,-0.0006505283527076244
1783169495881826000,7.075825927734375,-0.0005597576964646578,0.00036993250250816345,-0.0018830392509698868
1783169495891894800,7.085894775390625,0.002028514165431261,-0.0008024126291275024,0.0005294589791446924
1783169495901964800,7.09596484375,-0.0014511721674352884,0.0017986963503062725,0.0005030937027186155
1783169495912033800,7.10603369140625,0.0009873256785795093,0.0013755038380622864,-0.0024102902971208096
1783169495922103000,7.11610302734375,-0.0008225585334002972,-0.0006085513159632683,-0.0008920221589505672
1783169495932172800,7.1261728515625,0.0019738103728741407,0.0002472391352057457,-0.00036906893365085125
1783169495942241800,7.13624169921875,0.0028151029255241156,0.0004152846522629261,-0.001267086947336793
1783169495952310800,7.146310791015625,-0.002589781302958727,0.0028081131167709827,-0.0009732446633279324
1783169495962380800,7.156380859375,0.0014949752949178219,-0.0008398853242397308,0.0017748713726177812
1783169495972449800,7.16644970703125,-0.0011228120420128107,0.001271671149879694,-0.0026106240693479776
1783169495982519800,7.176519775390625,0.00036935717798769474,-0.0007717721164226532,-0.0015632028225809336
1783169495992588800,7.1865888671875,0.0004739703144878149,-0.0019629914313554764,0.0024388006422668695
1783169496002657800,7.19665771484375,0.0022902460768818855,0.00019044103100895882,-0.001028368715196848
1783169496012727800,7.206727783203125,0.0003065051860176027,-0.0041060782968997955,0.00015252362936735153
1783169496022796800,7.216796875,0.0013824222842231393,-0.000275920145213604,0.00006011198274791241
1783169496032865800,7.22686572265625,0.0005810814327560365,-0.00006451364606618881,-0.0010990365408360958
1783169496042935800,7.236935791015625,0.001555265742354095,-0.0007984815165400505,0.002177716698497534
1783169496053004800,7.2470048828125,-0.0011429477017372847,-0.0006341002881526947,0.001196518074721098
1783169496063074800,7.25707470703125,-0.0003250908339396119,-0.0009169280529022217,-0.00015130778774619102
1783169496073143800,7.267143798828125,0.0009807591559365392,0.0005755117163062096,0.0017622685991227627
1783169496083212800,7.277212890625,0.00013680336996912956,-0.0009259786456823349,0.002831794088706374
1783169496093282800,7.28728271484375,0.0012697145575657487,0.0003533340059220791,0.0018102518515661359
1783169496103351800,7.297351806640625,-0.0004578781081363559,-0.000721251592040062,-0.004242580384016037
1783169496113420800,7.3074208984375,0.0016537717310711741,-0.0017079953104257584,-0.0011362014338374138
1783169496123490800,7.31749072265625,-0.002487709978595376,0.0008835266344249249,0.0005586342886090279
1783169496133559800,7.327559814453125,0.00039023120189085603,-0.001094859093427658,0.0006861633155494928
1783169496143628800,7.33762890625,0.0015503042377531528,0.0010497844778001308,-0.0005045358557254076
1783169496153698800,7.34769873046875,0.0008674012497067451,-0.00009038764983415604,0.0003254166804254055
1783169496163767800,7.357767822265625,0.0005885682767257094,-0.0016904156655073166,-0.0008756688330322504
1783169496173837800,7.367837890625,0.0007773702964186668,0.0008076620288193226,0.0016687981551513076
1783169496183906800,7.37790673828125,-0.0021129585802555084,-0.0005675945430994034,0.0008866277057677507
1783169496193975800,7.387975830078125,-0.0022283289581537247,0.0007286695763468742,-0.002218697452917695
1783169496204045800,7.3980458984375,0.0009767855517566204,0.0008727465756237507,-0.003310859901830554
1783169496214114800,7.40811474609375,-0.0024300627410411835,0.001132892444729805,-0.000286557013168931
1783169496224183800,7.418183837890625,0.0009265855187550187,0.0007483321242034435,-0.0021329266019165516
1783169496234253800,7.42825390625,-0.002193138934671879,-0.0020135752856731415,0.0007726645562797785
1783169496244322800,7.43832275390625,-0.00017765851225703955,-0.0010630926117300987,-0.0006534582935273647
1783169496254392800,7.448392822265625,-0.0017724958015605807,-0.0027926135808229446,0.0011186162009835243
1783169496264461800,7.4584619140625,-0.002434824127703905,0.0006798822432756424,-0.0018979462329298258
1783169496274530800,7.46853076171875,-0.0008465417195111513,0.0014537051320075989,-0.0009191061835736036
1783169496284600800,7.478600830078125,-0.0033587017096579075,-0.002439836971461773,-0.00034652650356292725
1783169496294669800,7.488669921875,-0.0010017718886956573,-0.000761241652071476,0.0006026115734130144
1783169496304738800,7.49873876953125,-0.0035594715736806393,-0.000538867898285389,-0.003811843926087022
1783169496314808800,7.508808837890625,0.0006698991055600345,-0.0008493000641465187,-0.0011219973675906658
1783169496324877800,7.5188779296875,0.00021902599837630987,0.0036911237984895706,-0.0005645975470542908
1783169496334946800,7.52894677734375,-0.000350136891938746,-0.00004454609006643295,0.00008106417953968048
1783169496345016800,7.539016845703125,0.0008237844449467957,0.0005192449316382408,0.0005985165480524302
1783169496355085800,7.5490859375,-0.001473521231673658,-0.0004824753850698471,-0.0007006167434155941
1783169496365155600,7.559155517578125,0.00006019312422722578,-0.0019008750095963478,0.0011478832457214594
1783169496375224800,7.569224853515625,-0.00010768952779471874,-0.0017343545332551003,0.000026617199182510376
1783169496385293800,7.5792939453125,0.00030030676862224936,-0.0028909659013152122,-0.0001310417428612709
1783169496395363800,7.58936376953125,0.0024077645502984524,0.0015271538868546486,0.00223180977627635
1783169496405432600,7.5994326171875,-0.0008876307401806116,0.0005433820188045502,0.000387570820748806
1783169496415501800,7.609501708984375,-0.0009919758886098862,0.001095492858439684,0.00045042275451123714
1783169496425571800,7.61957177734375,-0.0008351157885044813,-0.0010595368221402168,0.0010235351510345936
1783169496435640800,7.629640869140625,0.0004485852550715208,0.0016965554095804691,-0.0013879998587071896
1783169496445709800,7.639709716796875,-0.0033243149518966675,0.0008515343070030212,0.0006498510483652353
1783169496455779800,7.64977978515625,0.00025190028827637434,0.0018177307210862637,0.0011983036529272795
1783169496465848800,7.659848876953125,0.0003184792585670948,0.0006821588613092899,-0.00003926735371351242
1783169496475918800,7.6699189453125,0.0007012264686636627,-0.0002435334026813507,-0.00018884288147091866
1783169496485987800,7.67998779296875,-0.0003677663626149297,-0.0020781848579645157,0.0015523317269980907
1783169496496056800,7.690056884765625,-0.0006602539215236902,-0.00033617205917835236,0.0006941508036106825
1783169496506126800,7.700126953125,0.0003687915741465986,0.001414323691278696,-0.0005721820052713156
1783169496516195800,7.71019580078125,-0.0012551331892609596,0.0012721316888928413,-0.0024045673198997974
1783169496526264800,7.720264892578125,0.000894570373930037,-0.0010634604841470718,-0.0011227880604565144
1783169496536335000,7.730335205078125,-0.0011569698108360171,-0.002318265847861767,-0.00168805499561131
1783169496546404000,7.740404052734375,-0.002211581449955702,-0.0009259656071662903,-0.0034260337706655264
1783169496556474000,7.75047412109375,-0.0005507214227691293,0.0006504175253212452,0.001355984015390277
1783169496566543400,7.76054345703125,0.0000950951362028718,-0.003107835538685322,-0.0015386054292321205
1783169496576612400,7.7706123046875,0.0003019898431375623,-0.0025809993967413902,-0.004514979664236307
1783169496586682400,7.780682373046875,0.00018294656183570623,0.00003875233232975006,-0.002098959404975176
1783169496596751000,7.790751220703125,-0.00003638351336121559,-0.0018424531444907188,0.001351804006844759
1783169496606820400,7.8008203125,0.0007662932621315122,0.00015544984489679337,0.0017416909104213119
1783169496616890000,7.81089013671875,0.00010705168824642897,-0.0008652703836560249,0.0018921076552942395
1783169496626959400,7.82095947265625,-0.0033808904699981213,-0.0013997666537761688,-0.0007755807600915432
1783169496637028000,7.831028076171875,-0.0016503988299518824,-0.0015277108177542686,0.0009510891977697611
1783169496647098400,7.841098388671875,-0.00020829704590141773,-0.0008467407897114754,-0.001305407378822565
1783169496657167000,7.8511669921875,0.0013450473779812455,-0.0006868876516819,0.002027238719165325
1783169496667237400,7.8612373046875,0.0005871117464266717,-0.0010019401088356972,0.0005169599317014217
1783169496677306000,7.87130615234375,0.0014305105432868004,0.0006720125675201416,0.0022084065712988377
1783169496687375400,7.881375244140625,0.0024012327194213867,0.0013162312097847462,-0.002543471986427903
1783169496697445000,7.891445068359375,0.0007268448825925589,0.0008933008648455143,0.0015820537228137255
1783169496707514400,7.901514404296875,-0.0006856957916170359,0.00009648315608501434,-0.000056855613365769386
1783169496717583000,7.9115830078125,-0.0011877893703058362,0.001873148139566183,-0.00023657269775867462
1783169496727653400,7.9216533203125,-0.002668773289769888,-0.002721870318055153,0.0016430863179266453
1783169496737722000,7.93172216796875,-0.0003165515372529626,0.00033877696841955185,0.00004802108742296696
1783169496747792100,7.941792236328125,0.0013135693734511733,-0.00039332639425992966,0.00015454762615263462
1783169496757861000,7.951861083984375,0.001203743857331574,-0.0007353164255619049,-0.0007660980336368084
1783169496767930400,7.961930419921875,-0.0024059046991169453,-0.0018889978528022766,0.0005377857014536858
1783169496778000100,7.972000244140625,-0.0007256875978782773,-0.00004020240157842636,-0.0021537025459110737
1783169496788069400,7.9820693359375,0.0013526433613151312,0.0009427699260413647,0.001804820029065013
1783169496798138000,7.99213818359375,0.0012846383033320308,-0.0011581918224692345,0.0006718751974403858
1783169496808208100,8.0022080078125,-0.0009082085452973843,-0.0012316955253481865,0.002251395955681801
1783169496818277000,8.012277099609374,-0.0023620559368282557,-0.0004948070272803307,0.002071214374154806
1783169496828346400,8.022346435546876,-0.00007440068293362856,-0.00007748976349830627,-0.001733643701300025
1783169496838416400,8.03241650390625,-0.0006035085534676909,0.00012044468894600868,0.0008235177956521511
1783169496848485000,8.042485107421875,-0.002368918154388666,-0.0019336510449647903,0.0008357681799679995
1783169496858555400,8.052555419921875,0.0012543639168143272,0.00008161645382642746,-0.0003573526628315449
1783169496868624100,8.0626240234375,0.00228580622933805,0.0010448815301060677,-0.003056999295949936
1783169496878693400,8.072693359375,-0.0022255508229136467,0.0006935643032193184,0.001601719530299306
1783169496888763100,8.08276318359375,-0.0007371101528406143,-0.0009392192587256432,-0.0020856934133917093
1783169496898832400,8.092832275390625,-0.00033320405054837465,0.0007645804435014725,-0.0013947836123406887
1783169496908901000,8.102901123046875,0.000346700893715024,-0.002108437940478325,0.0038247457705438137
1783169496918971400,8.112971435546875,0.002540085930377245,0.0008004037663340569,0.000155250309035182
1783169496929040100,8.1230400390625,0.00003458396531641483,-0.0004787128418684006,0.0010900197084993124
1783169496939110400,8.1331103515625,-0.0008200918091461062,0.004188099876046181,-0.0007075169123709202
1783169496949179100,8.14317919921875,0.0006883225287310779,-0.0011462122201919556,0.001760434708558023
1783169496959248400,8.153248291015625,0.002558831823989749,0.0002880343236029148,-0.0008385560940951109
1783169496969318100,8.163318115234375,-0.002654838841408491,-0.00034393370151519775,-0.0018718622159212828
1783169496979387400,8.173387451171875,-0.0026724282652139664,0.000669336412101984,-0.0010370996315032244
1783169496989456100,8.1834560546875,-0.000007402966730296612,-0.0020809099078178406,0.001643105410039425
1783169496999526100,8.193526123046874,-0.0007564176339656115,0.0018986179493367672,-0.000725665595382452
1783169497009595100,8.20359521484375,-0.00008689903188496828,0.0004597119987010956,-0.0003293873742222786
1783169497019664400,8.213664306640625,0.002734509762376547,0.00022535258904099464,0.0010252271313220263
1783169497029734100,8.223734130859375,0.0025259843096137047,0.002844571601599455,0.0018766396678984165
1783169497039803400,8.233803466796875,-0.00018814264331012964,0.0006803451105952263,0.003154548117890954
1783169497049873200,8.243873046875,-0.0003508618101477623,0.00238929595798254,0.00029777525924146175
1783169497059942100,8.253942138671874,0.0003101553302258253,-0.00034161563962697983,-0.0004862372297793627
1783169497070011100,8.26401123046875,0.0006028367788530886,0.0012570801191031933,0.0028376542031764984
1783169497080081200,8.2740810546875,-0.001009395462460816,0.00014124298468232155,0.004168813116848469
1783169497090150100,8.284150146484375,-0.00019579962827265263,-0.0005256123840808868,-0.002731703920289874
1783169497100219100,8.29421923828125,-0.00024855334777384996,-0.0008159037679433823,-0.0011293375864624977
1783169497110289400,8.304289306640625,-0.0005052820779383183,0.0002315170131623745,-0.000016668811440467834
1783169497120358100,8.314358154296874,-0.0006716767093166709,0.0011812932789325714,-0.0017307954840362072
1783169497130428400,8.324428466796874,-0.00027939293067902327,-0.0007747989147901535,0.0009070653468370438
1783169497140497200,8.3344970703125,0.0010350864613428712,0.001961476169526577,-0.003110924968495965
1783169497150566400,8.34456640625,0.00019805494230240583,-0.00419122539460659,-0.00019529624842107296
1783169497160636200,8.35463623046875,-0.0006023546447977424,0.0008222544565796852,0.0007735134568065405
1783169497170705400,8.364705322265625,-0.00008357083424925804,-0.0008952179923653603,0.0012182614300400019
1783169497180774100,8.374774169921874,-0.0020972469355911016,0.0012144711799919605,-0.0019426257349550724
1783169497190844400,8.384844482421874,0.0006729732849635184,-0.00022789649665355682,-0.002120258752256632
1783169497200913200,8.3949130859375,-0.00033861969131976366,0.0019328678026795387,0.0018131189281120896
1783169497210983200,8.404983154296875,-0.00000892032403498888,0.0007184660062193871,-0.00006946967914700508
1783169497221052200,8.41505224609375,-0.0010741718579083681,-0.0016874438151717186,0.0010835465509444475
1783169497231121400,8.425121337890625,0.0007042870856821537,0.0006473497487604618,0.0005879322998225689
1783169497241191200,8.435191162109374,-0.0009293360635638237,0.0012255236506462097,-0.0014905801508575678
1783169497251260200,8.44526025390625,0.0006200910429470241,-0.00008368585258722305,-0.000025308923795819283
1783169497261329200,8.4553291015625,0.00012763193808495998,-0.0006728619337081909,-0.0016451480332762003
1783169497271399200,8.465399169921875,-0.0016428375383839011,0.00027682166546583176,-0.0009071861859411001
1783169497281468200,8.47546826171875,0.0009370635962113738,0.0005325255915522575,0.003041214542463422
1783169497291537400,8.485537353515625,0.0028364299796521664,0.001998329535126686,0.003725913353264332
1783169497301607200,8.495607177734374,-0.00007135805208235979,-0.001907271333038807,0.0026738797314465046
1783169497311676200,8.50567626953125,0.0007622113917022943,-0.0009722355753183365,0.002636329270899296
1783169497321746400,8.515746337890626,-0.0008754972368478775,0.00002130400389432907,0.0012734390329569578
1783169497331815200,8.525815185546875,-0.0008970687631517649,-0.0012223916128277779,-0.0012698795180767775
1783169497341884200,8.53588427734375,-0.0005494385259225965,0.0019864835776388645,0.001921832445077598
1783169497351954200,8.5459541015625,-0.000016273697838187218,0.0008863317780196667,0.0011417926289141178
1783169497362023200,8.556023193359374,-0.00043557805474847555,0.0006806137971580029,0.0015768129378557205
1783169497372092200,8.566092041015626,0.0005295515293255448,-0.0004642792046070099,-0.0011412089224904776
1783169497382162400,8.576162353515626,0.00030782970134168863,0.0011252118274569511,-0.0010420468170195818
1783169497392231200,8.586231201171875,-0.000692986068315804,-0.002054602839052677,0.002743104239925742
1783169497402301200,8.59630126953125,-6.76838681101799e-7,-0.00013124942779541016,0.001056791516020894
1783169497412370200,8.6063701171875,0.00015644961968064308,0.000025345012545585632,-0.0035858971532434225
1783169497422439400,8.616439453125,0.0011095528025180101,-0.002369382418692112,0.00024659745395183563
1783169497432509200,8.62650927734375,0.0002155295806005597,-0.00039278436452150345,-0.00008283555507659912
1783169497442578400,8.636578369140626,-0.0006422484293580055,0.0008302964270114899,-0.0005011104512959719
1783169497452647200,8.646647216796875,0.0006994520081207156,0.0006425436586141586,0.0007111604791134596
1783169497462717200,8.65671728515625,0.0007953093154355884,-0.00029978156089782715,-0.0019691407214850187
1783169497472786200,8.6667861328125,-0.00016902131028473377,0.002397468313574791,0.0015965655911713839
1783169497482855400,8.67685546875,-0.00017858785577118397,0.001206971239298582,0.002888753078877926
1783169497492925200,8.68692529296875,0.000421954900957644,-0.0016828249208629131,0.0005640797317028046
1783169497502994200,8.696994140625,-0.0007436261512339115,0.0017361612990498543,0.0026082671247422695
1783169497513064200,8.707064208984375,-0.0005196542479097843,0.0005667675286531448,-0.002887431997805834
1783169497523133200,8.71713330078125,0.0015415818197652698,0.0004718364216387272,0.0005132246296852827
1783169497533201200,8.727201171875,-0.001467790105380118,-0.0028842794708907604,0.00023359269835054874
1783169497543271400,8.737271484375,0.0011614004615694284,-0.00042639998719096184,-0.0009427876211702824
1783169497553340200,8.747340087890626,0.0009749791934154928,0.0009078439325094223,-0.0036144708283245564
1783169497563409400,8.757409423828125,0.0015690161380916834,0.00008760998025536537,-0.00021867617033421993
1783169497573479200,8.767479248046875,-0.0003820155980065465,0.0004809587262570858,0.0019304947927594185
1783169497583548400,8.77754833984375,0.002177095739170909,0.0008106790482997894,0.0011686913203448057
1783169497593618200,8.7876181640625,-0.00014065334107726812,-0.0012474115937948227,-0.00157383200712502
1783169497603687200,8.797687255859374,0.00003400631248950958,0.00047152768820524216,-0.0005227453075349331
1783169497613756200,8.807756103515626,-0.0019300749991089106,-0.00016922876238822937,0.001137469196692109
1783169497623826200,8.817826171875,-0.0022339685820043087,-0.004271926824003458,-0.001042123418301344
1783169497633895200,8.827895263671875,0.0017157654510810971,-0.00035628071054816246,-0.00006953696720302105
1783169497643964400,8.83796435546875,-0.00046748598106205463,0.0005849096924066544,-0.000641590217128396
1783169497654034200,8.8480341796875,-0.0027165256906300783,-0.0019328426569700241,-0.00040270457975566387
1783169497664103200,8.858103271484374,-0.0009157363092526793,0.001796406228095293,0.001313618617132306
1783169497674173200,8.868173095703124,-0.00200763251632452,0.0010310141369700432,-0.0014161213766783476
1783169497684242200,8.8782421875,-0.0004372106632217765,-0.0022179665975272655,-0.0006252918392419815
1783169497694311200,8.888311279296875,-0.0017948901513591409,0.0008699684403836727,-0.0019621988758444786
1783169497704381200,8.898381103515625,-0.0004029416013509035,0.001148674637079239,0.0000520909670740366
1783169497714450200,8.9084501953125,0.0008854957413859665,0.0028011659160256386,0.0008379898499697447
1783169497724519200,8.918519287109374,-0.0015149622922763228,-0.004467114806175232,-0.0005308412946760654
1783169497734589400,8.92858935546875,-0.00105476810131222,-0.0008998103439807892,0.0013570734299719334
1783169497744658200,8.938658203125,-0.0019872691482305527,0.00046135252341628075,-0.001142879482358694
1783169497754727200,8.94872705078125,-0.0000508846715092659,0.0013079713098704815,-0.001203067135065794
1783169497764797200,8.958797119140625,0.0003410320496186614,-0.0032805348746478558,0.001781522762030363
1783169497774866400,8.968866455078125,0.0010457044700160623,-0.0016309726051986217,0.000751944724470377
1783169497784936200,8.978936279296875,0.0000491441460326314,0.0015036934055387974,-0.0018922756426036358
1783169497795005400,8.98900537109375,0.0016558292554691434,0.0012285886332392693,0.002688094973564148
1783169497805074200,8.99907421875,0.0029858718626201153,0.0005636098794639111,0.001054916763678193
1783169497815144200,9.009144287109375,0.0006532089901156723,-0.0014137872494757175,-0.00048731989227235317
