time,seconds_elapsed,z,y,x
1783170503557788400,0.073788330078125,-0.6600082155644893,0.5524572107754647,-0.2699293591130525
1783170503567858200,0.083858154296875,-0.47456689249575135,0.4437726719118654,-0.4198181246222928
1783170503577927400,0.093927490234375,-0.15548808335363865,0.3964128087133169,-0.48950738159399476
1783170503587997400,0.10399755859375,0.13511574193239212,0.3990557244375348,-0.6160618871364743
1783170503598066400,0.11406640625,0.29686054759323593,0.37568376280888915,-0.7502168942779303
1783170503608136400,0.124136474609375,0.37563597814440725,0.34964097453579307,-0.8254172428213059
1783170503618205200,0.134205078125,0.36869010452926154,0.3624836511045694,-0.9357571476764976
1783170503628275500,0.144275390625,0.14816402407586574,0.4008211266748607,-1.0867274613447486
1783170503638344200,0.15434423828125,-0.05045592951774597,0.4420408796831965,-1.1275752392355352
1783170503648414500,0.16441455078125,-0.010982581785321235,0.5115284035377204,-1.1815485292244703
1783170503658483200,0.174483154296875,0.2318640515476465,0.4530411432556808,-1.1922793282058088
1783170503668553500,0.184553466796875,0.470848748755455,0.4162875758759677,-1.138908388024196
1783170503678622200,0.194622314453125,0.5856073468357325,0.34542584105879065,-1.108582661734894
1783170503688691500,0.20469140625,0.5303764580011368,0.3442088664844632,-1.0585439347159118
1783170503698761200,0.21476123046875,0.4334299954652786,0.39928865641057487,-1.0400847334396093
1783170503708830500,0.22483056640625,0.35163141770064826,0.44315717036202545,-0.9772275875102728
1783170503718900500,0.234900390625,0.22940146082639692,0.5302642297983169,-0.7976355749916285
1783170503728969200,0.24496923828125,0.14719956295788286,0.6428961911134421,-0.6511554123494774
1783170503739039500,0.25503955078125,0.16426467952728271,0.7552861603662371,-0.5591666087536141
1783170503749108200,0.265108154296875,0.21820319046378134,0.7456776434130966,-0.5384583133762701
1783170503759178500,0.275178466796875,0.1579161872833967,0.6549672987878322,-0.6427070982821286
1783170503769247200,0.285247314453125,0.11340601442754268,0.5452611617915332,-0.8118029242929071
1783170503779317500,0.2953173828125,0.10534195043742656,0.42808629634976386,-0.9499369180679321
1783170503789386200,0.30538623046875,0.11028759014606475,0.3167497816726565,-0.9899632965732366
1783170503799456300,0.315456298828125,0.0936935982197523,0.22390914702042936,-0.9801593301132321
1783170503809525200,0.325525146484375,0.0058054714083671565,0.18583412177860736,-0.9644978697966784
1783170503819595300,0.33559521484375,-0.12064005733430384,0.17401786564812063,-0.9491492017563432
1783170503829664300,0.345664306640625,-0.11591244429051875,0.18589958823025227,-0.8175310926813631
1783170503839734300,0.355734375,0.03731003221869469,0.1999795515090227,-0.6352659154307096
1783170503849803300,0.36580322265625,0.2799041520953178,0.22355741097331044,-0.5048075343174859
1783170503859873300,0.375873291015625,0.4948614925056696,0.15091040017455815,-0.5100789353817701
1783170503869942500,0.385942626953125,0.6480220096945762,-0.027039982616901395,-0.6324415056597441
1783170503880012300,0.39601220703125,0.7040460947334766,-0.20933321691825985,-0.7702640953980385
1783170503890081300,0.406081298828125,0.6486860265612602,-0.4157493773460388,-0.9473638527095317
1783170503900151300,0.4161513671875,0.5049865806788206,-0.5734495837911963,-1.1222110818538815
1783170503910220300,0.42622021484375,0.2711649653226137,-0.5767503789022564,-1.1527714206166564
1783170503920290300,0.436290283203125,0.007467851662635803,-0.4321878864496946,-1.1180072004232555
1783170503930359300,0.446359375,-0.17871172255277631,-0.32281054301634426,-1.0843662851713598
1783170503940429300,0.45642919921875,-0.19121932194828986,-0.2480493165425956,-1.0140088466145099
1783170503950498300,0.466498291015625,-0.13993044873774052,-0.26005539615675805,-1.0210348727937788
1783170503960568300,0.476568359375,-0.12809095786213873,-0.33613866501450534,-1.0818334787581114
1783170503970637300,0.48663720703125,-0.10511106429100037,-0.40756154084578156,-1.0560584745757282
1783170503980706300,0.496706298828125,-0.07620762588977813,-0.4600007531352341,-1.100467379014194
1783170503990776300,0.5067763671875,0.045991935846209524,-0.5694676745481789,-1.116511920364201
1783170504000845300,0.51684521484375,0.17380290772318838,-0.6204682323366403,-1.014579047717899
1783170504010915300,0.526915283203125,0.3201858936011791,-0.646901481232047,-0.9170935098692774
1783170504020984300,0.536984375,0.48135962137579913,-0.6433963957205414,-0.8318242603193968
1783170504031054300,0.547054443359375,0.5431546910315752,-0.6962186159782111,-0.6995492217056453
1783170504041123300,0.557123291015625,0.5210948349148035,-0.7739087355107068,-0.6511106233596802
1783170504051193300,0.567193359375,0.6376701270282268,-0.8717021702647209,-0.654534679524228
1783170504061258800,0.5772587890625,0.8183563645243644,-1.0316700293809176,-0.6368610026024282
1783170504071328800,0.587328857421875,0.8828986870616674,-1.1946798865415156,-0.6425069726001471
1783170504081397800,0.597397705078125,0.8401660452723503,-1.2545039483852685,-0.6404173068445176
1783170504091467800,0.6074677734375,0.8088999693930149,-1.2465453905962407,-0.5897441909121349
1783170504101536800,0.617536865234375,0.7793734306573867,-1.205273322878778,-0.4397724963597953
1783170504111606800,0.627606689453125,0.6606143647640943,-1.1999755087316035,-0.30750048995334656
1783170504121676000,0.637676025390625,0.504890719088912,-1.215987609116733,-0.27042276865318415
1783170504131745800,0.647745849609375,0.3936263928651809,-1.3156418693065643,-0.2788095983242616
1783170504141815000,0.65781494140625,0.2799099973142147,-1.3437373523257672,-0.22291434556310996
1783170504151884800,0.667884765625,0.0682575436681509,-1.3314863580398262,-0.16073771097753195
1783170504161954000,0.6779541015625,-0.1317652624607086,-1.291103494247049,-0.09329814176191575
1783170504172023800,0.68802392578125,-0.3531523436576128,-1.225281945554167,-0.0843707572070416
1783170504182092800,0.6980927734375,-0.6425128908842802,-1.201426730453223,-0.17178886448703706
1783170504192162800,0.708162841796875,-0.9149988756775855,-1.1708211643092334,-0.2587892304121516
1783170504202231800,0.718231689453125,-1.0904735160052776,-1.0988872702158987,-0.30609617611337453
1783170504212302000,0.728302001953125,-1.1667705737441778,-0.9980261184543371,-0.2551373203084804
1783170504222370800,0.738370849609375,-1.3330115217804908,-0.903305369143933,-0.10655954606626182
1783170504232440800,0.74844091796875,-1.3914303930014371,-0.7576373996675014,0.06902954182079993
1783170504242509800,0.758509765625,-1.1697907983481883,-0.6340734177105128,0.23116691786265
1783170504252579000,0.7685791015625,-0.8594616973727941,-0.6679834322273731,0.35400008306074887
1783170504262648800,0.77864892578125,-0.7065162842392921,-0.7559175901375711,0.33753421102613207
1783170504272718000,0.788718017578125,-0.6987129170119762,-0.8306051668532192,0.22371159688802433
1783170504282787800,0.798787841796875,-0.8553571846634149,-0.9037347004719078,0.12576495346683078
1783170504292856800,0.80885693359375,-1.0445090526878833,-0.9619434360735117,0.03541371534438804
1783170504302926800,0.8189267578125,-1.240299920335412,-0.9036511138416826,-0.053918335798149926
1783170504312995800,0.828995849609375,-1.450690975743532,-0.7398983293592929,-0.12698439399288036
1783170504323065900,0.83906591796875,-1.6457605433791875,-0.5856617073714733,-0.23330692556602878
1783170504333134800,0.849134765625,-1.8478098868995905,-0.41049028777405616,-0.29711264092447237
1783170504343204900,0.859204833984375,-2.056502906218171,-0.21534707038030027,-0.33395931168142706
1783170504353273900,0.86927392578125,-2.2255296855807303,-0.04381576085090637,-0.36669812699444587
1783170504363344000,0.87934375,-2.2795962068110702,0.09060703038126229,-0.33134412421435117
1783170504373412900,0.889412841796875,-2.051885183289647,0.2085942351192236,-0.20677712096096948
1783170504383483000,0.89948291015625,-1.5784762286573648,0.24207214182913303,-0.09104419795582071
1783170504393552000,0.9095517578125,-0.9987520946413277,0.17156813440844415,0.012422587993182242
1783170504403622000,0.919621826171875,-0.45097851163744923,0.09751154907271266,0.06336858431650326
1783170504413691000,0.92969091796875,-0.1132832648307085,-0.0027570436231791973,0.0333850133952219
1783170504423761000,0.939760986328125,0.11888707618713379,-0.0038056758932769295,0.03169568348523462
1783170504433830000,0.949829833984375,0.28131811054646966,0.043308834242075676,0.05469758567549288
1783170504443900000,0.95989990234375,0.36153146494627,0.17284253825843332,0.1050376063291449
1783170504453968600,0.96996875,0.41189153287410735,0.3190022367745638,0.09273013261561282
1783170504464039000,0.980038818359375,0.5266799415707588,0.44649347517788407,0.13159522138973698
1783170504474108000,0.99010791015625,0.6280290229797363,0.5452278440438211,0.14162495942963285
1783170504484178000,1.000177978515625,0.6770563809990883,0.5811730176500975,0.21275681642508132
1783170504494247000,1.010246826171875,0.7863286566227674,0.5986079904451966,0.2619052435408346
1783170504504316000,1.02031591796875,0.929735257038474,0.5877946277469396,0.29124190399385985
1783170504514386000,1.030385986328125,1.0710101061224937,0.515504467561841,0.31922537800595163
1783170504524455000,1.040454833984375,1.1081377675116062,0.398741105530411,0.311153167241998
1783170504534525000,1.05052490234375,1.0246522595733403,0.32065204980820416,0.2669217199959792
1783170504544594000,1.060593994140625,0.858216081225872,0.297986921274662,0.21816833834610877
1783170504554664000,1.070663818359375,0.6476888322174549,0.31962387580424545,0.25761899932269006
1783170504564732700,1.080732666015625,0.4715992748618126,0.3955893635012209,0.3353799921343103
1783170504574803000,1.090802978515625,0.419326066789031,0.49022374970242377,0.4116360968083143
1783170504584871700,1.10087158203125,0.42859599943757054,0.5587283999994397,0.4942573526000604
1783170504594942000,1.11094189453125,0.40771570849418637,0.6058243515647947,0.5470343089438975
1783170504605010700,1.1210107421875,0.21334990521371364,0.5823481989093124,0.5317429605813697
1783170504615081000,1.1310810546875,-0.053014381828904146,0.5569688429810107,0.4460549376301467
1783170504625150000,1.14114990234375,-0.22547990346848965,0.5543094145134091,0.39412491697184737
1783170504635219700,1.1512197265625,-0.24698095665872097,0.5367047842398286,0.3800994603592902
1783170504645289000,1.1612890625,-0.14023615368604658,0.5993507716365158,0.44167248476222154
1783170504655358700,1.171358642578125,0.027708091136813162,0.7042915939271449,0.5312623374575749
1783170504665428000,1.181427978515625,-0.011940613162517547,0.7817210166968405,0.5380616056762635
1783170504675497700,1.191497802734375,-0.10067162053883075,0.7887661129027604,0.5242620302414521
1783170504685567000,1.20156689453125,-0.007007832935452461,0.7408274269029498,0.5282791934609413
1783170504695636700,1.21163671875,0.2438724692493677,0.6441663571797311,0.49505982808936383
1783170504705706000,1.2217060546875,0.5555383717864751,0.5119352307729422,0.4283175843549892
1783170504715776000,1.23177587890625,0.8482435532659292,0.3531181491270661,0.37445633990578353
1783170504725844700,1.2418447265625,1.080645949473977,0.23725977311134336,0.3300602218836546
1783170504735915000,1.2519150390625,1.1529863785415888,0.13662220097258687,0.37287623110748824
1783170504745983700,1.261983642578125,1.1379115590065716,0.12697758979275822,0.4293157650794834
1783170504756054000,1.272053955078125,1.0461813698142766,0.1056182831607759,0.4701100957499817
1783170504766122800,1.282122802734375,0.9081126232951879,0.043279315886646505,0.46251792358793314
1783170504776192000,1.29219189453125,0.7662690344125032,0.05446589581146836,0.4923327412130311
1783170504786261800,1.30226171875,0.6371914036005735,0.06845876532867551,0.5119065161351114
1783170504796331000,1.3123310546875,0.5648229174822569,0.04741539277806878,0.47383846862334755
1783170504806400800,1.32240087890625,0.4779156184017658,-0.0391828403532505,0.3628171208426356
1783170504816470000,1.332469970703125,0.3878068929314613,-0.11343947830572723,0.30524109365399926
1783170504826539800,1.342539794921875,0.24660686264932155,-0.13427841432541607,0.307895042228885
1783170504836608800,1.35260888671875,0.08845511304438114,-0.1431599321782589,0.30176695127002895
1783170504846679000,1.362678955078125,0.025938158854842186,-0.1273399933643639,0.29420968602458014
1783170504856747800,1.372747802734375,-0.0301420402854681,-0.09019158144816755,0.3740578786401078
1783170504866818000,1.382818115234375,-0.11357377220988273,-0.017528057906031607,0.4555561948165297
1783170504876886800,1.39288671875,-0.07616846292316913,0.038792379730939866,0.4696417110532522
1783170504886957000,1.40295703125,-0.01090659393966198,-0.003799392282962799,0.4496584785474464
1783170504897025800,1.41302587890625,-0.00907528685927391,-0.09623013096004723,0.37260556093994524
1783170504907095800,1.423095703125,0.02806289592385292,-0.15271876477077603,0.2822443768122233
1783170504917164800,1.433164794921875,0.044105099186301226,-0.2412862521484494,0.19864846730204297
1783170504927234800,1.44323486328125,0.07473755333721638,-0.2898100445598364,0.16531897435318677
1783170504937303800,1.4533037109375,0.12526888617873191,-0.30788360751941796,0.15536622880594805
1783170504947373800,1.463373779296875,0.1652753178745508,-0.33812121713384985,0.10911905782334506
1783170504957442800,1.47344287109375,0.1652542750865221,-0.38507644505426286,0.06577036649491638
1783170504967512800,1.483512939453125,0.1054009871482849,-0.4456806974902749,0.009824335677886847
1783170504977582000,1.49358203125,-0.022590017470717427,-0.4507460180558264,0.04150869861808605
1783170504987650800,1.50365087890625,-0.18085984049737452,-0.42266865521520375,0.08796574035855009
1783170504997720800,1.513720947265625,-0.3140910838574171,-0.3693517833083868,0.06786303249180782
1783170505007789800,1.523789794921875,-0.38525136322975156,-0.32316680910810824,0.1014041543307714
1783170505017859800,1.53385986328125,-0.3888847512960434,-0.34290012197345493,0.11800775433564557
1783170505027928800,1.5439287109375,-0.34683132394254207,-0.3312609759755432,0.06589687895141541
1783170505037998800,1.553998779296875,-0.3082119626909494,-0.36003655021339653,-0.01248860243409872
1783170505048067800,1.56406787109375,-0.2772954309016466,-0.3809859608702361,-0.035609575843205676
1783170505058138400,1.574138427734375,-0.26207798802554605,-0.3692890933357179,0.03803734184624627
1783170505068207400,1.584207275390625,-0.295765738093853,-0.3823006967306137,0.22224464787431059
1783170505078277400,1.59427734375,-0.2680360196471214,-0.3435411963559687,0.3525412990871817
1783170505088346400,1.604346435546875,-0.263424726459384,-0.31173677581623194,0.29374115519737826
1783170505098416400,1.61441650390625,-0.338651524618268,-0.399470296587795,0.23103812211751937
1783170505108485000,1.624485107421875,-0.5088689750701189,-0.4397035227768123,0.14415719958730042
1783170505118555400,1.634555419921875,-0.7397656428903341,-0.3534701774351299,0.008042235750798135
1783170505128624400,1.644624267578125,-0.8903075020134449,-0.29201939117237924,0.033712939308490605
1783170505138694400,1.6546943359375,-0.9134937318116426,-0.2254547690272331,0.03874983749715611
1783170505148763400,1.664763427734375,-0.8891226761430502,-0.12473989386856556,-0.020959438860509542
1783170505158833200,1.674833251953125,-0.903468596881628,-0.0316015914440155,-0.08245799152143299
1783170505168902400,1.68490234375,-0.9119365654975176,0.0531220799870789,-0.17335688098873941
1783170505178972200,1.69497216796875,-0.9086620738714933,0.14994287031665443,-0.19926427937913685
1783170505189041400,1.70504150390625,-0.9006903643399476,0.26139672776311634,-0.19516614161161705
1783170505199110100,1.715110107421875,-0.8377572305649519,0.4303603787615895,-0.15441641726782546
1783170505209180400,1.725180419921875,-0.6236778420329093,0.5916068795114755,-0.053716849276144056
1783170505219249200,1.735249267578125,-0.3658317924886942,0.7254638535544276,-0.029365923080127684
1783170505229319400,1.7453193359375,-0.040571664363145826,0.7118954930596053,-0.07498539061844349
1783170505239388200,1.75538818359375,0.23489538206756114,0.7423464531637728,-0.08412365971133112
1783170505249458400,1.76545849609375,0.38607203196287154,0.7797888795904815,-0.20589140590131283
1783170505259527200,1.775527099609375,0.5493278267085552,0.7699930233716964,-0.28330716547183693
1783170505269597200,1.78559716796875,0.6748293525993824,0.7260445760518311,-0.2895266610411927
1783170505279666400,1.79566650390625,0.7295335872113704,0.6980563527993857,-0.2963626262747682
1783170505289736200,1.805736083984375,0.6416326009184121,0.7166762975953519,-0.2986300780164078
1783170505299805400,1.815805419921875,0.4955909758239984,0.7635901705920696,-0.331943295683898
1783170505309875200,1.825875244140625,0.38749651180803774,0.8380781330823898,-0.3638276861246675
1783170505319944400,1.8359443359375,0.3660954118609428,0.9053022420495748,-0.4533370574623346
1783170505330014200,1.84601416015625,0.42854046985805033,0.9094386112019419,-0.49932892024330794
1783170505340083500,1.85608349609375,0.4924503397107124,0.8616856570325792,-0.5500428431101143
1783170505350153200,1.8661533203125,0.5904769986987114,0.7947308665260672,-0.6012943069197237
1783170505360222500,1.876222412109375,0.6597796675056219,0.7244532152071594,-0.6609903584696352
1783170505370292500,1.88629248046875,0.6704699883460998,0.621060060749948,-0.7252280720371752
1783170505380361200,1.896361328125,0.5824386536717414,0.482303624227643,-0.8008552676904946
1783170505390431500,1.906431396484375,0.40235914989709853,0.4473734728828072,-0.8539421302337199
1783170505400500200,1.916500244140625,0.052964112946391105,0.5358820696800947,-0.8297716386385261
1783170505410569500,1.926569580078125,-0.41553427329063414,0.7265712302744388,-0.7637577822439372
1783170505420639200,1.93663916015625,-0.8295634027153254,0.862139246018976,-0.6496881162758916
1783170505430708500,1.94670849609375,-1.0426350755095481,0.9590566285908222,-0.513297166775912
1783170505440778200,1.9567783203125,-1.0595295116871595,1.0485168270245193,-0.4132833890913054
1783170505450847500,1.966847412109375,-0.8902227463394403,1.0559282723248005,-0.3812386935222894
1783170505460917200,1.976917236328125,-0.5916437043905258,0.9590390929341316,-0.41077582671716806
1783170505470986200,1.986986328125,-0.23871172548532485,0.8110561245135962,-0.4819743557406589
1783170505481056300,1.99705615234375,0.05545008454322815,0.6101366618059575,-0.49983606604784725
1783170505491125200,2.007125244140625,0.22985855694413185,0.4603903369747102,-0.4771658594803884
1783170505501195500,2.017195556640625,0.33721184720396996,0.43168636666834354,-0.4870880089599639
1783170505511264300,2.02726416015625,0.4740466680139303,0.38213629994913934,-0.4323454881642014
1783170505521334500,2.03733447265625,0.5537754537671804,0.32218846559524533,-0.4050546725913882
1783170505531403300,2.0474033203125,0.5874006599932908,0.26054127997756005,-0.41173261598534877
1783170505541473300,2.057473388671875,0.6368892057836055,0.23506489341557024,-0.37688068097587674
1783170505551542300,2.067542236328125,0.6930664355576038,0.19130816927552222,-0.3316176804587245
1783170505561612300,2.0776123046875,0.6567763940364122,0.13558555140122772,-0.28789586323527616
1783170505571681300,2.087681396484375,0.6256956115961074,0.1118636072911322,-0.30560137833375484
1783170505581751300,2.097751220703125,0.5356780715405941,0.05672668035030365,-0.3434516183763742
1783170505591820300,2.1078203125,0.43070027824044227,0.00028247020319104195,-0.4061232882035896
1783170505601890300,2.117890380859375,0.2753781991034746,-0.07880129564478992,-0.5193741486020386
1783170505611959300,2.127959228515625,0.10257833094298839,-0.14988544104099272,-0.6197725782226771
1783170505622029300,2.138029296875,0.006622048488259315,-0.189034232994169,-0.5927681053105741
1783170505632098600,2.1480986328125,-0.14014730635881423,-0.14091507586091756,-0.4892214407920837
1783170505642167300,2.158167236328125,-0.3312409561008215,-0.021288141091912984,-0.3874187703967094
1783170505652237300,2.1682373046875,-0.5014794493407011,0.08223170848488807,-0.26308921089470383
1783170505662306300,2.178306396484375,-0.6304471900373697,0.1585803502805531,-0.175007114147488
1783170505672376300,2.188376220703125,-0.5967027413457632,0.15425152729600666,-0.11987659868113695
1783170505682445300,2.1984453125,-0.4256657912045717,0.05940554417073726,-0.1253710131126456
1783170505692515300,2.208515380859375,-0.1322585989356041,-0.14765534390136598,-0.22260748983733356
1783170505702584300,2.218584228515625,0.1427057586699724,-0.3642835401333868,-0.3591920987458899
1783170505712654300,2.228654296875,0.32395372170209885,-0.5923401622220873,-0.49263658299781377
1783170505722723300,2.238723388671875,0.43219840784370894,-0.7630893814630806,-0.5949642636479809
1783170505732793300,2.24879345703125,0.4795838438749313,-0.8040202345274389,-0.5945483032582327
1783170505742862300,2.2588623046875,0.4237602498441934,-0.8194440136305987,-0.5549170615503564
1783170505752932400,2.268932373046875,0.3059995473384857,-0.8022435802437364,-0.5004951144784688
1783170505763001300,2.27900146484375,0.19457564663887023,-0.7658985936649143,-0.4913392001310363
1783170505773071400,2.2890712890625,0.15518354744911192,-0.8126512847505509,-0.5033893380826339
1783170505783140400,2.299140380859375,0.2827314844757318,-0.8910742486022413,-0.4474332767786458
1783170505793210400,2.30921044921875,0.3577852641552686,-0.9890981311112642,-0.4533854631813243
1783170505803279400,2.319279296875,0.3573632393509149,-0.9583907120279967,-0.5160143167801201
1783170505813348400,2.329348388671875,0.2667079859137535,-0.9587056231960653,-0.48889889430683103
1783170505823418400,2.33941845703125,0.17063596812486648,-0.9872384747192263,-0.5420131197810173
1783170505833487400,2.3494873046875,0.04692483278214931,-1.0419001853637397,-0.5737657370682805
1783170505843557400,2.359557373046875,-0.09362170202732085,-1.0621246427468956,-0.6354805080294609
1783170505853626400,2.36962646484375,-0.3557885373800993,-0.9907216406598687,-0.6635779638100415
1783170505863696400,2.3796962890625,-0.592294277253747,-0.8797241486787796,-0.5739125981930643
1783170505873765000,2.38976513671875,-0.7464636792242526,-0.7420026081621647,-0.45728057092372326
1783170505883835400,2.39983544921875,-0.7537941682428121,-0.6067274378843606,-0.30781646056734024
1783170505893904100,2.409904052734375,-0.6268319221496582,-0.5817198378778994,-0.20374593657152726
1783170505903974400,2.419974365234375,-0.4071522293925285,-0.6585492489278316,-0.1555194283399731
1783170505914043400,2.43004345703125,-0.26370295887887474,-0.6667537443019449,-0.19973589721256865
1783170505924113200,2.440113037109375,-0.4840712184220552,-0.6695170715354383,-0.2576503808416426
1783170505934182400,2.450182373046875,-0.8865981261014938,-0.6126243869684637,-0.3263826293494552
1783170505944252200,2.460252197265625,-1.1458628102719783,-0.431948524735868,-0.2304412339366041
1783170505954321400,2.4703212890625,-1.2672300128370522,-0.1902298725195229,-0.04957089031152427
1783170505964391200,2.48039111328125,-1.223162323051691,0.04385477768704295,0.06873157265437767
1783170505974460400,2.49046044921875,-1.049092288824916,0.1979191118478775,0.15612086483184248
1783170505984530200,2.5005302734375,-0.8028396464407443,0.29501638103127475,0.21487117823055013
1783170505994599400,2.510599365234375,-0.6361246511518955,0.3394806689187884,0.2033765735361725
1783170506004669400,2.52066943359375,-0.4529197088330984,0.3212796801872551,0.18371289184093476
1783170506014738400,2.530738525390625,-0.33335049560070035,0.23184344715103505,0.2101869111381471
1783170506024808400,2.540808349609375,-0.33361645306050774,0.25764599692747,0.1110278140541166
1783170506034877200,2.550877197265625,-0.3243558727622032,0.19007029804363845,0.14870193034484983
1783170506044946400,2.560946533203125,-0.30255963601768016,0.2334593579150736,0.05183540117740631
1783170506055016200,2.57101611328125,-0.2500204704850912,0.2866334603503346,-0.03562536706738174
1783170506065085400,2.58108544921875,-0.1547398953348398,0.2723157427929342,-0.036813188612461085
1783170506075155200,2.5911552734375,-0.029169395861029623,0.25156273149102926,-0.01563552215769887
1783170506085224400,2.601224365234375,0.16390169143378733,0.2917719922825694,-0.010143573677912354
1783170506095294500,2.61129443359375,0.276582314196229,0.30476635228171944,0.01833751112539321
1783170506105363500,2.621363525390625,0.28603461767435073,0.2555583769984543,-0.01643766885343939
1783170506115433500,2.63143359375,0.22613339894115925,0.26451544430553914,0.000014028525352478027
1783170506125502500,2.64150244140625,0.18095511756539343,0.35014585531800985,0.05527027099691331
1783170506135572500,2.651572509765625,0.19429332256615162,0.481603220873326,0.1334184730278328
1783170506145641200,2.66164111328125,0.18787234960794447,0.6172279352411627,0.2553517485104501
1783170506155711500,2.67171142578125,0.13676935435831547,0.6879656052872538,0.3890686930282041
1783170506165780200,2.6817802734375,0.07266074706315993,0.7551406144157051,0.5001319071892648
1783170506175850500,2.6918505859375,0.228923906442523,0.8224692066706717,0.6443794154085218
1783170506185919200,2.701919189453125,0.41090252183675763,0.7744611086964607,0.7775522065795958
1783170506195989200,2.7119892578125,0.5168260715544224,0.6978007706031203,0.7887009387120604
1783170506206058200,2.722058349609375,0.5866477957993745,0.5706565920718014,0.7915010177593678
1783170506216128300,2.732128173828125,0.6563017622619867,0.43339185541197656,0.7612847431939095
1783170506226197500,2.742197509765625,0.6473889724880456,0.30630218354687094,0.7192024550721049
1783170506236267300,2.752267333984375,0.548323033580184,0.28858459441810846,0.7619395538408309
1783170506246336500,2.76233642578125,0.4247130205243826,0.25533114411383867,0.8541949359510094
1783170506256405200,2.7724052734375,0.24762217717170715,0.30301454017832874,0.9409997245050966
1783170506266475500,2.7824755859375,0.02289922955036163,0.3521814527988434,0.9655853727724403
1783170506276544300,2.792544189453125,0.056122869238257406,0.3037555678039789,0.9746953656189143
1783170506286614500,2.802614501953125,0.2841016037851572,0.2007579885356128,0.9924134662043302
1783170506296683300,2.812683349609375,0.43516602547764777,0.12721139854863286,0.949117272248119
1783170506306753300,2.822753173828125,0.42078795603513713,0.0659852148219943,0.8024435597952455
1783170506316822300,2.832822265625,0.37070027530789373,-0.009766483993828297,0.6986700277183204
1783170506326892300,2.842892333984375,0.3105529728591442,-0.10833674833923577,0.6238706611912698
1783170506336961300,2.852961181640625,0.20021394478678703,-0.1110204344652593,0.5414720717068762
1783170506347031300,2.86303125,0.01639291639626026,-0.09966931162849069,0.5124181554516777
1783170506357100300,2.873100341796875,-0.2529138538390398,-0.0776851510964334,0.5136986237162724
1783170506367170300,2.88317041015625,-0.48434886631965635,-0.02319382858276367,0.6040693611236289
1783170506377239600,2.893239501953125,-0.576868744584918,0.07864215956032276,0.6756085202783346
1783170506387309300,2.903309326171875,-0.459589688116312,0.1330329443089664,0.6398769163575023
1783170506397378600,2.913378662109375,-0.20372867490947244,0.03854176597073674,0.5379295037291943
1783170506407448300,2.9234482421875,0.12582944267094134,-0.09320859118178486,0.45688225578851993
1783170506417517300,2.933517333984375,0.35379064156115053,-0.16670096676349638,0.3760742599638179
1783170506427587300,2.94358740234375,0.40020986290872096,-0.18329364351555705,0.2911322330743074
1783170506437656300,2.95365625,0.3364578139662742,-0.1721970799617469,0.2751530851107091
1783170506447725300,2.963725341796875,0.28588498007059093,-0.1399878780134022,0.29466849917536597
1783170506457795300,2.97379541015625,0.19792904872000217,-0.04883972649276256,0.39869361312687396
1783170506467864300,2.9838642578125,0.003930325186252593,0.05044043968766927,0.4395298832429573
1783170506477934300,2.993934326171875,-0.039647535255551335,0.060054509598761796,0.4451415491122752
1783170506488003300,3.00400341796875,0.05322656327486038,-0.02141395942866802,0.37234212423078716
1783170506498073300,3.0140732421875,0.251335644736886,-0.16801979427710176,0.30201343684438614
1783170506508142600,3.024142578125,0.48510231503546236,-0.32825901768058535,0.28327335453378033
1783170506518212400,3.03421240234375,0.5500035340130329,-0.43609176202043887,0.2297898938884027
1783170506528281300,3.04428125,0.43769466717243194,-0.4995616330206394,0.21691358904466032
1783170506538351400,3.054351318359375,0.3491717495888471,-0.523958407652378,0.22727708908356725
1783170506548420400,3.06442041015625,0.1937234137237072,-0.5039044845305383,0.32923765345439315
1783170506558490400,3.074490478515625,-0.013106149810552596,-0.3850828747950494,0.4182335223119706
1783170506568559400,3.084559326171875,-0.14504443075060844,-0.26827874236181376,0.48765879458524286
1783170506578629400,3.09462939453125,-0.08676292217373847,-0.2298955279536545,0.6060695584975183
1783170506588698400,3.104698486328125,0.08063245659470558,-0.23048370310515165,0.6958011212185025
1783170506598768400,3.114768310546875,0.1686573615282774,-0.2775798008009791,0.7436293325811624
1783170506608837400,3.12483740234375,0.17894903843998908,-0.3344875368066132,0.7371219234485179
1783170506618907400,3.134907470703125,0.14390285950005052,-0.4066884112730622,0.7040797047421335
1783170506628976400,3.144976318359375,0.05876958435475826,-0.45092721984162926,0.6673546328045428
1783170506639046400,3.15504638671875,-0.03758066585361957,-0.40757323128357525,0.6785006615232676
1783170506649115400,3.165115478515625,-0.19958967540860176,-0.2838525974601507,0.7257562606297433
1783170506659184400,3.175184326171875,-0.37921325210928913,-0.12793386760428546,0.816602214333415
1783170506669254400,3.18525439453125,-0.49414369962513444,-0.03855272575616836,0.9732380064174533
1783170506679323400,3.195323486328125,-0.34130233138799665,-0.039012890613824125,1.1357245703563092
1783170506689393400,3.205393310546875,-0.20933073270022867,0.004055120609700679,1.080471250494197
1783170506699462400,3.21546240234375,-0.35069150650203224,-0.019554156906157732,0.9091945002477616
1783170506709532200,3.2255322265625,-0.6964145769417286,-0.08483546124249697,0.7420413327373564
1783170506719601400,3.235601318359375,-1.004035588002205,-0.105812052167207,0.6456082265511155
1783170506729671400,3.24567138671875,-1.103544594502449,-0.044009675987809894,0.6955913509253412
1783170506739740400,3.255740478515625,-0.9683955348223448,0.07876651659235358,0.8052375013627111
1783170506749810400,3.265810546875,-0.7536258259385824,0.2040503080792725,0.9576832944110035
1783170506759879400,3.27587939453125,-0.7096580893963575,0.3110284814164042,1.079590960528329
1783170506769949400,3.285949462890625,-0.8701169468998908,0.41394013596698637,1.064756306424737
1783170506780018400,3.296018310546875,-1.0365700763821601,0.47376492846310136,1.0648732108026742
1783170506790088400,3.30608837890625,-1.193946749961376,0.5706282427601516,1.030581941883266
1783170506800157200,3.3161572265625,-1.2530015809983015,0.6781150962717831,0.9558181581262498
1783170506810227500,3.3262275390625,-1.1925076570689677,0.8458325466014445,0.9460457558482884
1783170506820296200,3.336296142578125,-1.0403905114531515,0.9930435077361762,0.9861173617348075
1783170506830366500,3.346366455078125,-0.7639777086049317,1.0915190795354544,1.0187547259673475
1783170506840435200,3.356435302734375,-0.4877800098121166,1.132015778966248,1.0055180816449225
1783170506850505500,3.36650537109375,-0.25512042397260665,1.1448571403607726,0.9746456081930548
1783170506860574500,3.376574462890625,-0.031299393627047534,1.2143727212660014,0.9714344641268253
1783170506870643500,3.3866435546875,0.28417759163081646,1.231690059030801,0.9920254167348146
1783170506880713500,3.39671337890625,0.571965774974227,1.2237969676934182,1.0007057129271328
1783170506890782500,3.406782470703125,0.7820569706529379,1.1399344431363045,0.9928220470052211
1783170506900852500,3.4168525390625,0.885937616366148,1.0739455750524998,0.9102573071736841
1783170506910921200,3.426921142578125,0.935984965083003,0.9780097508639096,0.8340886981200426
1783170506920991500,3.436991455078125,0.8157026351451874,0.9292454276949167,0.7325745623424649
1783170506931060200,3.447060302734375,0.6100380237370729,0.8696889307461678,0.5558844087451696
1783170506941130500,3.457130615234375,0.34694530571103094,0.8212595386199653,0.35606392025537786
1783170506951199200,3.46719921875,0.08478314653337002,0.8289560844719409,0.24888814198691397
1783170506961269500,3.47726953125,0.004909399351477623,0.8816795205302536,0.17813693660581484
1783170506971338200,3.487338134765625,-0.08093816154301166,0.959104413255304,0.2272095950716175
1783170506981408300,3.497408203125,-0.2770902637183666,1.032567855003476,0.23867888266164808
1783170506991477200,3.507477294921875,-0.547549126598239,1.0754995264962315,0.221302106327191
1783170507001547300,3.51754736328125,-0.8161533015221357,1.1294080806858837,0.2593172728742473
1783170507011616500,3.527616455078125,-1.1113877092182636,1.2492569876424968,0.3447930230479687
1783170507021686300,3.537686279296875,-1.2777812174677847,1.4118946504898369,0.47870380963739007
1783170507031755500,3.547755615234375,-1.1193068117797373,1.5532225449353456,0.6447742599450051
1783170507041825300,3.5578251953125,-0.6407733537405729,1.621623442596942,0.7590363066799938
1783170507051894500,3.56789453125,-0.07049801607131957,1.5766243171803653,0.8040282717034221
1783170507061962800,3.577962646484375,0.30420623418092724,1.3514971726723015,0.737713240405172
1783170507072033000,3.588032958984375,0.40934535552263257,1.087343401286006,0.6155444391336292
1783170507082101800,3.598101806640625,0.43485622887611386,0.9001429595902561,0.46609786443393675
1783170507092172000,3.608172119140625,0.4396569071561098,0.7550624346129596,0.4456998405821621
1783170507102240800,3.61824072265625,0.48161155031025404,0.7082194348953664,0.5238900916565209
1783170507112310800,3.628310791015625,0.5400023644804954,0.6726289199456572,0.5730449119804427
1783170507122379800,3.6383798828125,0.5907967321723699,0.6341052741535007,0.6299962313994765
1783170507132449800,3.64844970703125,0.5527151310592889,0.5909169975511729,0.6583637362930923
1783170507142518800,3.658518798828125,0.4335521605402231,0.5463548022471368,0.6344562795482576
1783170507152588800,3.6685888671875,0.254466928499937,0.4549392319619655,0.5422824382416903
1783170507162658000,3.678657958984375,0.1199713642925024,0.35979704236909743,0.5052273671647534
1783170507172727800,3.688727783203125,0.10118015458285808,0.2909478164181113,0.5013385795652866
1783170507182797000,3.698797119140625,0.1202460895806551,0.21992592260316013,0.5193519733028487
1783170507192866800,3.70886669921875,0.006792144358158111,0.15626593585833906,0.532845880321972
1783170507202935800,3.718935791015625,-0.163715813472867,0.1955988522067666,0.5828182275738567
1783170507213005800,3.729005859375,-0.29179215828776356,0.2681216521039605,0.6587523702844977
1783170507223074800,3.73907470703125,-0.4120160360366106,0.2893004876025021,0.7200394904181361
1783170507233144800,3.749144775390625,-0.5383516746640205,0.27444968608170744,0.7378630241394043
1783170507243213800,3.7592138671875,-0.5228922397255897,0.2876432219147682,0.7745143001884222
1783170507253284000,3.7692841796875,-0.36716625596284863,0.3272689837299287,0.813060596203804
1783170507263352800,3.779352783203125,-0.12212123580276965,0.293043765784055,0.8603689484108239
1783170507273422800,3.7894228515625,-0.0005874444991350174,0.22974238321855664,0.8494881464995443
1783170507283491800,3.799491943359375,-0.004702478602528572,0.16157529431283474,0.7665046697992831
1783170507293561000,3.80956103515625,0.04904197106659412,0.0744204502120614,0.6753169899858534
1783170507303630800,3.819630859375,0.13449381064176558,0.023958675475418568,0.6295091785348952
1783170507313699800,3.829699951171875,0.12265315072238445,0.019398381822556255,0.5367334988776594
1783170507323769900,3.839769775390625,0.02600187174081802,0.02475800915956497,0.5011889054289087
1783170507333838800,3.8498388671875,-0.14139116894006729,0.06642930532768368,0.4757661852829158
1783170507343908900,3.859908935546875,-0.24144378079771994,0.11961451367884873,0.4266766122149303
1783170507353977900,3.869977783203125,-0.22556349009871482,0.13460355462655424,0.37582971061822024
1783170507364048000,3.8800478515625,-0.1365758776128292,0.17351225421354174,0.3087359134998172
1783170507374116900,3.890116943359375,-0.11306874529719352,0.1683104477867484,0.21036162838423622
1783170507384187000,3.900186767578125,-0.22005612485408782,0.1795223082832992,0.10074719739253632
1783170507394256000,3.910255859375,-0.38828912349045275,0.2199270916469395,0.024440654872660523
1783170507404326000,3.920325927734375,-0.5285457354426384,0.2800244174741208,-0.047607056592381555
1783170507414395000,3.930394775390625,-0.6480833844929933,0.3724444886267185,-0.13084112421995958
1783170507424465000,3.94046484375,-0.7562678648799658,0.44418461371362206,-0.2477704265359789
1783170507434534000,3.950533935546875,-0.8120622328162193,0.5108573724083603,-0.3380013170812279
1783170507444604000,3.96060400390625,-0.7764069820672274,0.5717958252348005,-0.38567945244871077
1783170507454673000,3.9706728515625,-0.5564046332269906,0.5908804649330676,-0.4126201759422198
1783170507464743000,3.980742919921875,-0.2016962922990322,0.5525028034828603,-0.3743059716496616
1783170507474812000,3.99081201171875,0.2343880170673132,0.5096067878253757,-0.2866469043537974
1783170507484882000,4.0008818359375,0.48052258602976794,0.4149170181751251,-0.197398394175712
1783170507494950700,4.01095068359375,0.6969178502887488,0.36974984271526334,-0.18907401701528578
1783170507505020000,4.02102001953125,0.738432348459959,0.2800703024424612,-0.22045778272384775
1783170507515089700,4.031089599609375,0.530717234262824,0.2378789279229939,-0.3653138695618138
1783170507525159000,4.041158935546875,0.08275427105426787,0.25213541681244966,-0.5688014291917904
1783170507535229000,4.05122900390625,-0.3750719145208597,0.2990096884511411,-0.6654303867436945
1783170507545298000,4.0612978515625,-0.5682014540046453,0.44376609604060646,-0.5541952135492116
1783170507555368000,4.071367919921875,-0.5690192001283169,0.6242604642264544,-0.37332583803851155
1783170507565437000,4.08143701171875,-0.43216859722733497,0.7679337527543306,-0.21656254711728543
1783170507575507000,4.0915068359375,-0.17527005766630172,0.824152629712969,-0.06223819661366287
1783170507585576000,4.101575927734375,0.08859948995113372,0.7900064683526754,0.07210315884617156
1783170507595646000,4.11164599609375,0.2739478740394115,0.7822256052181125,0.15725103790555148
1783170507605714700,4.121714599609375,0.3015606881082058,0.7516890126571059,0.2304119165105745
1783170507615785000,4.131784912109375,0.247266203340888,0.7367153154090046,0.27539288521595295
1783170507625853700,4.141853759765625,0.15476386073231696,0.775713008453697,0.3089076168049127
1783170507635924000,4.151924072265625,0.01769873829782009,0.766360804349184,0.3239908023094758
1783170507645992700,4.16199267578125,-0.1454337223291397,0.7772408025428652,0.3091412794303149
1783170507656062700,4.172062744140625,-0.3545107725292444,0.7639528664246201,0.22045928056119007
1783170507666132000,4.182132080078125,-0.4289063805609941,0.7348077282220125,0.13575482528721913
1783170507676201700,4.19220166015625,-0.3832721721112728,0.7216507250070572,0.08863787659960798
1783170507686271000,4.20227099609375,-0.25856618051230906,0.7930234780862927,0.04109380224084016
1783170507696340000,4.212340087890625,-0.15849077230095862,0.8379466156572103,0.05084885609177872
1783170507706410000,4.222409912109375,-0.19094868831336498,0.8739818056344986,0.12781416848106308
1783170507716478700,4.232478759765625,-0.29240239914059635,0.9384573465459048,0.19015538251120595
1783170507726549000,4.242549072265625,-0.2937649196654558,1.0253852500230074,0.27786029824279246
1783170507736617700,4.25261767578125,-0.21246727716028688,1.0556012323275208,0.36863198113385587
1783170507746688000,4.26268798828125,-0.036873394367098807,1.0655293366238474,0.4560314111128449
1783170507756756700,4.2727568359375,0.16583938149809838,1.0387446439422667,0.5600653476916253
1783170507766826800,4.28282666015625,0.2644745277732611,0.9616793783098458,0.5416686902575194
1783170507776895700,4.292895751953125,0.2116349179893732,0.8262837965227663,0.4539784241057932
1783170507786965800,4.3029658203125,0.17687573929727077,0.6787256293855607,0.39435372075904157
1783170507797035000,4.313034912109375,0.1795493424206972,0.6092059568271041,0.37947924610171463
1783170507807104800,4.323104736328125,0.13334405608475208,0.6264205648697913,0.4181378068525344
1783170507817174000,4.333174072265625,0.09145254129469395,0.6635366819515824,0.4695214822070673
1783170507827243800,4.343243896484375,0.040831776604056354,0.6339794558167458,0.4894042134804651
1783170507837313000,4.35331298828125,-0.016906711137294767,0.5688963044010102,0.4639441204661503
1783170507847382800,4.3633828125,-0.031221652215719223,0.5508585434071719,0.46932416953667994
1783170507857452000,4.3734521484375,-0.03564531387686729,0.5260168014869093,0.49060003566890953
1783170507867521800,4.383521728515625,-0.09148995069563388,0.49172129478380083,0.4707909906862303
1783170507877590800,4.3935908203125,-0.13968553406596182,0.449537372918427,0.45887313734479246
1783170507887661000,4.4036611328125,-0.0741354957908392,0.41721214337497947,0.4441720464929938
1783170507897729800,4.413729736328125,0.023812837263941764,0.34568215390741824,0.4162552079763263
1783170507907798800,4.423798828125,0.04617430667579174,0.25235066699832676,0.3966114000253379
1783170507917868800,4.433868896484375,-0.014801263290643692,0.1944479286059737,0.35058548884429036
1783170507927938000,4.44393798828125,0.021112346133589744,0.16090981614142655,0.3283693827198818
1783170507938007800,4.4540078125,0.17035013692080975,0.10121566428765653,0.3741740888983011
1783170507948077000,4.4640771484375,0.33574761987030505,0.035735914769768715,0.41963136987853794
1783170507958146800,4.474146728515625,0.4729302312046289,-0.056352732471376656,0.4347223368307575
1783170507968216000,4.484216064453125,0.47409927498400206,-0.17637115077599883,0.44858284867256876
1783170507978285800,4.494285888671875,0.33265199194252487,-0.2465782210767269,0.4577368267912417
1783170507988354800,4.504354736328125,0.22888474347591398,-0.3019105244591832,0.4502582345388829
1783170507998424800,4.5144248046875,0.19548808530867098,-0.3946535439558327,0.4289131756279617
1783170508008493800,4.524493896484375,0.26013153013288975,-0.505805349715799,0.3994291973924264
1783170508018563800,4.534563720703125,0.23151275389194487,-0.6283521174542606,0.3179832689903676
1783170508028632800,4.5446328125,0.059952656659483905,-0.7116895952239632,0.2835774155142717
1783170508038702800,4.554702880859375,-0.17763327966630457,-0.7211470132686197,0.3234924243332818
1783170508048771800,4.564771728515625,-0.338455709785223,-0.6879901552066207,0.3475999336948618
1783170508058842600,4.574842529296875,-0.39820495282709595,-0.6152084121122956,0.5150872285304591
1783170508068911600,4.58491162109375,-0.34792437987625596,-0.5529625299490988,0.5877084838334471
1783170508078981600,4.594981689453125,-0.29952304480075836,-0.5918620233163238,0.6066830872859805
1783170508089050600,4.605050537109375,-0.22587562478780746,-0.6895254019498824,0.5765082041768357
1783170508099120600,4.61512060546875,-0.1327981126397848,-0.764413761934638,0.4743315859025344
1783170508109189600,4.625189697265625,-0.05373275923132896,-0.8098523016817867,0.38818522472456096
1783170508119258600,4.635258544921875,-0.07565291461646556,-0.8451553779922425,0.39934217669609934
1783170508129328400,4.645328369140625,-0.1920896750420332,-0.8015548673272133,0.4127239651102572
1783170508139397600,4.655397705078125,-0.3148527158796787,-0.7043475618980825,0.4142756515316665
1783170508149467400,4.66546728515625,-0.221803260782361,-0.6224624748937785,0.46136378511674697
1783170508159536600,4.67553662109375,0.024841011267900465,-0.5994556933157146,0.5505094011759385
1783170508169606700,4.685606689453125,0.18441431810855866,-0.615203005284816,0.6040159139033406
1783170508179675600,4.695675537109375,0.17411796502172946,-0.6344837520770729,0.5665459784151986
1783170508189745700,4.70574560546875,0.1779939296722412,-0.6626466012440622,0.505688883729279
1783170508199814700,4.715814697265625,0.25436580621302124,-0.7373239488266408,0.5081166953980922
1783170508209884700,4.725884765625,0.30825521731078626,-0.7521241892039775,0.493840296231769
1783170508219953700,4.73595361328125,0.2181575977563858,-0.7760008854843675,0.4483096212217584
1783170508230023700,4.746023681640625,0.004237783700227737,-0.7427817758411168,0.3975503613758832
1783170508240092400,4.756092529296875,-0.2250362513542175,-0.6552233193755149,0.39399149985052645
1783170508250162700,4.76616259765625,-0.40104105303585524,-0.49505043920651076,0.43683527386412024
1783170508260231400,4.7762314453125,-0.4896481417715549,-0.3953226753890514,0.4499651333438232
1783170508270301700,4.7863017578125,-0.49765901426970954,-0.3033173225171864,0.4391352579021826
1783170508280370400,4.796370361328125,-0.3694078974097967,-0.24268515916094183,0.4016293012525886
1783170508290440400,4.8064404296875,-0.14036065684854984,-0.22476839419826863,0.41878560323677955
1783170508300509700,4.816509765625,0.029513094732165335,-0.2936272647604346,0.5023379658661783
1783170508310578700,4.82657861328125,0.2414677461951971,-0.37118937399908897,0.4886671679101884
1783170508320648700,4.836648681640625,0.4342278678447008,-0.2426141397513449,0.45897031410895284
1783170508330717400,4.846717529296875,0.2891419360399246,-0.1952458009853959,0.4585076650332659
1783170508340787700,4.85678759765625,-0.03426175056397915,-0.1392984344445169,0.5105742811506614
1783170508350856400,4.8668564453125,-0.18786007464826107,-0.07498612127080559,0.47245786445252597
1783170508360926700,4.8769267578125,-0.14253858540952205,-0.04789221650958061,0.5259340185742825
1783170508370995500,4.886995361328125,-0.02079436622560024,-0.006452537140250206,0.5463882295927033
1783170508381065700,4.897065673828125,0.10008885221481323,-0.012401362542062998,0.551224198381789
1783170508391134500,4.907134521484375,0.04554594564437866,-0.037656361438333986,0.4854537222890183
1783170508401204500,4.91720458984375,-0.2710176658064127,-0.07964417620971799,0.3611507585329935
1783170508411273500,4.9272734375,-0.5115910935103893,-0.07939370857998729,0.2795408534745686
1783170508421343500,4.937343505859375,-0.6213076057702303,-0.052214317492395634,0.3604208733558655
1783170508431412500,4.94741259765625,-0.7623609210580587,0.1411962308898568,0.4244882718577981
1783170508441482500,4.957482421875,-0.9470803595930337,0.346003348685801,0.4557437167452648
1783170508451551700,4.9675517578125,-1.1268909832984209,0.4777442073576152,0.4889517570052296
1783170508461621500,4.97762158203125,-1.2444599626243114,0.5468770725555717,0.41271384557504204
1783170508471690800,4.987690673828125,-1.0869593704044818,0.578326103786379,0.2797784616227262
1783170508481760500,4.997760498046875,-0.6444979272216558,0.5101829802781344,0.2912541058883071
1783170508491829800,5.007829833984375,-0.19466274040043352,0.4333589760556817,0.28180923679796976
1783170508501899500,5.0178994140625,0.08896949230730533,0.4496316270731389,0.28239257137756796
1783170508511968500,5.027968505859375,0.15460720886588095,0.48956879292502997,0.34557642851062115
1783170508522037500,5.03803759765625,0.11330606118440627,0.5719340646617114,0.34887919638305903
1783170508532107500,5.048107421875,0.02171148107051849,0.6360501246109604,0.2765402103538625
1783170508542176500,5.058176513671875,-0.06240063433349132,0.6535900190852582,0.13784070991687475
1783170508552246500,5.06824658203125,-0.09336977309286594,0.6788036630578339,0.04330165558261797
1783170508562315500,5.0783154296875,-0.14624503871202468,0.6969980759181081,-0.02577001748001203
1783170508572385500,5.088385498046875,-0.19522388141453265,0.7444378724850714,-0.0869393381865695
1783170508582454800,5.098454833984375,-0.1964326726824045,0.8174230291970074,-0.051649724145885555
1783170508592524500,5.108524658203125,-0.05507599053382873,0.8945254119694233,-0.0008300210833549499
1783170508602593500,5.118593505859375,0.12788169902563096,0.9575991232588886,0.06341446928484365
1783170508612663600,5.12866357421875,0.2704419117450714,0.913493147289753,0.06379066391978412
1783170508622732500,5.138732666015625,0.29793665239214895,0.8598423672534525,0.040940607273392375
1783170508632802600,5.148802490234375,0.1514893691062927,0.8110780440844595,-0.00041272725304588676
1783170508642871600,5.15887158203125,-0.06991524774730205,0.8373435351975261,0.04441476792367175
1783170508652941600,5.168941650390625,-0.2997609452098608,0.9320372503705322,0.1728368391700089
1783170508663010600,5.179010498046875,-0.46321781548559665,1.0443943402670324,0.34281584122348574
1783170508673080600,5.18908056640625,-0.5003910695821047,1.132082998983562,0.4921997624831274
1783170508683149600,5.199149658203125,-0.4214958120435476,1.0842064184345304,0.5356548733280971
1783170508693219600,5.209219482421875,-0.33880057770013805,0.9301016061328351,0.412384942414239
1783170508703288600,5.21928857421875,-0.29979718556702134,0.7308158821068703,0.21937499245582148
1783170508713357600,5.229357666015625,-0.33908056368529793,0.5996209668800234,0.0961000474401284
1783170508723427600,5.239427490234375,-0.3934235637694597,0.5619860866211355,0.09488365738769061
1783170508733496600,5.24949658203125,-0.3749544256210327,0.6282714534334838,0.17165172103866932
1783170508743566600,5.259566650390625,-0.33144963041543957,0.6828608294941485,0.28740948622412976
1783170508753635600,5.269635498046875,-0.22741057927012442,0.7403409585602581,0.3983003760255873
1783170508763705600,5.27970556640625,-0.12091770523190498,0.7528026729874312,0.5014160652482882
1783170508773774600,5.289774658203125,-0.03753799575567245,0.737481039084494,0.6040903673790395
1783170508783844400,5.29984423828125,0.052720367318391796,0.6952373498558998,0.6044352718265726
1783170508793913600,5.30991357421875,0.16478256592154503,0.6782704329639673,0.5508641694303602
1783170508803983600,5.319983642578125,0.30590134766101834,0.602296323569119,0.472413513854146
1783170508814052600,5.330052490234375,0.3653431321889162,0.5129530295133591,0.39927265512384474
1783170508824122600,5.34012255859375,0.2351145777761936,0.4797486790478229,0.3820277980733663
1783170508834191600,5.350191650390625,0.11040449452400207,0.4995826758086681,0.3541650643641129
1783170508844261600,5.36026171875,0.06444470738172531,0.4864683426916599,0.3650953679729253
1783170508854330600,5.37033056640625,-0.0010626607954502105,0.48925870406255123,0.4011249319270253
1783170508864400600,5.380400634765625,-0.01182370878458023,0.5681111453726887,0.44086931515317407
1783170508874469600,5.3904697265625,-0.0004033201038837433,0.6189718562990426,0.47980760616082696
1783170508884539600,5.40053955078125,-0.02284428449273109,0.6491308477193116,0.5546375139566138
1783170508894608400,5.4106083984375,-0.22064590744078158,0.7005091527789831,0.5714787221096456
1783170508904678700,5.4206787109375,-0.21421149047911167,0.782368228559196,0.613995894517377
1783170508914747400,5.430747314453125,-0.038162265133857724,0.7556041402742266,0.6170937874674797
1783170508924816600,5.440816650390625,0.0485679238140583,0.701273999671638,0.574582094952464
1783170508934886700,5.45088671875,0.12010755789279937,0.6721136638998985,0.5073930938312784
1783170508944955600,5.46095556640625,0.15083996528685092,0.6486708289921284,0.5392683876501396
1783170508955025700,5.471025634765625,0.10225216772854327,0.7182429623901844,0.607621098788455
1783170508965094700,5.4810947265625,0.13770225129425526,0.8008344440981745,0.6260616684295237
1783170508975164700,5.49116455078125,0.23722996249496936,0.7363368374854325,0.7005713312949985
1783170508985233700,5.501233642578125,0.2735819633364677,0.715716658782959,0.7383340757172554
1783170508995303700,5.5113037109375,0.2446434536218643,0.7422799637988209,0.7543821241986006
1783170509005372400,5.521372314453125,0.1658341208010912,0.7582146150335669,0.7738582474324852
1783170509015442700,5.531442626953125,0.11117255628705024,0.7684510546267033,0.7769077711962163
1783170509025511400,5.541511474609375,0.13426760067045687,0.7600669649019837,0.7765759088933467
1783170509035581700,5.551581787109375,0.14616846634447575,0.7363669403627514,0.7950245887756348
1783170509045650400,5.561650390625,0.05953764611780643,0.6474298890203237,0.7542408160317688
1783170509055720400,5.571720458984375,0.03570551963150501,0.5923924769312143,0.725286889552325
1783170509065789200,5.5817890625,0.0349696065723896,0.5661047739863395,0.7927068864177912
1783170509075859200,5.591859130859375,0.16073825896680355,0.511108570690453,0.9064783731568604
1783170509085928400,5.601928466796875,0.3141910371005535,0.5323401592895388,1.0336839995518325
1783170509095998200,5.611998291015625,0.41856911094188687,0.6871200943738222,1.1321236232548952
1783170509106067500,5.6220673828125,0.2575093649357557,0.9598723288878798,1.239765521197766
1783170509116136200,5.63213623046875,-0.12744038499891758,1.3804863896608353,1.2854542363137007
1783170509126206500,5.64220654296875,-0.4782330137878656,1.805538432881236,1.2675121907792986
1783170509136275200,5.652275146484375,-0.573511835372448,1.984075383388996,1.2080142921499908
1783170509146345500,5.662345458984375,-0.3821557353019714,1.9794936085566877,1.1645823429848998
1783170509156414200,5.672414306640625,0.001311082598567009,1.857698535968363,1.0821341422051192
1783170509166484500,5.682484375,0.4129699757605791,1.6026073380902408,1.1245165823172778
1783170509176553200,5.69255322265625,0.5039800339847803,1.3462467047981916,1.2304054260477424
1783170509186623200,5.702623291015625,0.4926519997626543,1.3415320973664522,1.3098019111067056
1783170509196694300,5.7126943359375,0.20563713887929916,1.2013963353149593,1.4520656250976025
1783170509206764300,5.722764404296875,-0.08671732946634292,1.133597202938795,1.3943632315829395
1783170509216833300,5.732833251953125,-0.383894687923789,1.0233186728820205,1.3004735262691973
1783170509226903600,5.742903564453125,-0.6457903051197529,0.8396680326223372,1.1183485612068325
1783170509236972300,5.75297216796875,-0.84650752325356,0.6449604301668703,0.823881630751863
1783170509247042300,5.763042236328125,-0.9717536130785942,0.44721229097172616,0.5232761975418776
1783170509257111300,5.773111328125,-0.971203577980399,0.22731311024501918,0.26931382103059437
1783170509267181300,5.783181396484375,-0.9777537302762269,0.027980039945989847,0.1349912479030434
1783170509277250300,5.793250244140625,-1.035986723536253,-0.06923544878959656,0.1126790883924812
1783170509287320300,5.8033203125,-1.0538064578652382,-0.10436915988251566,0.1604104883171618
1783170509297389300,5.813389404296875,-0.9212918383419513,-0.13722659660652278,0.25454393925890323
1783170509307459300,5.823459228515625,-0.9449503618270159,-0.132872346919775,0.3770209296967834
1783170509317528300,5.8335283203125,-1.1449497870802878,-0.04584668215662241,0.37418804435841735
1783170509327598300,5.843598388671875,-1.215055004441738,0.019726590863615272,0.34078652735296633
1783170509337667300,5.853667236328125,-1.0975053143382072,-0.04483911254927516,0.3101668596183881
1783170509347737300,5.8637373046875,-0.7725602435111999,-0.1091463111564517,0.2355918033665046
1783170509357806000,5.87380615234375,-0.34828152275085444,-0.2126987478286028,0.14116415525116024
1783170509367875300,5.883875244140625,-0.014824644166231155,-0.3374773662723601,0.09927716137259267
1783170509377945300,5.8939453125,0.09950082319378853,-0.44889469110071656,0.11440874346299096
1783170509388014300,5.904014404296875,0.12794658095538616,-0.4081169827714562,0.14758279925496318
1783170509398084400,5.91408447265625,0.15243746361136434,-0.3059294047117233,0.2461799790067598
1783170509408153300,5.9241533203125,0.20938333967030048,-0.23723989936709403,0.3051543286859989
1783170509418223400,5.934223388671875,0.3391396003961563,-0.19543240959867833,0.3577824511436745
1783170509428292400,5.944292236328125,0.5009025262355804,-0.19313246209323406,0.3799445985911414
1783170509438362400,5.9543623046875,0.5984826104998588,-0.2243501687861979,0.3499791204489767
1783170509448431400,5.964431396484375,0.5823451301693916,-0.2917068180918693,0.28116478314828125
1783170509458501400,5.97450146484375,0.6053413903534413,-0.3457306692242622,0.18548410276453942
1783170509468570000,5.984570068359375,0.6809796919226646,-0.47727790502011774,0.07346439159624278
1783170509478640400,5.994640380859375,0.6976952644020319,-0.6279143105588852,-0.06257485838923603
1783170509488709000,6.004709228515625,0.7771212678164243,-0.701376583263278,-0.13413270397810265
1783170509498779400,6.014779296875,0.8052695039361715,-0.7085878298163414,-0.05749759165756404
1783170509508848400,6.024848388671875,0.7249813307344913,-0.6673071404010057,0.07630940576381981
1783170509518918400,6.03491845703125,0.590505640271306,-0.5543766345307231,0.14706351548805832
1783170509528987400,6.0449873046875,0.38685879842638965,-0.5185170933812856,0.1874702716130763
1783170509539057200,6.05505712890625,0.1948380969673395,-0.5208827995993197,0.17820687830317763
1783170509549126400,6.06512646484375,0.08724456821084021,-0.5285187013052404,0.12290814839676022
1783170509559196200,6.075196044921875,0.07162029809951782,-0.5420306554377079,0.07102105356473476
1783170509569265400,6.085265380859375,0.09938567238152027,-0.6211946469150483,0.016680263703968374
1783170509579334100,6.095334228515625,0.18319734353423117,-0.7233084290862083,-0.06451797354733571
1783170509589404400,6.105404296875,0.23638357479870317,-0.835788414710015,-0.13712967557068914
1783170509599473200,6.11547314453125,0.32535540519356726,-0.9332761445157229,-0.16138212809460237
1783170509609543400,6.12554345703125,0.34896599788367744,-0.9436264197468757,-0.0740562017432414
1783170509619612200,6.135612060546875,0.26469664609134197,-0.9115988579757511,0.011330372309684754
1783170509629682200,6.14568212890625,0.08276362340450287,-0.8538125855699181,0.07296767585417255
1783170509639751400,6.15575146484375,-0.11427519847750663,-0.8130581119857728,0.10445413475222885
1783170509649821200,6.1658212890625,-0.26132804644107815,-0.7650074900440871,0.1009112197146751
1783170509659890400,6.175890380859375,-0.3909253172129392,-0.741786481193453,0.06939854866312817
1783170509669960200,6.185960205078125,-0.4440688783794641,-0.7392367967106401,-0.012814747382234782
1783170509680029400,6.196029541015625,-0.4299702104002237,-0.7346528299212456,-0.09737135515073314
1783170509690099200,6.20609912109375,-0.41544951761662957,-0.7348955526359379,-0.0768686653480865
1783170509700168400,6.21616845703125,-0.4342430654138326,-0.6555624882020056,-0.016968359930347652
1783170509710238200,6.22623828125,-0.4103150773376226,-0.4987469556368887,0.0792506833801046
1783170509720307500,6.236307373046875,-0.3267687791228294,-0.2886803098775446,0.21344244233537463
1783170509730377500,6.24637744140625,-0.20234101994335651,-0.10984539933651685,0.29983260394027456
1783170509740446200,6.2564462890625,0.06341536433398723,0.005925298395752907,0.37127686961945144
1783170509750516500,6.2665166015625,0.4113444203853607,-0.029025895737111566,0.49238739400971676
1783170509760585200,6.276585205078125,0.7666951508700847,-0.15936434026509522,0.6561084316469729
1783170509770654500,6.286654541015625,1.143740995812416,-0.23404329528287052,0.7147000290863216
1783170509780724200,6.29672412109375,1.2092033558040856,-0.2943934268273413,0.6893970993950963
1783170509790793500,6.30679345703125,0.9320809433817863,-0.3581019288890064,0.641259968213737
1783170509800863200,6.31686328125,0.5424971039056777,-0.3481507359780371,0.6200628664061427
1783170509810932500,6.326932373046875,0.174730543962121,-0.2223208549156785,0.6637643532276153
1783170509821002200,6.337002197265625,-0.133556822052598,-0.0739715374007821,0.7791609569504857
1783170509831071500,6.347071533203125,-0.31007951012849805,0.1158506311006844,0.8953377512656152
1783170509841141200,6.357141357421875,-0.5408469986110925,0.2826199869252741,0.9614414048355072
1783170509851210200,6.367210205078125,-0.7582149072945118,0.3196769211657345,0.8517769150238483
1783170509861280500,6.377280517578125,-1.0029922164291143,0.2314960950180888,0.6704227882035076
1783170509871349200,6.387349365234375,-1.3750082505106924,0.10652283078506589,0.47808739477209744
1783170509881419500,6.39741943359375,-1.7910206627070904,0.14934607346728443,0.3109377709256485
1783170509891488300,6.40748828125,-2.072536341652274,0.3231872673742473,0.21595654404815284
1783170509901558300,6.417558349609375,-2.1320698961168527,0.5603441646330058,0.213893108712323
1783170509911627300,6.427627197265625,-1.992048261964321,0.735136083393544,0.23291009000185875
1783170509921697300,6.437697265625,-1.7145160996973514,0.8678884571954607,0.2146133858108893
1783170509931766300,6.447766357421875,-1.3040215741395949,0.9318545872800051,0.1459806521547958
1783170509941836300,6.457836181640625,-0.8771171810507774,0.950307358815521,0.06537718419255688
1783170509951905300,6.4679052734375,-0.5621498988807201,0.9417052424259483,-0.03228909878414124
1783170509961975300,6.477975341796875,-0.29762159509360786,1.0443160143338144,-0.15937893504602835
1783170509972044300,6.488044189453125,-0.02984627220928669,1.1171968338884413,-0.2824870812606066
1783170509982114300,6.4981142578125,0.07098492280542851,1.2362845472142099,-0.3723663088239729
1783170509992183300,6.508183349609375,0.1241892742484808,1.3326447342947125,-0.42167277604565023
1783170510002252300,6.518252197265625,0.2842477342575788,1.3877701169282197,-0.4245526057982817
1783170510012322300,6.528322265625,0.47809740470945833,1.4027803467944264,-0.475824491341412
1783170510022391300,6.538391357421875,0.5989706862777471,1.3606214132398367,-0.5806633145622909
1783170510032461300,6.54846142578125,0.6952823580414056,1.300522918368876,-0.6657605685461312
1783170510042530300,6.5585302734375,0.8135784825980663,1.222855595190078,-0.769056765434891
1783170510052600300,6.568600341796875,0.8285439965397119,1.1373004413709045,-0.8961807048957794
1783170510062669000,6.5786689453125,0.6926759749352932,1.0324868987217546,-1.0467463102206587
1783170510072739000,6.588739013671875,0.4230290129601955,0.9646486033789813,-1.2295597690038382
1783170510082808000,6.59880810546875,0.17205401822924613,0.9403820309981703,-1.3582770420707762
1783170510092878000,6.608878173828125,-0.12532616932392118,0.852389859290421,-1.4115991746746004
1783170510102947000,6.618947021484375,-0.46393268575668334,0.8329211887106299,-1.4684955125033854
1783170510113017000,6.62901708984375,-0.7698492309868336,0.8532340550296008,-1.5133523068398236
1783170510123086000,6.639086181640625,-1.0130044918775558,0.8573825530111789,-1.5473613978169858
1783170510133156000,6.649156005859375,-1.0653186164826154,0.8746629197664558,-1.5441582178615032
1783170510143225000,6.65922509765625,-0.9221282891660928,0.8721383697248994,-1.5352939434044062
1783170510153295000,6.669295166015625,-0.6075123046517372,0.8406627427481115,-1.493224295568466
1783170510163364000,6.679364013671875,-0.27751287304461003,0.7773448474392295,-1.426502290904522
1783170510173434000,6.68943408203125,-0.023290274694561956,0.7032920614957809,-1.3431461084343492
1783170510183503000,6.699503173828125,0.1645037489801645,0.6581248860359191,-1.2919934288240968
1783170510193573000,6.709572998046875,0.40108956835269927,0.6120717215217649,-1.2900813115924596
1783170510203642000,6.71964208984375,0.6733627871781587,0.47993455700874327,-1.2955416228249668
1783170510213711000,6.729711181640625,0.9111316788554191,0.3149143829390406,-1.326318600013107
1783170510223781000,6.739781005859375,1.1024281576931476,0.16750526888370512,-1.3332640352368355
1783170510233850000,6.74985009765625,1.1960498597204685,0.030473902588337657,-1.328852064013481
1783170510243920100,6.759920166015625,1.1776222226262092,-0.049773207950592036,-1.324038233990967
1783170510253988900,6.76998876953125,0.9459428799957036,-0.10185644640922546,-1.2845176861159502
1783170510264059100,6.78005908203125,0.7053659451603889,-0.08202376482263207,-1.2388687184885143
1783170510274128000,6.7901279296875,0.5539782828629016,-0.004697510166466236,-1.157922008312866
1783170510284198100,6.8001982421875,0.4213502660930156,0.059172319936752316,-1.1019243728894739
1783170510294267100,6.81026708984375,0.2994423807799816,0.10592647232711315,-1.0470851137209682
1783170510304337200,6.820337158203125,0.10960077692568301,0.0795842627160251,-1.0214034869104622
1783170510314406100,6.83040625,-0.04231646220386028,0.025496114175766704,-1.0060044038571416
1783170510324476000,6.840475830078125,-0.07336684950590133,-0.008870996458828448,-0.9883173559971153
1783170510334545200,6.850545166015625,0.013214870882034302,-0.04008738797754049,-0.9743560506619513
1783170510344615000,6.860614990234375,0.18236673792898653,-0.12619462272152304,-0.8868344921406358
1783170510354684200,6.87068408203125,0.2541027713626623,-0.1790969224780798,-0.9377674645856022
1783170510364754000,6.88075390625,0.24528116700351238,-0.2013615073867142,-0.9271615340929478
1783170510374823200,6.8908232421875,0.14812135397791862,-0.2703874050788581,-0.9355889515027404
1783170510384893200,6.90089306640625,0.08584113115370273,-0.3432840067245066,-0.9125736943572759
1783170510394962200,6.910962158203125,0.0933539910018444,-0.38022666693553325,-0.9087693336382507
1783170510405032200,6.9210322265625,0.15520166762769222,-0.4286461221896112,-0.8949300472475588
1783170510415101000,6.931100830078125,0.2471305942624807,-0.5083715469419956,-0.8871382973928004
1783170510425170200,6.941170166015625,0.35257775864005086,-0.5762713632136583,-0.8991403584189712
1783170510435240000,6.951239990234375,0.47827919101715083,-0.6863144770793617,-0.8839728190992027
1783170510445309200,6.96130908203125,0.6047147828876972,-0.7317100544676184,-0.8124052010349929
1783170510455379000,6.97137890625,0.7355056473582983,-0.7754244007706642,-0.7409892664011567
1783170510465448200,6.9814482421875,0.7669464952826499,-0.8077822174094617,-0.703533322905749
1783170510475518000,6.99151806640625,0.7377689161151647,-0.8131912368461489,-0.6782936677090823
1783170510485587200,7.001587158203125,0.5331400774955749,-0.8295439673624933,-0.724986079974845
1783170510495657000,7.011656982421875,0.3224216898292303,-0.858478093162924,-0.7286347386755049
1783170510505726200,7.021726318359375,0.1040589248895645,-0.9074385234259068,-0.7252469959333538
1783170510515796200,7.031796142578125,-0.05607903009653091,-0.9356405355595052,-0.7109704141039401
1783170510525865000,7.041864990234375,-0.05898878006339073,-0.9584703531354665,-0.6758830263707787
1783170510535935200,7.051935302734375,-0.13757190291285515,-0.9625010699562728,-0.7543410615358501
1783170510546004000,7.06200390625,-0.24019874917268752,-0.9850900645136833,-0.7452488966070115
1783170510556074200,7.07207421875,-0.33996611434817314,-0.9906443376399576,-0.7264288991943001
1783170510566143000,7.08214306640625,-0.35477497642338274,-0.9633794602259993,-0.707192064609006
1783170510576213200,7.092213134765625,-0.2990086655378342,-0.8681870017506181,-0.6795187525246292
1783170510586282000,7.102281982421875,-0.34663258650004863,-0.7654941045172512,-0.6928600993305444
1783170510596352000,7.11235205078125,-0.5164291811913252,-0.6798078716643154,-0.6830161661863327
1783170510606421000,7.1224208984375,-0.5909919624835253,-0.5759872855752706,-0.6329547889441252
1783170510616490200,7.132490234375,-0.5645715730696916,-0.47433600634932516,-0.6627946314126253
1783170510626560000,7.14256005859375,-0.42525721040368075,-0.5033635095216333,-0.5088914426302537
1783170510636629000,7.15262890625,-0.13997194979190825,-0.5693664061307907,-0.3443226655898616
1783170510646699300,7.16269921875,0.28692192190289495,-0.5684985372550785,-0.14866284044347702
1783170510656768000,7.17276806640625,0.5046574948549271,-0.5792509635463357,-0.14185739821232854
1783170510666838300,7.18283837890625,0.4395113612055778,-0.6184101307630538,-0.23685071738641708
1783170510676907000,7.192906982421875,0.18488135109841822,-0.7244654901668429,-0.457387903755717
1783170510686977000,7.20297705078125,-0.03167816381156444,-0.8182952819868922,-0.6406546957969665
1783170510697046000,7.2130458984375,-0.19579320573508738,-0.8529577223062514,-0.7636817213330418
1783170510707116000,7.223115966796875,-0.3457949666321277,-0.766914638839662,-0.8494798170626163
1783170510717185000,7.23318505859375,-0.4042681983888149,-0.6517696717903018,-0.8235659158661961
1783170510727255000,7.243255126953125,-0.34368659617602826,-0.5390389262758195,-0.747861855584383
1783170510737324000,7.253323974609375,-0.37898704213798046,-0.4412409614771604,-0.6960183441657573
1783170510747394000,7.26339404296875,-0.46597208262979983,-0.37174130879342554,-0.7236085080113261
1783170510757463000,7.273463134765625,-0.5783651206225157,-0.36370106407031416,-0.7298557318378239
1783170510767533000,7.283532958984375,-0.7583557770699262,-0.26683321972861884,-0.7714888879526406
1783170510777602000,7.29360205078125,-0.9214812234342098,-0.08570610659718512,-0.8459623104609548
1783170510787672000,7.303672119140625,-1.1054840381324291,0.039900340972840787,-0.8929108894448727
1783170510797741000,7.313740966796875,-1.290090079420805,0.2458409928433597,-0.8992031214568763
1783170510807811000,7.32381103515625,-1.374259477970004,0.5128190278701484,-0.9390069432526826
1783170510817880000,7.333880126953125,-1.31408294942677,0.5921159980773926,-0.9779339091487228
1783170510827949000,7.343948974609375,-1.2857424056053162,0.4538469066806137,-0.9794419756241142
1783170510838019000,7.35401904296875,-1.2835370045155285,0.536289043045789,-1.0200812983959913
1783170510848088000,7.364088134765625,-1.284961484360695,0.7282419399656355,-0.9519603867195546
1783170510858158000,7.374157958984375,-1.2990221584171056,0.9010836014412343,-0.8032024884037673
1783170510868227000,7.38422705078125,-1.2903157048702238,1.05665176429376,-0.666092869240418
1783170510878297000,7.394297119140625,-1.1533704094231128,1.173015897874534,-0.5738248833769932
1783170510888366000,7.404365966796875,-0.8242495142161845,1.2113548347495495,-0.5092313786417245
1783170510898436000,7.41443603515625,-0.3096814507216215,1.2151676710359751,-0.4404293893659487
1783170510908505000,7.424505126953125,0.2514402741551399,1.1684944749273358,-0.3519458539446816
1783170510918575000,7.4345751953125,0.7320213123738766,1.108153987994045,-0.21258049174379556
1783170510928644000,7.44464404296875,1.0023048186868428,1.0698657583929598,-0.0719259665152058
1783170510938714000,7.454714111328125,1.0565729999691247,1.052418364507705,0.08416632980927824
1783170510948783000,7.464783203125,1.0294763187289238,1.000700306099653,0.14585910813435912
1783170510958853000,7.47485302734375,0.943997006624937,0.9232277748405933,0.1345775068698451
1783170510968922000,7.484922119140625,0.8159954806119203,0.8611267079755663,0.09312131475713104
1783170510978991900,7.494991943359375,0.7151280452400446,0.8431145198144018,0.11881083261314779
1783170510989061000,7.50506103515625,0.5790484267115593,0.8141733797512948,0.11785996162910013
1783170510999131000,7.515130859375,0.30179625042974945,0.8260514490716159,0.09274696501940488
1783170511009200000,7.5252001953125,-0.06136778415441513,0.8140062064908444,0.08318827855736016
1783170511019270100,7.535270263671875,-0.359341845947504,0.8233467201575636,0.09414901383705436
1783170511029339100,7.545339111328125,-0.5022270528376103,0.7946284290648996,0.1280008318932727
1783170511039407900,7.555407958984375,-0.5774141035079956,0.8159849592179059,0.16549827644284815
1783170511049478100,7.56547802734375,-0.6135498312503099,0.8357049742102622,0.15580051030367612
1783170511059547000,7.575546875,-0.46274785988628864,0.8358148643255233,0.13027571802269666
1783170511069617200,7.5856171875,-0.18203414497375486,0.7949104608766734,0.1115591444518417
1783170511079686000,7.595685791015625,0.06893383549451827,0.7563993823051453,0.07506134193148463
1783170511089756000,7.605755859375,0.2610930686414242,0.729950351318717,0.024959815341979264
1783170511099825000,7.615824951171875,0.37480011184215545,0.743512428203225,-0.003950198930501938
1783170511109895000,7.62589501953125,0.45779345234930513,0.6954582991302013,-0.09187178962007164
1783170511119964000,7.6359638671875,0.4989852944374084,0.6002094342924654,-0.18337226170971987
1783170511130034000,7.646033935546875,0.49880584621727464,0.5131406610399485,-0.2968802752070129
1783170511140103200,7.656103271484375,0.5291635750800371,0.508513439630717,-0.35035438350215553
1783170511150173000,7.6661728515625,0.4951788878917694,0.47296559477895495,-0.34492351755984124
1783170511160242200,7.6762421875,0.42622225604355335,0.48383302575200793,-0.2906402848389
1783170511170312000,7.68631201171875,0.41779812656939025,0.5531288264267147,-0.19619813327416777
1783170511180381200,7.696381103515625,0.3866840263813734,0.5766764368832111,-0.17544921362549065
1783170511190451000,7.706450927734375,0.2842465652137995,0.5190929935730993,-0.2837118738152087
1783170511200520000,7.71652001953125,0.17667466376721858,0.4501780089095235,-0.39016156629882753
1783170511210590000,7.72658984375,0.09713818571567535,0.40544308738708495,-0.4785479614885524
1783170511220659000,7.736658935546875,-0.025224457627534867,0.3937934199951589,-0.49581203469615426
1783170511230728000,7.74672802734375,-0.17023907776176928,0.39253479823619125,-0.5750890215612947
1783170511240798000,7.7567978515625,-0.2861053448230028,0.44596287543252106,-0.540176880797185
1783170511250867000,7.766866943359375,-0.2622539291143417,0.47284006870314477,-0.5032909922746941
1783170511260937000,7.77693701171875,-0.19182664019167422,0.4348286102168262,-0.5206071609957144
1783170511271006200,7.787006103515625,-0.16060381893217562,0.3699380587637424,-0.5418796295944601
1783170511281076000,7.797075927734375,-0.18430618155896664,0.3383678853712976,-0.5113242592677474
1783170511291145000,7.80714501953125,-0.19015081593394279,0.3860068577721715,-0.47706185111664234
1783170511301215000,7.817215087890625,-0.08455927464962006,0.38251916178688405,-0.4243110155947506
1783170511311284000,7.827283935546875,0.053522915872931474,0.27091025990918277,-0.4310563251364976
1783170511321354000,7.83735400390625,0.09528466680347919,0.10508563758879899,-0.5196913978576659
1783170511331423000,7.847423095703125,0.22199147683084008,0.00663841510117054,-0.6958556278847158
1783170511341493000,7.857492919921875,0.4082891244679689,-0.042558308135718106,-0.8390928630828857
1783170511351562000,7.86756201171875,0.44671793158352374,-0.16476444574296473,-0.916811258861795
1783170511361632000,7.877632080078125,0.41057811218798157,-0.2370250875726342,-1.0445203047342597
1783170511371701000,7.887700927734375,0.3818704886198044,-0.16211305445134638,-1.0907567168608308
1783170511381771000,7.89777099609375,0.46516135076880455,-0.05598755242079496,-1.017668392035365
1783170511391840000,7.907840087890625,0.6521557484984397,0.043790334148705,-0.8175499435123056
1783170511401910000,7.917909912109375,0.8538041100025177,0.10006664038300514,-0.5941655875509605
1783170511411979000,7.92797900390625,1.004617187282443,0.08711246626377105,-0.43397528132311997
1783170511422049000,7.938049072265625,1.0929548114269971,-0.00811199478507042,-0.29069157663471995
1783170511432118000,7.948117919921875,1.164302722325921,-0.13351415195465088,-0.29314554565809664
1783170511442187000,7.95818701171875,1.2055641225188969,-0.2129433702394366,-0.3665709934834391
1783170511452257000,7.968257080078125,0.886944747582078,-0.3914247911676764,-0.4574334233978763
1783170511462326000,7.978325927734375,0.28959377146065235,-0.5227484473407268,-0.5100599384203552
1783170511472395800,7.988395751953125,-0.5225666610330343,-0.47348581926077604,-0.45632590054739264
1783170511482465000,7.998465087890625,-1.3418857331097125,-0.20576748726069927,-0.3541387974116951
1783170511492534800,8.00853466796875,-2.021217073303461,0.11528978234753012,-0.22177250031791626
1783170511502604000,8.01860400390625,-2.368216155028343,0.3224447784438729,-0.00213524019671604
1783170511512674000,8.028674072265625,-2.5480600964814424,0.5521440531730651,0.30033929308708757
1783170511522743000,8.038742919921875,-2.6901865939587353,0.7889259796395898,0.5678715279305353
1783170511532813000,8.04881298828125,-2.7890894512593745,1.0207741029657422,0.8212944638028741
1783170511542882000,8.058882080078124,-2.6763112133413554,1.1736876596562564,1.0027650566097348
1783170511552952000,8.0689521484375,-2.3226731319934126,1.1729875485628842,1.0313765263270587
1783170511563021000,8.07902099609375,-1.7646622326135635,0.9702838327869773,0.9380670320540666
1783170511573091000,8.089091064453125,-1.1850520803660154,0.69033204215765,0.7069172662556171
1783170511583159800,8.099159912109375,-0.7570435254275798,0.4955690562531352,0.4365979579769075
1783170511593230000,8.10922998046875,-0.4393909496963024,0.4211521131724119,0.2536434284889139
1783170511603298800,8.119298828125,-0.15912731663882732,0.41894130525514484,0.12262129427939653
1783170511613369000,8.129369140625,0.007018938851356506,0.44933191347420215,0.05175110216112807
1783170511623437800,8.139437744140626,0.13555004169642926,0.5041970377363264,-0.0006970240871421992
1783170511633507000,8.149507080078125,0.290787949681282,0.507881279207021,-0.08265208932142704
1783170511643577000,8.1595771484375,0.4566214859604835,0.4722247132837772,-0.17334581160545348
1783170511653646000,8.16964599609375,0.5726479120194912,0.3956660819992423,-0.3107940516060218
1783170511663716000,8.179716064453125,0.7079384259968996,0.3602751812748611,-0.3349043374465778
1783170511673785000,8.18978515625,0.7862725425213575,0.3707596042796969,-0.37157548723984507
1783170511683855000,8.199855224609376,0.7554179700523614,0.29960867725759743,-0.4152549448926002
1783170511693923800,8.209923828125,0.6365028368145227,0.20763006626218555,-0.5488716073736548
1783170511703994000,8.219994140625,0.5849953524172306,0.1361862937733531,-0.6791635093461722
1783170511714062800,8.230062744140625,0.550370613759756,0.039986704082041975,-0.7686867630787193
1783170511724133000,8.240133056640625,0.5321873068153858,-0.048098844997584815,-0.8453396485179662
1783170511734201900,8.250201904296874,0.49920039849281306,-0.07723609215468168,-0.8442641282409429
1783170511744272000,8.26027197265625,0.4235194268256426,0.02389496258944273,-0.6605247867844999
1783170511754340900,8.2703408203125,0.24877134720683097,0.21886370019912718,-0.4711257390659302
1783170511764411000,8.280410888671875,0.08852584019303321,0.31121567455157634,-0.30956589805055407
1783170511774480100,8.290480224609375,0.08025134832262992,0.341195363882184,-0.2488714465804398
1783170511784550000,8.3005498046875,0.23966098903417585,0.29142741662859917,-0.2719130072109401
1783170511794619100,8.310619140625,0.44262686287760733,0.1436041688144207,-0.35145094656720755
1783170511804689000,8.32068896484375,0.6363830098271369,0.01086319318935275,-0.45053873198069627
1783170511814758100,8.330758056640626,0.872477830812335,-0.10022855294644832,-0.4778312280539423
1783170511824828000,8.340827880859376,1.089267647346854,-0.19265271575227377,-0.48136692789942026
1783170511834897200,8.350897216796875,1.156430381515622,-0.3353545288994908,-0.4887487452464178
1783170511844966000,8.3609658203125,1.0734849718034267,-0.4398025992371142,-0.5755121058115735
1783170511855036000,8.371035888671875,0.9564140051275491,-0.5065662510856985,-0.5475045933367684
1783170511865105000,8.38110498046875,0.8234358597457409,-0.5755648223794997,-0.4547736296040937
1783170511875175000,8.3911748046875,0.6574667143881321,-0.579572012194246,-0.46311614520940925
1783170511885244000,8.401243896484376,0.5508733025848865,-0.6033820729792118,-0.5292634552579373
1783170511895314000,8.41131396484375,0.49338966638743875,-0.6877069543510675,-0.6424343457553535
1783170511905383200,8.421383056640625,0.5849269633561373,-0.8006066266916692,-0.6553551290616393
1783170511915453000,8.431452880859375,0.5576461577206849,-0.8971559066034853,-0.6054083546424284
1783170511925522200,8.441522216796875,0.5223655855029821,-0.9874702376484871,-0.5128462081380188
1783170511935592000,8.451592041015624,0.5216735115855932,-1.0945981947198509,-0.5577794652441517
1783170511945661200,8.4616611328125,0.373829220983386,-1.2917448608905076,-0.6809332224324345
1783170511955731000,8.47173095703125,0.10957155083119868,-1.4848606641098856,-0.745090710370615
1783170511965800000,8.481800048828125,-0.21447277176380156,-1.4686382819749415,-0.7435065829843283
1783170511975870000,8.491869873046875,-0.6550847876876592,-1.3037078320153057,-0.6670785923421383
1783170511985939000,8.50193896484375,-1.2520955720692872,-1.1402679128743707,-0.5712930633444339
1783170511996009000,8.512009033203125,-1.59939159091413,-0.9582118483297526,-0.4554570087583735
1783170512006078000,8.522077880859374,-1.488701849707961,-0.761862323886156,-0.32708087727930396
1783170512016148000,8.53214794921875,-0.9530682018309831,-0.6721594027377664,-0.16382084474992006
1783170512026217000,8.542217041015626,-0.28584640162587166,-0.6357023340865969,0.02652553028874099
1783170512036286000,8.552285888671875,0.14986615181863308,-0.6486337118521333,0.17455182639434932
1783170512046356000,8.56235595703125,0.31904958304762837,-0.6608202625997364,0.234780961907655
1783170512056425200,8.57242529296875,0.48179099853038787,-0.7176428045399487,0.2042595669157803
1783170512066495000,8.582494873046874,0.6062777944207192,-0.8131390682674944,0.19876264999993146
1783170512076563700,8.592563720703126,0.6869517520695925,-0.8899262476108968,0.14683664792962373
1783170512086634000,8.602634033203126,0.6821680249243974,-0.9170578540340065,0.10263181469589472
1783170512096702700,8.61270263671875,0.6531085191786289,-0.8764159009136259,0.08448182549923658
1783170512106773000,8.62277294921875,0.4890419925719499,-0.7777645341560244,0.07150763150528072
1783170512116841700,8.632841796875,0.28333704915344715,-0.6634598173230886,0.05204217579588294
1783170512126912000,8.642912109375,0.10112637856900691,-0.5792850119464099,0.05000431329272687
1783170512136980700,8.652980712890624,0.050316813308000564,-0.4959684308342635,0.07118139522559941
1783170512147050800,8.66305078125,0.07705752071738242,-0.45350145424380894,0.0650678077161312
1783170512157119700,8.67311962890625,-0.0017050503522157668,-0.29668109937310216,0.028664661209285257
1783170512167189800,8.683189697265625,-0.19591303272247312,-0.12529752775132655,0.08903645659629256
1783170512177258800,8.6932587890625,-0.37742286156117916,-0.15167758515477178,0.10993928816504776
1783170512187328800,8.703328857421875,-0.39520752457678315,-0.2921908022165298,-0.07347458419669418
1783170512197397800,8.713397705078124,-0.3743348324179649,-0.6267723009169102,-0.3992182215228677
1783170512207467800,8.7234677734375,-0.42374446775317187,-1.1456517978698015,-0.7553085183285176
1783170512217537000,8.733537109375,-0.481854126894474,-1.465659704555571,-1.001873368467018
1783170512227605800,8.743605712890625,-0.4906716396003961,-1.5434861638188362,-1.1480381815496832
1783170512237676000,8.753676025390625,-0.6228080734610557,-1.4862033108904957,-1.157397619112581
1783170512247744800,8.763744873046875,-0.8513578858941793,-1.2542296614885329,-1.083933154451102
1783170512257814800,8.773814697265625,-1.1860457675784826,-0.9895698402762413,-0.9413296140465884
1783170512267883800,8.7838837890625,-1.4482827455580234,-0.7123498126983642,-0.72104384515509
1783170512277953800,8.793953857421876,-1.418573835992813,-0.20025924523323774,-0.26903153349049386
1783170512288022800,8.804022705078125,-1.4055653013378382,0.4840136430159211,0.36252873235531147
1783170512298092800,8.8140927734375,-1.4492711720734834,0.9764712892502546,0.926492037333548
1783170512308161800,8.824161865234375,-1.3001596380144358,1.2647833503372967,1.2938107073791325
1783170512318231800,8.834231689453125,-1.144886074194312,1.3451555485606193,1.3200811669282615
1783170512328300800,8.84430078125,-0.8640127848058938,1.2454117103911935,1.2986002797432243
1783170512338370800,8.854370849609374,-0.6333031639903783,0.9825263515055179,1.1014224877819419
1783170512348439800,8.864439697265626,-0.3349567617535591,0.7061338607929647,0.9996925903618336
1783170512358509800,8.874509765625,-0.20894377920925616,0.5992150164276361,1.1360722147502005
1783170512368578800,8.884578857421875,-0.2417676059246063,0.6849215614162385,1.268150780943781
1783170512378648800,8.89464892578125,-0.21098668321371078,0.8190773722752929,1.3930094788864253
1783170512388717800,8.9047177734375,-0.1592757851988077,1.0219307256549597,1.5315303530871867
1783170512398787800,8.914787841796874,-0.18664836077094077,1.2388450453519821,1.6245016283817588
1783170512408856800,8.92485693359375,0.0038823943912982936,1.2978621747270225,1.6769718203313648
1783170512418925800,8.93492578125,0.3183849816590547,1.1868556226566433,1.551026788456738
1783170512428995800,8.944995849609375,0.37751872315108775,1.023042340158671,1.4631005215920507
1783170512439064800,8.95506494140625,0.08628829039931296,1.0373181182704865,1.4712940571807325
1783170512449134800,8.965134765625,-0.22547522729337213,1.0937265264518559,1.4731835241891442
1783170512459203800,8.975203857421874,-0.059979544666409486,1.0598932304330169,1.6014774572774766
1783170512469273900,8.98527392578125,0.3602975392371416,0.9536579844176769,1.5857282456122337
1783170512479342800,8.9953427734375,0.6278443140625953,0.8795577060706913,1.5635262045457958
1783170512489412900,9.005412841796876,0.657621612688899,0.8522982354842126,1.5692691321119665
1783170512499481900,9.01548193359375,0.5175608155697584,0.8244488361805677,1.5349365082688629
1783170512509551900,9.0255517578125,0.4317500795543194,0.8769463545285164,1.5496026008725166
1783170512519620900,9.035620849609375,0.4408282890230417,0.9379979123406111,1.6392308493494987
1783170512529690600,9.045690673828124,0.6365835008352995,0.9164381147004663,1.675118447549641
1783170512539759900,9.055759765625,0.9590735797256231,0.8920264347605407,1.7345307137221098
1783170512549829600,9.06582958984375,1.0351426739275456,0.9702223118580877,1.7976909342512488
1783170512559899000,9.07589892578125,1.0225468117266894,0.9074417382963001,1.6994244751580059
1783170512569969000,9.085968994140625,0.8339572537600993,0.7800128976047038,1.581693875529617
1783170512580038000,9.096037841796875,0.589798953306675,0.6921950595505535,1.4401627135969697
1783170512590108000,9.10610791015625,0.5100485402435064,0.6632685325346886,1.3239604925796389
1783170512600177000,9.116177001953124,0.3652519467741251,0.6384072091311216,1.215141952072829
1783170512610246000,9.126245849609376,0.09434592464864254,0.7873305271416902,1.1857687042027711
1783170512620316000,9.13631591796875,-0.11616612679064273,0.9451075982153415,1.1117045200824738
1783170512630385000,9.146385009765625,-0.275379368147254,0.9434591003559529,1.0356802879355846
1783170512640454700,9.15645458984375,-0.30690730983316894,0.9309681598342955,0.9916801834937184
1783170512650524000,9.16652392578125,-0.3161351569056511,0.9039923284947872,0.9363887966435402
1783170512660593700,9.17659375,-0.24903438205718992,0.8528982472039759,0.9124655578076839
1783170512670663000,9.186662841796876,-0.22753625147640705,0.7578428591117262,0.7398954067498446
1783170512680732700,9.196732666015626,-0.3117816378712654,0.6267391292996705,0.5750199383804574
1783170512690802000,9.206802001953125,-0.2681155146241188,0.5210695543430746,0.45954884464927015
1783170512700871700,9.21687158203125,-0.24458792404234408,0.4599420086853206,0.4206726590923965
1783170512710941000,9.22694091796875,-0.14567629891335962,0.41997035604193805,0.43942817643415183
1783170512721011000,9.237010986328125,-0.014997662645578384,0.39470468962118027,0.4926414783686399
1783170512731080000,9.247079833984374,0.1346545541614294,0.32129385484308004,0.5111677169991656
1783170512741150000,9.25714990234375,0.186342071300745,0.2540988258399069,0.49381012028921395
1783170512751218700,9.26721875,0.05724047509133815,0.20542714939042925,0.4201787746282294
1783170512761289000,9.2772890625,-0.16470014833509922,0.1859330521084368,0.38378706283085046
1783170512771357700,9.287357666015625,-0.3302846782892942,0.20716230261996388,0.3291377732764929
1783170512781428000,9.297427978515625,-0.3170020028680563,0.2004156048387289,0.28206732147857544
1783170512791496700,9.30749658203125,-0.17937632394134997,0.22676672840863465,0.27713865117104725
1783170512801566000,9.31756591796875,-0.030907179439067838,0.26948431875929235,0.3093709600003436
1783170512811634000,9.327634033203125,-0.031631402060389516,0.27297537574544545,0.2919860003594309
1783170512821702700,9.33770263671875,0.07098433828353881,0.2968433041974902,0.2951455603688955
1783170512831773000,9.34777294921875,0.02737316009402275,0.23643413594216106,0.28679926363760605
1783170512841842000,9.357842041015624,-0.060608490219712256,0.13741115939319132,0.2681340001288801
1783170512851911700,9.36791162109375,0.0563975945264101,0.07639891067817807,0.20820691630207
1783170512861981000,9.37798095703125,0.4403004657566547,0.019293752404302356,0.25342940214574333
1783170512872050700,9.38805078125,0.6990308969199657,-0.16108517270833253,0.33406043396834284
1783170512882120000,9.398119873046875,0.7115566164940595,-0.3174824798613787,0.356916189703159
1783170512892189700,9.408189697265625,0.32633214127123356,-0.3554208731114864,0.21133156939493491
1783170512902259000,9.418259033203125,-0.268005039986968,-0.32664325304701924,0.14279330908926202
1783170512912328700,9.42832861328125,-0.46919455180764197,-0.22668387243077157,0.08502828040085733
1783170512922398000,9.43839794921875,-0.3253413766682148,-0.17090923210829495,0.09451265951767564
1783170512932468000,9.448468017578126,-0.07592530181705952,-0.2781727982580662,0.1814801278201863
1783170512942536700,9.45853662109375,0.12458616461157798,-0.33136429021954533,0.17201275463709606
1783170512952605700,9.468605712890625,0.12449497919678687,-0.3110867874749005,0.17986003407137469
1783170512962675700,9.47867578125,-0.06376432390213012,-0.26950857641771436,0.22351033869488163
1783170512972745000,9.488744873046874,-0.20859949581623077,-0.2618614226654172,0.24378979593459515
1783170512982814700,9.498814697265624,-0.5165566069632769,-0.2816504112407565,0.11281776621080934
1783170512992884000,9.508884033203126,-0.9468950661540031,-0.3215826086565852,-0.0027732275729998946
1783170513002953700,9.51895361328125,-1.1173650300621987,-0.3812842131644487,0.10368674884261563
1783170513013023000,9.52902294921875,-0.8419061669379472,-0.4141482257597148,0.36696653213966635
1783170513023092700,9.5390927734375,-0.5162596698433161,-0.3537633151628077,0.5564883294550702
1783170513033162000,9.549161865234375,-0.5229594597429037,-0.2185255542859435,0.5574944012250751
1783170513043231700,9.559231689453124,-0.8339116610527038,-0.05900295471921563,0.5302883047936484
1783170513053300700,9.56930078125,-1.2238152340024708,0.1404644094839692,0.5493098161278293
1783170513063370500,9.57937060546875,-1.401703365212679,0.27901714012771844,0.5324019359467551
1783170513073439500,9.589439453125,-1.3012813355207442,0.3783434835374355,0.4692543557034805
1783170513083509500,9.599509521484375,-0.9831120424389839,0.4250063043825328,0.46290608265530314
1783170513093578500,9.60957861328125,-0.5510334615826606,0.46940191094800826,0.5733925563743337
1783170513103648500,9.6196484375,-0.17332593786120415,0.5607230809479952,0.6455183563105762
1783170513113717500,9.629717529296874,-0.15666998661458492,0.5711451062411069,0.656121291128546
1783170513123787500,9.63978759765625,-0.4203209230452776,0.6228472364276647,0.5999251374583691
1783170513133857500,9.649857421875,-0.545585133048892,0.7913239806920289,0.6080235421095043
1783170513143926300,9.65992626953125,-0.5358604423701763,0.9142359284810722,0.6247839766439051
1783170513153996500,9.66999658203125,-0.4087596645891666,0.918668504101038,0.5388273293517529
1783170513164065500,9.6800654296875,-0.25407471431195733,0.8720034912988543,0.41188678363375364
1783170513174135600,9.690135498046875,-0.18963935928046702,0.9463093752205372,0.3242934750504792
1783170513184204500,9.70020458984375,-0.1316746615678072,1.0352747758746146,0.2840567599964328
1783170513194274300,9.7102744140625,0.006236848562955856,1.0363388979747892,0.3310292130462825
1783170513204343600,9.720343505859375,0.10300152479112147,1.0874082832157612,0.47794630580097436
1783170513214413300,9.730413330078125,0.10135609567165374,1.2271195362448692,0.6195297093775123
1783170513224482600,9.740482666015625,0.05462707772254943,1.3376631469786167,0.6570605447400361
1783170513234551600,9.750551513671875,0.037304771521687506,1.3405875099927187,0.44970293874368067
1783170513244621600,9.76062158203125,0.032435704180598254,1.1417410541668533,0.003388144600950181
1783170513254690300,9.770690185546876,0.020702011767029762,0.9463640280172229,-0.08516500372411683
1783170513264760600,9.780760498046876,0.13064414947628974,1.0449334155797958,0.15434777247840537
1783170513274829300,9.790829345703125,0.6746990042179822,1.1154539357438682,0.40667233692109583
1783170513284899600,9.800899658203125,1.5938012235611676,1.1152803327426313,0.739403093188256
1783170513294968600,9.810968505859375,2.0294266832441092,1.253660921689868,0.6076048417733981
1783170513305038300,9.821038330078125,1.5420733744114636,1.7907805703409014,0.5327434793934226
1783170513315107600,9.831107666015624,0.7035095036387443,1.3141788110166788,1.4193836910709738
1783170513325177300,9.84117724609375,-0.2385427986592054,1.4585257610224187,1.4738079396978019
1783170513335246600,9.85124658203125,-1.1667378405183553,2.1568635611116886,0.5186613606901839
1783170513345316400,9.86131640625,-1.2609843964457512,1.6387595785759388,1.0037592552788555
1783170513355385600,9.871385498046875,-0.842986363390088,1.3786651655830442,0.6203519855458289
1783170513365455400,9.881455322265625,-0.7124439207226038,1.504644099727273,0.26662438101721925
1783170513375524600,9.891524658203124,-0.9501257186383009,1.5264102335944771,0.2747245392340235
