time,seconds_elapsed,z,y,x
1783170503557788400,0.073788330078125,0.9797776341438293,0.12304126471281052,0.04782970994710922
1783170503567858200,0.083858154296875,0.9845058917999268,0.16774456202983856,0.023319434374570847
1783170503577927400,0.093927490234375,0.9836270809173584,0.1877339780330658,-0.002061024773865938
1783170503587997400,0.10399755859375,0.9726661443710327,0.1884056180715561,-0.0020158588886260986
1783170503598066400,0.11406640625,0.9612547755241394,0.13984021544456482,0.01867237500846386
1783170503608136400,0.124136474609375,0.9364776611328125,0.06570341438055038,0.06473970413208008
1783170503618205200,0.134205078125,0.8996666669845581,0.014583505690097809,0.14016947150230408
1783170503628275500,0.144275390625,0.8774884343147278,0.015385899692773819,0.21340471506118774
1783170503638344200,0.15434423828125,0.8446245193481445,0.0556987002491951,0.23864908516407013
1783170503648414500,0.16441455078125,0.8212969899177551,0.11563821882009506,0.22189629077911377
1783170503658483200,0.174483154296875,0.7981658577919006,0.1543232947587967,0.1666570007801056
1783170503668553500,0.184553466796875,0.7644785642623901,0.18216702342033386,0.10586421191692352
1783170503678622200,0.194622314453125,0.7367537021636963,0.2008379101753235,0.05880961939692497
1783170503688691500,0.20469140625,0.6894354224205017,0.1799492985010147,0.041541293263435364
1783170503698761200,0.21476123046875,0.654217541217804,0.13535386323928833,0.056885894387960434
1783170503708830500,0.22483056640625,0.6383556127548218,0.07200111448764801,0.08553854376077652
1783170503718900500,0.234900390625,0.6460156440734863,0.02555292472243309,0.1237514466047287
1783170503728969200,0.24496923828125,0.6752275228500366,-0.013182496652007103,0.14085468649864197
1783170503739039500,0.25503955078125,0.6978904604911804,-0.03550884127616882,0.13072535395622253
1783170503749108200,0.265108154296875,0.713860034942627,-0.017178818583488464,0.0985478013753891
1783170503759178500,0.275178466796875,0.7269526720046997,0.03810174763202667,0.05001116171479225
1783170503769247200,0.285247314453125,0.7358759641647339,0.1020175963640213,-0.004679074045270681
1783170503779317500,0.2953173828125,0.7326298356056213,0.16451133787631989,-0.05991516262292862
1783170503789386200,0.30538623046875,0.7183741331100464,0.21429674327373505,-0.1080346629023552
1783170503799456300,0.315456298828125,0.7074021697044373,0.26576662063598633,-0.1225970908999443
1783170503809525200,0.325525146484375,0.7073022723197937,0.325314998626709,-0.09148570895195007
1783170503819595300,0.33559521484375,0.7254916429519653,0.3500632345676422,-0.04501967504620552
1783170503829664300,0.345664306640625,0.7564800977706909,0.34108054637908936,-0.0041658286936581135
1783170503839734300,0.355734375,0.800260066986084,0.2957487404346466,0.022921448573470116
1783170503849803300,0.36580322265625,0.8293091058731079,0.2512570321559906,0.019518569111824036
1783170503859873300,0.375873291015625,0.8376842141151428,0.18919844925403595,-0.011449200101196766
1783170503869942500,0.385942626953125,0.8276800513267517,0.11306773871183395,-0.04922042042016983
1783170503880012300,0.39601220703125,0.7672944664955139,0.03458118438720703,-0.10859080404043198
1783170503890081300,0.406081298828125,0.6984410881996155,-0.02645954303443432,-0.17402279376983643
1783170503900151300,0.4161513671875,0.6467387080192566,-0.046041764318943024,-0.2194342166185379
1783170503910220300,0.42622021484375,0.6164702773094177,-0.0634017214179039,-0.21989873051643372
1783170503920290300,0.436290283203125,0.6052412986755371,-0.08776431530714035,-0.19253608584403992
1783170503930359300,0.446359375,0.6038293242454529,-0.09588708728551865,-0.17691126465797424
1783170503940429300,0.45642919921875,0.6013171672821045,-0.07665453851222992,-0.1759706288576126
1783170503950498300,0.466498291015625,0.598523736000061,-0.029078630730509758,-0.18447856605052948
1783170503960568300,0.476568359375,0.6019371151924133,0.028048839420080185,-0.1836513876914978
1783170503970637300,0.48663720703125,0.5901919007301331,0.10214610397815704,-0.19639882445335388
1783170503980706300,0.496706298828125,0.578313946723938,0.18660372495651245,-0.22328849136829376
1783170503990776300,0.5067763671875,0.5678033828735352,0.2548620104789734,-0.26224127411842346
1783170504000845300,0.51684521484375,0.573567807674408,0.31026723980903625,-0.2892071008682251
1783170504010915300,0.526915283203125,0.5970066785812378,0.3476385772228241,-0.2953653037548065
1783170504020984300,0.536984375,0.6305041909217834,0.34814536571502686,-0.26592618227005005
1783170504031054300,0.547054443359375,0.6494109630584717,0.3119587302207947,-0.20883530378341675
1783170504041123300,0.557123291015625,0.6612623333930969,0.26208171248435974,-0.16275940835475922
1783170504051193300,0.567193359375,0.654460072517395,0.2157733142375946,-0.14726904034614563
1783170504061258800,0.5772587890625,0.630554735660553,0.1742357313632965,-0.15569181740283966
1783170504071328800,0.587328857421875,0.6026979684829712,0.15180113911628723,-0.1593007743358612
1783170504081397800,0.597397705078125,0.5955098271369934,0.13985392451286316,-0.17742997407913208
1783170504091467800,0.6074677734375,0.603456974029541,0.12448163330554962,-0.19291704893112183
1783170504101536800,0.617536865234375,0.6184372901916504,0.09976936131715775,-0.19030262529850006
1783170504111606800,0.627606689453125,0.6233946084976196,0.062228523194789886,-0.17011409997940063
1783170504121676000,0.637676025390625,0.6181675791740417,0.029314514249563217,-0.14586201310157776
1783170504131745800,0.647745849609375,0.6108778119087219,-0.021111125126481056,-0.12919311225414276
1783170504141815000,0.65781494140625,0.6021127700805664,-0.07548408210277557,-0.11304876208305359
1783170504151884800,0.667884765625,0.596177875995636,-0.10074907541275024,-0.09983213245868683
1783170504161954000,0.6779541015625,0.5982871055603027,-0.10123004764318466,-0.08546357601881027
1783170504172023800,0.68802392578125,0.587595522403717,-0.08625054359436035,-0.06873004883527756
1783170504182092800,0.6980927734375,0.571979820728302,-0.05361803621053696,-0.041649430990219116
1783170504192162800,0.708162841796875,0.5496541857719421,-0.013600850477814674,-0.022628193721175194
1783170504202231800,0.718231689453125,0.5259249210357666,0.038927607238292694,-0.006658547092229128
1783170504212302000,0.728302001953125,0.5236099362373352,0.12514157593250275,0.02538491040468216
1783170504222370800,0.738370849609375,0.5515041947364807,0.20695893466472626,0.0739055722951889
1783170504232440800,0.74844091796875,0.5966901779174805,0.22543540596961975,0.10888754576444626
1783170504242509800,0.758509765625,0.642684280872345,0.18807019293308258,0.12174315750598907
1783170504252579000,0.7685791015625,0.672878623008728,0.11783730983734131,0.10881659388542175
1783170504262648800,0.77864892578125,0.6756855845451355,-0.006036968901753426,0.09019657224416733
1783170504272718000,0.788718017578125,0.6532897353172302,-0.14322569966316223,0.08748075366020203
1783170504282787800,0.798787841796875,0.622001051902771,-0.2592654824256897,0.0882520079612732
1783170504292856800,0.80885693359375,0.5968941450119019,-0.3415691554546356,0.09813795983791351
1783170504302926800,0.8189267578125,0.5720745921134949,-0.3915356397628784,0.1092768982052803
1783170504312995800,0.828995849609375,0.5564112663269043,-0.38807472586631775,0.11717476695775986
1783170504323065900,0.83906591796875,0.5368990898132324,-0.3404374420642853,0.12298844754695892
1783170504333134800,0.849134765625,0.5199670791625977,-0.23045289516448975,0.13047707080841064
1783170504343204900,0.859204833984375,0.5084648728370667,-0.06433289498090744,0.1459372490644455
1783170504353273900,0.86927392578125,0.5098183751106262,0.12426325678825378,0.16397662460803986
1783170504363344000,0.87934375,0.5294277667999268,0.30700886249542236,0.17577601969242096
1783170504373412900,0.889412841796875,0.5559521913528442,0.4429935812950134,0.18006102740764618
1783170504383483000,0.89948291015625,0.5756795406341553,0.5154203772544861,0.1833851933479309
1783170504393552000,0.9095517578125,0.5884220004081726,0.5320726633071899,0.19071617722511292
1783170504403622000,0.919621826171875,0.5877079963684082,0.5107681751251221,0.22031880915164948
1783170504413691000,0.92969091796875,0.5711082220077515,0.43144717812538147,0.2576804459095001
1783170504423761000,0.939760986328125,0.5456673502922058,0.3280281126499176,0.30220744013786316
1783170504433830000,0.949829833984375,0.5274026989936829,0.26295799016952515,0.335721880197525
1783170504443900000,0.95989990234375,0.5314334034919739,0.2560953199863434,0.3420538306236267
1783170504453968600,0.96996875,0.5456769466400146,0.28557878732681274,0.3123757243156433
1783170504464039000,0.980038818359375,0.5657643675804138,0.3120349049568176,0.2831193208694458
1783170504474108000,0.99010791015625,0.5837785601615906,0.32001835107803345,0.26639583706855774
1783170504484178000,1.000177978515625,0.6029570698738098,0.30367904901504517,0.2610839009284973
1783170504494247000,1.010246826171875,0.6145491600036621,0.2626022398471832,0.26167213916778564
1783170504504316000,1.02031591796875,0.6107363700866699,0.19464154541492462,0.25530317425727844
1783170504514386000,1.030385986328125,0.5862654447555542,0.1261277198791504,0.24736367166042328
1783170504524455000,1.040454833984375,0.544135570526123,0.07797111570835114,0.24164560437202454
1783170504534525000,1.05052490234375,0.49938029050827026,0.030141541734337807,0.24503754079341888
1783170504544594000,1.060593994140625,0.4525699019432068,-0.012970509007573128,0.26075685024261475
1783170504554664000,1.070663818359375,0.4178200364112854,-0.03971675783395767,0.2653082311153412
1783170504564732700,1.080732666015625,0.3947634696960449,-0.05614340305328369,0.2488429695367813
1783170504574803000,1.090802978515625,0.37800049781799316,-0.06850288808345795,0.2112242728471756
1783170504584871700,1.10087158203125,0.3675459921360016,-0.08001147210597992,0.15961061418056488
1783170504594942000,1.11094189453125,0.3469138741493225,-0.0815490335226059,0.1184052899479866
1783170504605010700,1.1210107421875,0.3218194544315338,-0.05426521226763725,0.1079755499958992
1783170504615081000,1.1310810546875,0.2946627736091614,-0.005337606184184551,0.10059577226638794
1783170504625150000,1.14114990234375,0.2742629647254944,0.06220494955778122,0.08464343845844269
1783170504635219700,1.1512197265625,0.27104178071022034,0.1282980740070343,0.0638454258441925
1783170504645289000,1.1612890625,0.2861272692680359,0.16936801373958588,0.04323016479611397
1783170504655358700,1.171358642578125,0.3058475852012634,0.18747736513614655,0.06256574392318726
1783170504665428000,1.181427978515625,0.3310368061065674,0.1917480230331421,0.12313374876976013
1783170504675497700,1.191497802734375,0.36067476868629456,0.1954823136329651,0.1805056482553482
1783170504685567000,1.20156689453125,0.38405704498291016,0.20040808618068695,0.21113121509552002
1783170504695636700,1.21163671875,0.38355207443237305,0.2164125144481659,0.20525497198104858
1783170504705706000,1.2217060546875,0.37739139795303345,0.23614707589149475,0.1632169634103775
1783170504715776000,1.23177587890625,0.3626159131526947,0.23492291569709778,0.09237248450517654
1783170504725844700,1.2418447265625,0.3466910123825073,0.2243829369544983,0.03138476237654686
1783170504735915000,1.2519150390625,0.3434675335884094,0.2130664885044098,-0.01813838630914688
1783170504745983700,1.261983642578125,0.3490481674671173,0.17707893252372742,-0.032900288701057434
1783170504756054000,1.272053955078125,0.3455052673816681,0.10445334762334824,-0.020404167473316193
1783170504766122800,1.282122802734375,0.3402348756790161,0.02174142189323902,0.012515965849161148
1783170504776192000,1.29219189453125,0.34653109312057495,-0.04179481044411659,0.039331402629613876
1783170504786261800,1.30226171875,0.348469078540802,-0.08271268010139465,0.045219119638204575
1783170504796331000,1.3123310546875,0.3411591947078705,-0.08800241351127625,0.02742893621325493
1783170504806400800,1.32240087890625,0.3287073075771332,-0.06714266538619995,-0.0024975379928946495
1783170504816470000,1.332469970703125,0.31463512778282166,-0.031904105097055435,-0.03466344252228737
1783170504826539800,1.342539794921875,0.30085915327072144,0.012725681066513062,-0.052514877170324326
1783170504836608800,1.35260888671875,0.30052894353866577,0.052744317799806595,-0.06175633519887924
1783170504846679000,1.362678955078125,0.30407705903053284,0.06139879301190376,-0.052616629749536514
1783170504856747800,1.372747802734375,0.3201257884502411,0.052932336926460266,-0.021103838458657265
1783170504866818000,1.382818115234375,0.3445962369441986,0.04087354242801666,0.005952280014753342
1783170504876886800,1.39288671875,0.3614487946033478,0.031227046623826027,0.026688702404499054
1783170504886957000,1.40295703125,0.37317973375320435,0.016607357189059258,0.04369325190782547
1783170504897025800,1.41302587890625,0.36588945984840393,0.0009130919352173805,0.051645826548337936
1783170504907095800,1.423095703125,0.35887977480888367,0.00009097438305616379,0.056862957775592804
1783170504917164800,1.433164794921875,0.3455680310726166,-0.0028532985597848892,0.052565786987543106
1783170504927234800,1.44323486328125,0.3322919011116028,-0.005912737920880318,0.04657074436545372
1783170504937303800,1.4533037109375,0.32274287939071655,-0.012803246267139912,0.029869141057133675
1783170504947373800,1.463373779296875,0.2980921268463135,-0.012407765723764896,0.010719148442149162
1783170504957442800,1.47344287109375,0.27084678411483765,-0.027700316160917282,-0.010518001392483711
1783170504967512800,1.483512939453125,0.2437584400177002,-0.04457063972949982,-0.016778025776147842
1783170504977582000,1.49358203125,0.22961653769016266,-0.04902917146682739,-0.004565905779600143
1783170504987650800,1.50365087890625,0.227218359708786,-0.06302674859762192,0.020767413079738617
1783170504997720800,1.513720947265625,0.21910466253757477,-0.08096379041671753,0.037946704775094986
1783170505007789800,1.523789794921875,0.21184088289737701,-0.08733886480331421,0.048898953944444656
1783170505017859800,1.53385986328125,0.20336219668388367,-0.07184487581253052,0.034397825598716736
1783170505027928800,1.5439287109375,0.18777312338352203,-0.03721340000629425,0.006789100356400013
1783170505037998800,1.553998779296875,0.16988620162010193,-0.008103055879473686,-0.021156303584575653
1783170505048067800,1.56406787109375,0.15900878608226776,0.019941892474889755,-0.03628119081258774
1783170505058138400,1.574138427734375,0.17378020286560059,0.036142028868198395,-0.034428223967552185
1783170505068207400,1.584207275390625,0.1902284175157547,-0.00949576124548912,-0.027257394045591354
1783170505078277400,1.59427734375,0.18816381692886353,-0.10127480328083038,-0.023026123642921448
1783170505088346400,1.604346435546875,0.16820849478244781,-0.1895897537469864,-0.03557227551937103
1783170505098416400,1.61441650390625,0.13923078775405884,-0.23004941642284393,-0.061433397233486176
1783170505108485000,1.624485107421875,0.11477124691009521,-0.21339161694049835,-0.08334002643823624
1783170505118555400,1.634555419921875,0.10365830361843109,-0.14809119701385498,-0.11611135303974152
1783170505128624400,1.644624267578125,0.0870862528681755,-0.10017320513725281,-0.14753559231758118
1783170505138694400,1.6546943359375,0.07260417938232422,-0.0683613121509552,-0.17489907145500183
1783170505148763400,1.664763427734375,0.05258307233452797,-0.026746222749352455,-0.19274544715881348
1783170505158833200,1.674833251953125,0.039898067712783813,0.014827443286776543,-0.20122486352920532
1783170505168902400,1.68490234375,0.02651222236454487,0.06928136199712753,-0.19763945043087006
1783170505178972200,1.69497216796875,0.024213114753365517,0.14107219874858856,-0.17198094725608826
1783170505189041400,1.70504150390625,0.039785683155059814,0.21758374571800232,-0.12806622684001923
1783170505199110100,1.715110107421875,0.07491341233253479,0.28529301285743713,-0.06741455942392349
1783170505209180400,1.725180419921875,0.11138779670000076,0.32904449105262756,-0.020301371812820435
1783170505219249200,1.735249267578125,0.14596185088157654,0.37972086668014526,0.00902021024376154
1783170505229319400,1.7453193359375,0.1830519586801529,0.4130929112434387,0.03756663203239441
1783170505239388200,1.75538818359375,0.2001330703496933,0.42157334089279175,0.07415017485618591
1783170505249458400,1.76545849609375,0.21488697826862335,0.4175269603729248,0.09888241440057755
1783170505259527200,1.775527099609375,0.2143336534500122,0.36950668692588806,0.10502924025058746
1783170505269597200,1.78559716796875,0.1932518035173416,0.29502472281455994,0.10821491479873657
1783170505279666400,1.79566650390625,0.16942010819911957,0.21889375150203705,0.1164841428399086
1783170505289736200,1.805736083984375,0.14938302338123322,0.16610005497932434,0.13424715399742126
1783170505299805400,1.815805419921875,0.15212205052375793,0.1426551640033722,0.1655983328819275
1783170505309875200,1.825875244140625,0.15610666573047638,0.13156548142433167,0.18537390232086182
1783170505319944400,1.8359443359375,0.1538412868976593,0.1106647476553917,0.2000388354063034
1783170505330014200,1.84601416015625,0.14290368556976318,0.0773286297917366,0.19164535403251648
1783170505340083500,1.85608349609375,0.11705683171749115,0.03446211665868759,0.1645975112915039
1783170505350153200,1.8661533203125,0.07561777532100677,-0.025617733597755432,0.11617165803909302
1783170505360222500,1.876222412109375,0.013628605753183365,-0.09657391905784607,0.05502811074256897
1783170505370292500,1.88629248046875,-0.07137124240398407,-0.174846351146698,-0.024297602474689484
1783170505380361200,1.896361328125,-0.1574423909187317,-0.21497073769569397,-0.10859480500221252
1783170505390431500,1.906431396484375,-0.21962560713291168,-0.20937225222587585,-0.17848174273967743
1783170505400500200,1.916500244140625,-0.2533835172653198,-0.18090717494487762,-0.20156389474868774
1783170505410569500,1.926569580078125,-0.272456556558609,-0.15571126341819763,-0.18246769905090332
1783170505420639200,1.93663916015625,-0.2747928202152252,-0.12949392199516296,-0.1460849642753601
1783170505430708500,1.94670849609375,-0.2576867938041687,-0.0683533325791359,-0.10879430919885635
1783170505440778200,1.9567783203125,-0.22783121466636658,0.01331915520131588,-0.09966884553432465
1783170505450847500,1.966847412109375,-0.20851902663707733,0.09801752865314484,-0.10511181503534317
1783170505460917200,1.976917236328125,-0.20918861031532288,0.1624288707971573,-0.12304692715406418
1783170505470986200,1.986986328125,-0.21723616123199463,0.18513791263103485,-0.14725106954574585
1783170505481056300,1.99705615234375,-0.23244094848632812,0.17437170445919037,-0.14741763472557068
1783170505491125200,2.007125244140625,-0.23965118825435638,0.15491092205047607,-0.13944333791732788
1783170505501195500,2.017195556640625,-0.24735236167907715,0.12964656949043274,-0.1322992444038391
1783170505511264300,2.02726416015625,-0.25685957074165344,0.11002679169178009,-0.12688903510570526
1783170505521334500,2.03733447265625,-0.26209935545921326,0.0879242867231369,-0.12391036003828049
1783170505531403300,2.0474033203125,-0.26221945881843567,0.055402033030986786,-0.12578602135181427
1783170505541473300,2.057473388671875,-0.2579289674758911,0.011709803715348244,-0.13073848187923431
1783170505551542300,2.067542236328125,-0.25765013694763184,-0.030778532847762108,-0.13174302875995636
1783170505561612300,2.0776123046875,-0.25497907400131226,-0.06994922459125519,-0.1380404382944107
1783170505571681300,2.087681396484375,-0.259748250246048,-0.09313178062438965,-0.151784747838974
1783170505581751300,2.097751220703125,-0.27806031703948975,-0.10211049765348434,-0.1745457500219345
1783170505591820300,2.1078203125,-0.30845361948013306,-0.08995849639177322,-0.19809556007385254
1783170505601890300,2.117890380859375,-0.34362828731536865,-0.056018657982349396,-0.23694172501564026
1783170505611959300,2.127959228515625,-0.3792813718318939,-0.019952528178691864,-0.2864493429660797
1783170505622029300,2.138029296875,-0.3947111964225769,0.01701108179986477,-0.3181990385055542
1783170505632098600,2.1480986328125,-0.3841749131679535,0.0433923564851284,-0.31939131021499634
1783170505642167300,2.158167236328125,-0.35727232694625854,0.06258976459503174,-0.28606414794921875
1783170505652237300,2.1682373046875,-0.31024837493896484,0.07036592811346054,-0.212224543094635
1783170505662306300,2.178306396484375,-0.2536960542201996,0.07178059965372086,-0.1317254602909088
1783170505672376300,2.188376220703125,-0.19952310621738434,0.0791812613606453,-0.06750758737325668
1783170505682445300,2.1984453125,-0.1603086292743683,0.07930110394954681,-0.04223937541246414
1783170505692515300,2.208515380859375,-0.14120283722877502,0.08676354587078094,-0.04751935601234436
1783170505702584300,2.218584228515625,-0.14155089855194092,0.10314318537712097,-0.07269801944494247
1783170505712654300,2.228654296875,-0.14781679213047028,0.10233251750469208,-0.09580226987600327
1783170505722723300,2.238723388671875,-0.14939503371715546,0.09545530378818512,-0.10891706496477127
1783170505732793300,2.24879345703125,-0.14086227118968964,0.07111747562885284,-0.09624627232551575
1783170505742862300,2.2588623046875,-0.125000461935997,0.045476045459508896,-0.05605617165565491
1783170505752932400,2.268932373046875,-0.10270794481039047,0.01945669576525688,-0.006850275676697493
1783170505763001300,2.27900146484375,-0.08222943544387817,0.0008714147843420506,0.039790160953998566
1783170505773071400,2.2890712890625,-0.06966783851385117,-0.03735080361366272,0.06737358868122101
1783170505783140400,2.299140380859375,-0.0645626038312912,-0.07877574861049652,0.07885301858186722
1783170505793210400,2.30921044921875,-0.04795912280678749,-0.09431129693984985,0.07625456899404526
1783170505803279400,2.319279296875,-0.044036779552698135,-0.11557705700397491,0.0716688483953476
1783170505813348400,2.329348388671875,-0.04803498461842537,-0.12249941378831863,0.04935475438833237
1783170505823418400,2.33941845703125,-0.06848863512277603,-0.10349216312170029,0.01669175736606121
1783170505833487400,2.3494873046875,-0.0889478400349617,-0.08004622906446457,-0.010301243513822556
1783170505843557400,2.359557373046875,-0.11139566451311111,-0.04521740972995758,-0.011991678737103939
1783170505853626400,2.36962646484375,-0.11905012279748917,-0.01983482390642166,0.0052259243093431
1783170505863696400,2.3796962890625,-0.10847923159599304,0.013465764001011848,0.031586308032274246
1783170505873765000,2.38976513671875,-0.08418001979589462,0.050988104194402695,0.056323081254959106
1783170505883835400,2.39983544921875,-0.057967305183410645,0.07000842690467834,0.05989791452884674
1783170505893904100,2.409904052734375,-0.03731262683868408,0.03381899744272232,0.03993672505021095
1783170505903974400,2.419974365234375,-0.044993672519922256,-0.056812673807144165,-0.002610637340694666
1783170505914043400,2.43004345703125,-0.06929901242256165,-0.13593173027038574,-0.021283656358718872
1783170505924113200,2.440113037109375,-0.10559698194265366,-0.18080370128154755,-0.0128124188631773
1783170505934182400,2.450182373046875,-0.1328275352716446,-0.19446411728858948,0.0014570648781955242
1783170505944252200,2.460252197265625,-0.1359676867723465,-0.1548682600259781,0.005083416122943163
1783170505954321400,2.4703212890625,-0.12574034929275513,-0.0407336987555027,-0.028596248477697372
1783170505964391200,2.48039111328125,-0.1002214252948761,0.1105899065732956,-0.09556136280298233
1783170505974460400,2.49046044921875,-0.06459738314151764,0.23805731534957886,-0.15456397831439972
1783170505984530200,2.5005302734375,-0.027650801464915276,0.29683011770248413,-0.18598254024982452
1783170505994599400,2.510599365234375,0.0051817139610648155,0.26022228598594666,-0.17857149243354797
1783170506004669400,2.52066943359375,0.029111692681908607,0.19674637913703918,-0.14483387768268585
1783170506014738400,2.530738525390625,0.05513956397771835,0.15292511880397797,-0.09955427050590515
1783170506024808400,2.540808349609375,0.09315253794193268,0.12251726537942886,-0.06333225220441818
1783170506034877200,2.550877197265625,0.12432403862476349,0.11956195533275604,-0.02065349742770195
1783170506044946400,2.560946533203125,0.15487262606620789,0.11479143798351288,0.025834640488028526
1783170506055016200,2.57101611328125,0.1828898787498474,0.10926724225282669,0.059042397886514664
1783170506065085400,2.58108544921875,0.2057490348815918,0.09907227754592896,0.08139926195144653
1783170506075155200,2.5911552734375,0.23565714061260223,0.08416496962308884,0.09105481952428818
1783170506085224400,2.601224365234375,0.25918281078338623,0.06583364307880402,0.08949659019708633
1783170506095294500,2.61129443359375,0.26759278774261475,0.053890161216259,0.08397026360034943
1783170506105363500,2.621363525390625,0.26802143454551697,0.04892389103770256,0.09051966667175293
1783170506115433500,2.63143359375,0.2745480537414551,0.03858762979507446,0.09827585518360138
1783170506125502500,2.64150244140625,0.2852717339992523,0.0432264506816864,0.09778738021850586
1783170506135572500,2.651572509765625,0.30542200803756714,0.04641984403133392,0.09663183242082596
1783170506145641200,2.66164111328125,0.3296602666378021,0.057538144290447235,0.11287970840930939
1783170506155711500,2.67171142578125,0.36411651968955994,0.08118728548288345,0.14040294289588928
1783170506165780200,2.6817802734375,0.4067898392677307,0.07709944993257523,0.15521232783794403
1783170506175850500,2.6918505859375,0.44655776023864746,0.053935013711452484,0.1629171222448349
1783170506185919200,2.701919189453125,0.47569647431373596,0.03112386353313923,0.1657106578350067
1783170506195989200,2.7119892578125,0.48896220326423645,-0.0027025435119867325,0.15842825174331665
1783170506206058200,2.722058349609375,0.48538514971733093,-0.03535450994968414,0.1325008124113083
1783170506216128300,2.732128173828125,0.4755535423755646,-0.01631743460893631,0.09162262082099915
1783170506226197500,2.742197509765625,0.47022584080696106,-0.028410054743289948,0.048525627702474594
1783170506236267300,2.752267333984375,0.47206342220306396,-0.042710695415735245,0.030499756336212158
1783170506246336500,2.76233642578125,0.4877413213253021,-0.05233748257160187,0.04794623330235481
1783170506256405200,2.7724052734375,0.508399486541748,-0.052920449525117874,0.08445443958044052
1783170506266475500,2.7824755859375,0.5328123569488525,-0.062103159725666046,0.10636913031339645
1783170506276544300,2.792544189453125,0.5457622408866882,-0.08704579621553421,0.09431034326553345
1783170506286614500,2.802614501953125,0.5518221855163574,-0.09623637795448303,0.0598212294280529
1783170506296683300,2.812683349609375,0.5512961745262146,-0.10329428315162659,0.0344863124191761
1783170506306753300,2.822753173828125,0.5431074500083923,-0.13002575933933258,0.007368815131485462
1783170506316822300,2.832822265625,0.5230080485343933,-0.16163748502731323,-0.011188357137143612
1783170506326892300,2.842892333984375,0.5050612688064575,-0.16934441030025482,-0.036917153745889664
1783170506336961300,2.852961181640625,0.49642252922058105,-0.14677225053310394,-0.04978794604539871
1783170506347031300,2.86303125,0.49551764130592346,-0.11283623427152634,-0.044925421476364136
1783170506357100300,2.873100341796875,0.5028477311134338,-0.0824761912226677,-0.00754742044955492
1783170506367170300,2.88317041015625,0.5290918350219727,-0.03498726338148117,0.038475923240184784
1783170506377239600,2.893239501953125,0.5576814413070679,0.011556536890566349,0.07035529613494873
1783170506387309300,2.903309326171875,0.5714555382728577,0.030531976372003555,0.07584302127361298
1783170506397378600,2.913378662109375,0.5630215406417847,0.029324233531951904,0.0553705058991909
1783170506407448300,2.9234482421875,0.5466040372848511,0.014197196811437607,0.026207203045487404
1783170506417517300,2.933517333984375,0.5291832089424133,-0.005036152899265289,0.01234305277466774
1783170506427587300,2.94358740234375,0.5156409740447998,-0.02024265192449093,0.001801748527213931
1783170506437656300,2.95365625,0.5097588300704956,-0.03260771185159683,-0.000992440152913332
1783170506447725300,2.963725341796875,0.5190672874450684,-0.02494780160486698,0.00444555701687932
1783170506457795300,2.97379541015625,0.5413371920585632,-0.014351081103086472,0.04042939096689224
1783170506467864300,2.9838642578125,0.5626172423362732,-0.020535357296466827,0.08127306401729584
1783170506477934300,2.993934326171875,0.5756084322929382,-0.020037345588207245,0.1073419451713562
1783170506488003300,3.00400341796875,0.5664997696876526,-0.024845805019140244,0.09426107257604599
1783170506498073300,3.0140732421875,0.5498142838478088,-0.032078683376312256,0.059875667095184326
1783170506508142600,3.024142578125,0.5243262648582458,-0.04984941706061363,0.03734637424349785
1783170506518212400,3.03421240234375,0.4901110529899597,-0.06788806617259979,0.0232744961977005
1783170506528281300,3.04428125,0.4490031898021698,-0.09700721502304077,0.010984361171722412
1783170506538351400,3.054351318359375,0.42707687616348267,-0.09458506852388382,0.0016827390063554049
1783170506548420400,3.06442041015625,0.41965311765670776,-0.06185801327228546,0.014491993933916092
1783170506558490400,3.074490478515625,0.42700767517089844,-0.0243654977530241,0.04049297049641609
1783170506568559400,3.084559326171875,0.4378204941749573,-0.009932644665241241,0.05445842444896698
1783170506578629400,3.09462939453125,0.4495578408241272,-0.02130567468702793,0.06632999330759048
1783170506588698400,3.104698486328125,0.45352116227149963,-0.050066348165273666,0.07444058358669281
1783170506598768400,3.114768310546875,0.45163777470588684,-0.0881335660815239,0.0948885977268219
1783170506608837400,3.12483740234375,0.44049498438835144,-0.1219601258635521,0.11047737300395966
1783170506618907400,3.134907470703125,0.41155627369880676,-0.14047521352767944,0.11331842839717865
1783170506628976400,3.144976318359375,0.3875280022621155,-0.1374724805355072,0.10071322321891785
1783170506639046400,3.15504638671875,0.3830171227455139,-0.1143578290939331,0.09078202396631241
1783170506649115400,3.165115478515625,0.3954940438270569,-0.0705786868929863,0.08897633105516434
1783170506659184400,3.175184326171875,0.42524075508117676,-0.015017421916127205,0.1017184853553772
1783170506669254400,3.18525439453125,0.4668321907520294,-0.02254803478717804,0.09944386780261993
1783170506679323400,3.195323486328125,0.48912686109542847,-0.10832658410072327,0.09370848536491394
1783170506689393400,3.205393310546875,0.4815855622291565,-0.19201922416687012,0.10278859734535217
1783170506699462400,3.21546240234375,0.45543918013572693,-0.2169344276189804,0.12035641074180603
1783170506709532200,3.2255322265625,0.4256742000579834,-0.1622587889432907,0.13350647687911987
1783170506719601400,3.235601318359375,0.4044501483440399,-0.06823775172233582,0.12069294601678848
1783170506729671400,3.24567138671875,0.40572643280029297,0.02195340394973755,0.0687776580452919
1783170506739740400,3.255740478515625,0.42285534739494324,0.0657176598906517,-0.013305227272212505
1783170506749810400,3.265810546875,0.44307956099510193,0.0797935202717781,-0.07214467972517014
1783170506759879400,3.27587939453125,0.46423253417015076,0.07138752192258835,-0.10515003651380539
1783170506769949400,3.285949462890625,0.49029576778411865,0.07087286561727524,-0.10239439457654953
1783170506780018400,3.296018310546875,0.5154879689216614,0.08812322467565536,-0.07621631771326065
1783170506790088400,3.30608837890625,0.537065327167511,0.13637223839759827,-0.04325822740793228
1783170506800157200,3.3161572265625,0.570594310760498,0.2228781133890152,-0.006456539034843445
1783170506810227500,3.3262275390625,0.6145114898681641,0.3138681948184967,0.026919571682810783
1783170506820296200,3.336296142578125,0.6649283170700073,0.39413774013519287,0.06137422099709511
1783170506830366500,3.346366455078125,0.7178257703781128,0.4408767521381378,0.09355396777391434
1783170506840435200,3.356435302734375,0.7738144397735596,0.46799784898757935,0.13583296537399292
1783170506850505500,3.36650537109375,0.8222553133964539,0.466457724571228,0.18077531456947327
1783170506860574500,3.376574462890625,0.8774253129959106,0.4698697626590729,0.2047637403011322
1783170506870643500,3.3866435546875,0.9332337379455566,0.45872923731803894,0.201262429356575
1783170506880713500,3.39671337890625,0.9791154861450195,0.424835741519928,0.18832266330718994
1783170506890782500,3.406782470703125,1.0145556926727295,0.38170409202575684,0.15354187786579132
1783170506900852500,3.4168525390625,1.0413459539413452,0.3313274681568146,0.11270656436681747
1783170506910921200,3.426921142578125,1.057809829711914,0.26981791853904724,0.08415820449590683
1783170506920991500,3.436991455078125,1.055180549621582,0.20919078588485718,0.061448901891708374
1783170506931060200,3.447060302734375,1.035875916481018,0.17914897203445435,0.05738067999482155
1783170506941130500,3.457130615234375,1.0141544342041016,0.16111697256565094,0.04338177666068077
1783170506951199200,3.46719921875,0.9919977784156799,0.16896267235279083,0.008680993691086769
1783170506961269500,3.47726953125,0.9867321848869324,0.18123158812522888,-0.03251064941287041
1783170506971338200,3.487338134765625,0.9738808274269104,0.1965879201889038,-0.08081746101379395
1783170506981408300,3.497408203125,0.9686274528503418,0.22329355776309967,-0.10544957220554352
1783170506991477200,3.507477294921875,0.96885746717453,0.2587943971157074,-0.10273385792970657
1783170507001547300,3.51754736328125,0.977821409702301,0.30966106057167053,-0.059306494891643524
1783170507011616500,3.527616455078125,1.0119675397872925,0.3898599147796631,0.0011169584468007088
1783170507021686300,3.537686279296875,1.0734031200408936,0.48780325055122375,0.04495285823941231
1783170507031755500,3.547755615234375,1.1596360206604004,0.5651602149009705,0.05189577117562294
1783170507041825300,3.5578251953125,1.23472261428833,0.5787433981895447,0.034726373851299286
1783170507051894500,3.56789453125,1.2860959768295288,0.5340402126312256,0.01790662109851837
1783170507061962800,3.577962646484375,1.3091357946395874,0.4697328805923462,0.028562195599079132
1783170507072033000,3.588032958984375,1.3098832368850708,0.4198673367500305,0.03933147341012955
1783170507082101800,3.598101806640625,1.306732177734375,0.39154568314552307,0.04264071583747864
1783170507092172000,3.608172119140625,1.3124088048934937,0.39245691895484924,0.02354065328836441
1783170507102240800,3.61824072265625,1.3343888521194458,0.4112716019153595,-0.015736976638436317
1783170507112310800,3.628310791015625,1.367920994758606,0.4104333519935608,-0.06661242991685867
1783170507122379800,3.6383798828125,1.3985755443572998,0.3943140506744385,-0.09444698691368103
1783170507132449800,3.64844970703125,1.4252914190292358,0.367236465215683,-0.09433932602405548
1783170507142518800,3.658518798828125,1.4471074342727661,0.3280443251132965,-0.07467108219861984
1783170507152588800,3.6685888671875,1.456358790397644,0.2930490970611572,-0.05607623606920242
1783170507162658000,3.678657958984375,1.4628353118896484,0.27892714738845825,-0.05435822904109955
1783170507172727800,3.688727783203125,1.4644455909729004,0.28379136323928833,-0.08173375576734543
1783170507182797000,3.698797119140625,1.4643661975860596,0.30901336669921875,-0.10656959563493729
1783170507192866800,3.70886669921875,1.4734225273132324,0.33787286281585693,-0.1256542056798935
1783170507202935800,3.718935791015625,1.49655020236969,0.3553037941455841,-0.12891843914985657
1783170507213005800,3.729005859375,1.5168486833572388,0.3726359009742737,-0.11647985130548477
1783170507223074800,3.73907470703125,1.5407146215438843,0.38812485337257385,-0.08321137726306915
1783170507233144800,3.749144775390625,1.57217538356781,0.41085493564605713,-0.04803797975182533
1783170507243213800,3.7592138671875,1.6029704809188843,0.4289649724960327,-0.03038894571363926
1783170507253284000,3.7692841796875,1.6390329599380493,0.4261886179447174,-0.035164881497621536
1783170507263352800,3.779352783203125,1.6706618070602417,0.43438610434532166,-0.043463025242090225
1783170507273422800,3.7894228515625,1.6864044666290283,0.4361255168914795,-0.03460169583559036
1783170507283491800,3.799491943359375,1.695473551750183,0.42144671082496643,-0.02668837644159794
1783170507293561000,3.80956103515625,1.6939244270324707,0.3992438018321991,-0.030281933024525642
1783170507303630800,3.819630859375,1.6954941749572754,0.38775813579559326,-0.031370632350444794
1783170507313699800,3.829699951171875,1.692521095275879,0.3888898193836212,-0.023586295545101166
1783170507323769900,3.839769775390625,1.6903551816940308,0.39308270812034607,-0.003076228080317378
1783170507333838800,3.8498388671875,1.6890403032302856,0.4062606990337372,0.0243445485830307
1783170507343908900,3.859908935546875,1.6916520595550537,0.41296708583831787,0.03931151330471039
1783170507353977900,3.869977783203125,1.6887702941894531,0.41316309571266174,0.0416831374168396
1783170507364048000,3.8800478515625,1.6819970607757568,0.38909798860549927,0.04312710091471672
1783170507374116900,3.890116943359375,1.6707115173339844,0.36058029532432556,0.0664106160402298
1783170507384187000,3.900186767578125,1.6523185968399048,0.3314823508262634,0.10115821659564972
1783170507394256000,3.910255859375,1.6314589977264404,0.313129186630249,0.13645213842391968
1783170507404326000,3.920325927734375,1.613403558731079,0.32286596298217773,0.16960875689983368
1783170507414395000,3.930394775390625,1.5936548709869385,0.3537883162498474,0.20046433806419373
1783170507424465000,3.94046484375,1.5685372352600098,0.40285226702690125,0.22577954828739166
1783170507434534000,3.950533935546875,1.5418236255645752,0.4657379984855652,0.2487483024597168
1783170507444604000,3.96060400390625,1.5197219848632812,0.52926105260849,0.25565680861473083
1783170507454673000,3.9706728515625,1.5024731159210205,0.5704748630523682,0.2338704615831375
1783170507464743000,3.980742919921875,1.4928133487701416,0.566309928894043,0.19858677685260773
1783170507474812000,3.99081201171875,1.478576421737671,0.5038548111915588,0.1839415580034256
1783170507484882000,4.0008818359375,1.4494636058807373,0.37965744733810425,0.1616317182779312
1783170507494950700,4.01095068359375,1.4096611738204956,0.23993659019470215,0.14395619928836823
1783170507505020000,4.02102001953125,1.3520472049713135,0.13356779515743256,0.1281420886516571
1783170507515089700,4.031089599609375,1.2763073444366455,0.10511510819196701,0.11752542853355408
1783170507525159000,4.041158935546875,1.2028002738952637,0.14998164772987366,0.10374303162097931
1783170507535229000,4.05122900390625,1.149429202079773,0.24913354218006134,0.07635770738124847
1783170507545298000,4.0612978515625,1.1265218257904053,0.37745290994644165,0.041635677218437195
1783170507555368000,4.071367919921875,1.1219775676727295,0.48588788509368896,0.004843253642320633
1783170507565437000,4.08143701171875,1.1289561986923218,0.5171818733215332,-0.017096664756536484
1783170507575507000,4.0915068359375,1.1322499513626099,0.4793146848678589,-0.01893305592238903
1783170507585576000,4.101575927734375,1.133728265762329,0.3899294137954712,-0.006230044644325972
1783170507595646000,4.11164599609375,1.1307419538497925,0.29178687930107117,0.019991453737020493
1783170507605714700,4.121714599609375,1.1281582117080688,0.22025489807128906,0.04321129247546196
1783170507615785000,4.131784912109375,1.1283106803894043,0.18209192156791687,0.05311128497123718
1783170507625853700,4.141853759765625,1.1295950412750244,0.167662113904953,0.04701504111289978
1783170507635924000,4.151924072265625,1.125837802886963,0.1762247234582901,0.057025037705898285
1783170507645992700,4.16199267578125,1.1148282289505005,0.1952303647994995,0.07205139100551605
1783170507656062700,4.172062744140625,1.0913407802581787,0.22435057163238525,0.0816485732793808
1783170507666132000,4.182132080078125,1.066359281539917,0.2531587779521942,0.07031282782554626
1783170507676201700,4.19220166015625,1.0424041748046875,0.27969345450401306,0.04135255888104439
1783170507686271000,4.20227099609375,1.0190507173538208,0.29500582814216614,0.007302447222173214
1783170507696340000,4.212340087890625,1.004814863204956,0.2979227900505066,-0.015023114159703255
1783170507706410000,4.222409912109375,0.9981351494789124,0.30629175901412964,-0.012809228152036667
1783170507716478700,4.232478759765625,0.9994487166404724,0.31819984316825867,-0.0050859348848462105
1783170507726549000,4.242549072265625,1.0084877014160156,0.33940497040748596,-0.012675144709646702
1783170507736617700,4.25261767578125,1.0278955698013306,0.34307509660720825,-0.02810842916369438
1783170507746688000,4.26268798828125,1.047364354133606,0.3276660442352295,-0.05145609751343727
1783170507756756700,4.2727568359375,1.0614904165267944,0.2937106192111969,-0.06408451497554779
1783170507766826800,4.28282666015625,1.0601390600204468,0.254557341337204,-0.06043172627687454
1783170507776895700,4.292895751953125,1.0391623973846436,0.19994549453258514,-0.05714469403028488
1783170507786965800,4.3029658203125,1.0188443660736084,0.15116411447525024,-0.06891187280416489
1783170507797035000,4.313034912109375,1.0094655752182007,0.142629474401474,-0.09352158010005951
1783170507807104800,4.323104736328125,1.0095350742340088,0.16725412011146545,-0.13604241609573364
1783170507817174000,4.333174072265625,1.0054707527160645,0.2044418305158615,-0.17461104691028595
1783170507827243800,4.343243896484375,1.000398874282837,0.23457017540931702,-0.2014375925064087
1783170507837313000,4.35331298828125,0.9993778467178345,0.23821471631526947,-0.20874732732772827
1783170507847382800,4.3633828125,0.9970816969871521,0.21495041251182556,-0.1952190101146698
1783170507857452000,4.3734521484375,0.995520293712616,0.18304547667503357,-0.17344778776168823
1783170507867521800,4.383521728515625,0.9903143048286438,0.17126338183879852,-0.15080852806568146
1783170507877590800,4.3935908203125,0.9933109283447266,0.17622964084148407,-0.1540605127811432
1783170507887661000,4.4036611328125,0.9910738468170166,0.19567817449569702,-0.17507365345954895
1783170507897729800,4.413729736328125,0.9837972521781921,0.2179027795791626,-0.19007562100887299
1783170507907798800,4.423798828125,0.9760240316390991,0.2400541603565216,-0.17794279754161835
1783170507917868800,4.433868896484375,0.9643089175224304,0.24619396030902863,-0.15342503786087036
1783170507927938000,4.44393798828125,0.9607977867126465,0.22967968881130219,-0.1346747875213623
1783170507938007800,4.4540078125,0.9609885811805725,0.20472027361392975,-0.13241678476333618
1783170507948077000,4.4640771484375,0.9569157958030701,0.1801624596118927,-0.14647294580936432
1783170507958146800,4.474146728515625,0.9523758292198181,0.147468701004982,-0.15539750456809998
1783170507968216000,4.484216064453125,0.9413796663284302,0.12000352889299393,-0.14351794123649597
1783170507978285800,4.494285888671875,0.9329372048377991,0.10352322459220886,-0.12516658008098602
1783170507988354800,4.504354736328125,0.9209228754043579,0.08956905454397202,-0.11596348136663437
1783170507998424800,4.5144248046875,0.8978652358055115,0.07896233350038528,-0.1278005838394165
1783170508008493800,4.524493896484375,0.8707454800605774,0.07879561930894852,-0.14940601587295532
1783170508018563800,4.534563720703125,0.8341021537780762,0.07922826707363129,-0.15150494873523712
1783170508028632800,4.5446328125,0.8021487593650818,0.08438840508460999,-0.13319306075572968
1783170508038702800,4.554702880859375,0.7848430871963501,0.0952020213007927,-0.10302305966615677
1783170508048771800,4.564771728515625,0.7854236364364624,0.10416382551193237,-0.07667694240808487
1783170508058842600,4.574842529296875,0.7947035431861877,0.10880373418331146,-0.04815137758851051
1783170508068911600,4.58491162109375,0.7959288954734802,0.09957721084356308,-0.02364763617515564
1783170508078981600,4.594981689453125,0.7881629467010498,0.09548180550336838,-0.01235346682369709
1783170508089050600,4.605050537109375,0.7670837640762329,0.09941103309392929,-0.016108257696032524
1783170508099120600,4.61512060546875,0.7454312443733215,0.11093863844871521,-0.036938320845365524
1783170508109189600,4.625189697265625,0.7184595465660095,0.12209169566631317,-0.04930337890982628
1783170508119258600,4.635258544921875,0.7038652896881104,0.14610277116298676,-0.037144072353839874
1783170508129328400,4.645328369140625,0.6943919062614441,0.17094206809997559,0.003139700274914503
1783170508139397600,4.655397705078125,0.6943872570991516,0.18225809931755066,0.02772349677979946
1783170508149467400,4.66546728515625,0.7035642266273499,0.1749165654182434,0.025040362030267715
1783170508159536600,4.67553662109375,0.714070200920105,0.1648251861333847,0.02708984538912773
1783170508169606700,4.685606689453125,0.7183752059936523,0.15464338660240173,0.03738322854042053
1783170508179675600,4.695675537109375,0.7111756205558777,0.1292048692703247,0.05290626361966133
1783170508189745700,4.70574560546875,0.7042122483253479,0.09996762871742249,0.05414143577218056
1783170508199814700,4.715814697265625,0.6928638815879822,0.06984062492847443,0.03577345609664917
1783170508209884700,4.725884765625,0.6772326827049255,0.05940209701657295,0.013038316741585732
1783170508219953700,4.73595361328125,0.6597403287887573,0.06264209002256393,0.004030738491564989
1783170508230023700,4.746023681640625,0.6501769423484802,0.07301057130098343,0.00961245782673359
1783170508240092400,4.756092529296875,0.6533107161521912,0.09569858014583588,0.027850568294525146
1783170508250162700,4.76616259765625,0.6628970503807068,0.12056691199541092,0.04208649694919586
1783170508260231400,4.7762314453125,0.6742286086082458,0.15393726527690887,0.06002040207386017
1783170508270301700,4.7863017578125,0.6793856024742126,0.1782553791999817,0.06624740362167358
1783170508280370400,4.796370361328125,0.6863199472427368,0.19929593801498413,0.06877413392066956
1783170508290440400,4.8064404296875,0.6813629865646362,0.23707526922225952,0.04851679876446724
1783170508300509700,4.816509765625,0.6847729682922363,0.23999249935150146,-0.005727811716496944
1783170508310578700,4.82657861328125,0.688687801361084,0.19267426431179047,-0.05468789488077164
1783170508320648700,4.836648681640625,0.6932510137557983,0.11716832220554352,-0.05093512684106827
1783170508330717400,4.846717529296875,0.6908858418464661,0.04430104047060013,-0.005781497806310654
1783170508340787700,4.85678759765625,0.6923113465309143,0.006935440003871918,0.0329735167324543
1783170508350856400,4.8668564453125,0.7022632956504822,0.029286019504070282,0.02973298169672489
1783170508360926700,4.8769267578125,0.7139722108840942,0.05311889201402664,-0.01381364744156599
1783170508370995500,4.886995361328125,0.7252834439277649,0.04619733616709709,-0.06088155508041382
1783170508381065700,4.897065673828125,0.7163971662521362,0.011984631419181824,-0.07887192070484161
1783170508391134500,4.907134521484375,0.6969981789588928,-0.013593698851764202,-0.0639243945479393
1783170508401204500,4.91720458984375,0.6592223644256592,-0.05764905363321304,-0.04190242663025856
1783170508411273500,4.9272734375,0.6355988383293152,-0.06575145572423935,-0.039709579199552536
1783170508421343500,4.937343505859375,0.6366603970527649,-0.042874500155448914,-0.04657634347677231
1783170508431412500,4.94741259765625,0.6508262753486633,0.014677207916975021,-0.049996376037597656
1783170508441482500,4.957482421875,0.6726185083389282,0.07450954616069794,-0.018942182883620262
1783170508451551700,4.9675517578125,0.6875939965248108,0.15115824341773987,0.03950008749961853
1783170508461621500,4.97762158203125,0.6946605443954468,0.22072626650333405,0.08400585502386093
1783170508471690800,4.987690673828125,0.694793164730072,0.264945924282074,0.0894637405872345
1783170508481760500,4.997760498046875,0.6909403204917908,0.27049899101257324,0.08039017021656036
1783170508491829800,5.007829833984375,0.685695230960846,0.2289734035730362,0.08674713969230652
1783170508501899500,5.0178994140625,0.6900680661201477,0.16480106115341187,0.12278224527835846
1783170508511968500,5.027968505859375,0.6938044428825378,0.09060993045568466,0.17386965453624725
1783170508522037500,5.03803759765625,0.6929185390472412,0.06326191872358322,0.21758639812469482
1783170508532107500,5.048107421875,0.6858750581741333,0.07505545765161514,0.24018625915050507
1783170508542176500,5.058176513671875,0.6740884780883789,0.11889255791902542,0.234793022274971
1783170508552246500,5.06824658203125,0.6606179475784302,0.17092007398605347,0.23242627084255219
1783170508562315500,5.0783154296875,0.6393076777458191,0.21052753925323486,0.24569617211818695
1783170508572385500,5.088385498046875,0.6277466416358948,0.22817125916481018,0.27067288756370544
1783170508582454800,5.098454833984375,0.6252596974372864,0.21739879250526428,0.2897811830043793
1783170508592524500,5.108524658203125,0.6241621971130371,0.191680908203125,0.29096201062202454
1783170508602593500,5.118593505859375,0.6167177557945251,0.1665922999382019,0.2731093466281891
1783170508612663600,5.12866357421875,0.5936656594276428,0.15493084490299225,0.23126786947250366
1783170508622732500,5.138732666015625,0.5706634521484375,0.17007094621658325,0.19394122064113617
1783170508632802600,5.148802490234375,0.5554437041282654,0.19232670962810516,0.17040207982063293
1783170508642871600,5.15887158203125,0.5624659061431885,0.21383371949195862,0.169460728764534
1783170508652941600,5.168941650390625,0.599175214767456,0.21451523900032043,0.19327311217784882
1783170508663010600,5.179010498046875,0.6488116383552551,0.20033416152000427,0.2210000902414322
1783170508673080600,5.18908056640625,0.6978076696395874,0.17479896545410156,0.23616786301136017
1783170508683149600,5.199149658203125,0.7229955196380615,0.1689179390668869,0.23028557002544403
1783170508693219600,5.209219482421875,0.7285588979721069,0.18922001123428345,0.20329150557518005
1783170508703288600,5.21928857421875,0.7201492786407471,0.23019900918006897,0.16931375861167908
1783170508713357600,5.229357666015625,0.716948926448822,0.2897483706474304,0.1368761658668518
1783170508723427600,5.239427490234375,0.7217718958854675,0.3498518764972687,0.10656705498695374
1783170508733496600,5.24949658203125,0.7409259080886841,0.3899489641189575,0.0784752368927002
1783170508743566600,5.259566650390625,0.7818171977996826,0.4266514778137207,0.049342263489961624
1783170508753635600,5.269635498046875,0.8291061520576477,0.44290608167648315,0.030925704166293144
1783170508763705600,5.27970556640625,0.8785311579704285,0.4353592097759247,0.027535641565918922
1783170508773774600,5.289774658203125,0.9234346747398376,0.4103976786136627,0.03613924980163574
1783170508783844400,5.29984423828125,0.9700737595558167,0.38304007053375244,0.03145050257444382
1783170508793913600,5.30991357421875,1.0012034177780151,0.3663763999938965,0.011093568056821823
1783170508803983600,5.319983642578125,1.0283321142196655,0.3524680435657501,-0.018020249903202057
1783170508814052600,5.330052490234375,1.055131196975708,0.35170453786849976,-0.029393278062343597
1783170508824122600,5.34012255859375,1.0846168994903564,0.3559618592262268,-0.03793272003531456
1783170508834191600,5.350191650390625,1.1110730171203613,0.3601275682449341,-0.042002566158771515
1783170508844261600,5.36026171875,1.1418321132659912,0.3648672103881836,-0.04110398143529892
1783170508854330600,5.37033056640625,1.186282992362976,0.37919101119041443,-0.03767755627632141
1783170508864400600,5.380400634765625,1.2374862432479858,0.3830966651439667,-0.03004034049808979
1783170508874469600,5.3904697265625,1.2877824306488037,0.3739337921142578,-0.005359230563044548
1783170508884539600,5.40053955078125,1.3440452814102173,0.369692325592041,0.05946919694542885
1783170508894608400,5.4106083984375,1.4094352722167969,0.36888033151626587,0.09933166205883026
1783170508904678700,5.4206787109375,1.4679739475250244,0.39506396651268005,0.11398548632860184
1783170508914747400,5.430747314453125,1.517621397972107,0.43612831830978394,0.106370709836483
1783170508924816600,5.440816650390625,1.5559676885604858,0.47611916065216064,0.09389818459749222
1783170508934886700,5.45088671875,1.5961772203445435,0.49072712659835815,0.1077258512377739
1783170508944955600,5.46095556640625,1.6492236852645874,0.5164783596992493,0.14533907175064087
1783170508955025700,5.471025634765625,1.6975619792938232,0.48186227679252625,0.17446526885032654
1783170508965094700,5.4810947265625,1.7456138134002686,0.4597487151622772,0.18378199636936188
1783170508975164700,5.49116455078125,1.7813949584960938,0.42004603147506714,0.18295401334762573
1783170508985233700,5.501233642578125,1.8174935579299927,0.413636714220047,0.16605417430400848
1783170508995303700,5.5113037109375,1.8604018688201904,0.4376259446144104,0.14997240900993347
1783170509005372400,5.521372314453125,1.8987021446228027,0.46818000078201294,0.13337139785289764
1783170509015442700,5.531442626953125,1.9310709238052368,0.48851698637008667,0.10992439836263657
1783170509025511400,5.541511474609375,1.962281584739685,0.49010369181632996,0.0913497731089592
1783170509035581700,5.551581787109375,1.979161262512207,0.5047396421432495,0.06833606958389282
1783170509045650400,5.561650390625,1.9844141006469727,0.5272229313850403,0.048528123646974564
1783170509055720400,5.571720458984375,2.0012917518615723,0.5415539741516113,0.027163712307810783
1783170509065789200,5.5817890625,2.001143217086792,0.5158127546310425,-0.010204766876995564
1783170509075859200,5.591859130859375,1.9918502569198608,0.45653319358825684,-0.07492996752262115
1783170509085928400,5.601928466796875,1.978696346282959,0.3505677282810211,-0.14710569381713867
1783170509095998200,5.611998291015625,1.9822276830673218,0.2839471697807312,-0.19927357137203217
1783170509106067500,5.6220673828125,2.0226187705993652,0.2982310354709625,-0.20341691374778748
1783170509116136200,5.63213623046875,2.0839338302612305,0.39392292499542236,-0.18650956451892853
1783170509126206500,5.64220654296875,2.138545036315918,0.5526005029678345,-0.18382926285266876
1783170509136275200,5.652275146484375,2.1850571632385254,0.7305454611778259,-0.22277534008026123
1783170509146345500,5.662345458984375,2.2153735160827637,0.8665490746498108,-0.29763948917388916
1783170509156414200,5.672414306640625,2.2251298427581787,0.8951977491378784,-0.35695981979370117
1783170509166484500,5.682484375,2.2335827350616455,0.8563322424888611,-0.3910880386829376
1783170509176553200,5.69255322265625,2.26432728767395,0.7671805024147034,-0.38995805382728577
1783170509186623200,5.702623291015625,2.3143551349639893,0.6216522455215454,-0.3688780665397644
1783170509196694300,5.7126943359375,2.3636622428894043,0.4521212577819824,-0.30644291639328003
1783170509206764300,5.722764404296875,2.4003427028656006,0.30714744329452515,-0.22318975627422333
1783170509216833300,5.732833251953125,2.421506881713867,0.19484487175941467,-0.14485260844230652
1783170509226903600,5.742903564453125,2.415398597717285,0.14951744675636292,-0.10389778017997742
1783170509236972300,5.75297216796875,2.3737218379974365,0.19142761826515198,-0.10124632716178894
1783170509247042300,5.763042236328125,2.3029098510742188,0.2941175103187561,-0.1368298977613449
1783170509257111300,5.773111328125,2.2140257358551025,0.4196173846721649,-0.19816328585147858
1783170509267181300,5.783181396484375,2.1171176433563232,0.525639533996582,-0.2569181025028229
1783170509277250300,5.793250244140625,2.0315053462982178,0.5814535617828369,-0.27132049202919006
1783170509287320300,5.8033203125,1.959726095199585,0.5864887833595276,-0.25347238779067993
1783170509297389300,5.813389404296875,1.8947476148605347,0.5434989333152771,-0.22509455680847168
1783170509307459300,5.823459228515625,1.8406438827514648,0.5003679990768433,-0.1757291555404663
1783170509317528300,5.8335283203125,1.8028185367584229,0.493617445230484,-0.10475830733776093
1783170509327598300,5.843598388671875,1.7687876224517822,0.5167228579521179,-0.03286324068903923
1783170509337667300,5.853667236328125,1.7328522205352783,0.5706979632377625,0.010075971484184265
1783170509347737300,5.8637373046875,1.6929388046264648,0.6277613043785095,0.01752333715558052
1783170509357806000,5.87380615234375,1.6474491357803345,0.6642497777938843,-0.012076898477971554
1783170509367875300,5.883875244140625,1.5879486799240112,0.668910801410675,-0.049934953451156616
1783170509377945300,5.8939453125,1.5208148956298828,0.6589024066925049,-0.06577916443347931
1783170509388014300,5.904014404296875,1.4647547006607056,0.6336306929588318,-0.05858414247632027
1783170509398084400,5.91408447265625,1.424080729484558,0.5945155620574951,-0.03243589401245117
1783170509408153300,5.9241533203125,1.3981049060821533,0.5714232921600342,-0.016068780794739723
1783170509418223400,5.934223388671875,1.3802441358566284,0.5637502074241638,-0.011533950455486774
1783170509428292400,5.944292236328125,1.3738436698913574,0.5507339835166931,-0.019213613122701645
1783170509438362400,5.9543623046875,1.3634089231491089,0.5235984921455383,-0.020067155361175537
1783170509448431400,5.964431396484375,1.3467297554016113,0.48628416657447815,0.002040683990344405
1783170509458501400,5.97450146484375,1.3237090110778809,0.44901642203330994,0.02857775241136551
1783170509468570000,5.984570068359375,1.2784878015518188,0.41761520504951477,0.04686245694756508
1783170509478640400,5.994640380859375,1.2183184623718262,0.3982425630092621,0.05191420763731003
1783170509488709000,6.004709228515625,1.1596494913101196,0.37111642956733704,0.04850653558969498
1783170509498779400,6.014779296875,1.1064528226852417,0.32302984595298767,0.03883979469537735
1783170509508848400,6.024848388671875,1.065462350845337,0.2648806869983673,0.04498200863599777
1783170509518918400,6.03491845703125,1.0380499362945557,0.21303878724575043,0.05483810231089592
1783170509528987400,6.0449873046875,1.0132505893707275,0.17650781571865082,0.072618767619133
1783170509539057200,6.05505712890625,0.9883268475532532,0.16539470851421356,0.09483592212200165
1783170509549126400,6.06512646484375,0.9601911306381226,0.1814582347869873,0.11043611913919449
1783170509559196200,6.075196044921875,0.927354097366333,0.1975807398557663,0.11983787268400192
1783170509569265400,6.085265380859375,0.8840883374214172,0.20166294276714325,0.1212444007396698
1783170509579334100,6.095334228515625,0.8345692157745361,0.1947792023420334,0.12607325613498688
1783170509589404400,6.105404296875,0.7768142819404602,0.182865709066391,0.1159382238984108
1783170509599473200,6.11547314453125,0.7160300612449646,0.1508406698703766,0.1006130650639534
1783170509609543400,6.12554345703125,0.6608228087425232,0.10423894226551056,0.08334077894687653
1783170509619612200,6.135612060546875,0.6089473366737366,0.04647285118699074,0.07712869346141815
1783170509629682200,6.14568212890625,0.5689730644226074,0.005317273084074259,0.07712067663669586
1783170509639751400,6.15575146484375,0.5281502604484558,-0.026729609817266464,0.08457619696855545
1783170509649821200,6.1658212890625,0.48454734683036804,-0.031917162239551544,0.07561662048101425
1783170509659890400,6.175890380859375,0.4391005039215088,-0.002905219793319702,0.06275514513254166
1783170509669960200,6.185960205078125,0.383625328540802,0.05364006385207176,0.03458093851804733
1783170509680029400,6.196029541015625,0.320415735244751,0.11032571643590927,0.004708262160420418
1783170509690099200,6.20609912109375,0.2571919560432434,0.14148178696632385,-0.009576840326189995
1783170509700168400,6.21616845703125,0.19663460552692413,0.1602887660264969,-0.0028680707328021526
1783170509710238200,6.22623828125,0.15968438982963562,0.18036885559558868,0.013153874315321445
1783170509720307500,6.236307373046875,0.14691773056983948,0.20847079157829285,0.03769117221236229
1783170509730377500,6.24637744140625,0.14980705082416534,0.2377031147480011,0.07547589391469955
1783170509740446200,6.2564462890625,0.15560102462768555,0.2497429996728897,0.09787041693925858
1783170509750516500,6.2665166015625,0.16206470131874084,0.25470951199531555,0.10602369904518127
1783170509760585200,6.276585205078125,0.17130373418331146,0.23455071449279785,0.09386423975229263
1783170509770654500,6.286654541015625,0.17226096987724304,0.13000565767288208,0.06172603741288185
1783170509780724200,6.29672412109375,0.15693767368793488,-0.005961494520306587,0.0224249679595232
1783170509790793500,6.30679345703125,0.12338992953300476,-0.13506488502025604,-0.005178176797926426
1783170509800863200,6.31686328125,0.08460498601198196,-0.2012425661087036,-0.02010173350572586
1783170509810932500,6.326932373046875,0.058809686452150345,-0.21255594491958618,-0.0474470853805542
1783170509821002200,6.337002197265625,0.05649859458208084,-0.17934924364089966,-0.09354320168495178
1783170509831071500,6.347071533203125,0.08365625888109207,-0.14816202223300934,-0.1487196683883667
1783170509841141200,6.357141357421875,0.1266055852174759,-0.14517289400100708,-0.18207868933677673
1783170509851210200,6.367210205078125,0.16338159143924713,-0.18291079998016357,-0.1945430338382721
1783170509861280500,6.377280517578125,0.17771552503108978,-0.24194295704364777,-0.20144861936569214
1783170509871349200,6.387349365234375,0.16879917681217194,-0.27749165892601013,-0.19129955768585205
1783170509881419500,6.39741943359375,0.1621423363685608,-0.2566779851913452,-0.16604401171207428
1783170509891488300,6.40748828125,0.1611252725124359,-0.18261761963367462,-0.12822958827018738
1783170509901558300,6.417558349609375,0.1791950762271881,-0.07508104294538498,-0.09653104841709137
1783170509911627300,6.427627197265625,0.22018493711948395,0.059262655675411224,-0.07373174279928207
1783170509921697300,6.437697265625,0.2669718861579895,0.177620992064476,-0.05558815598487854
1783170509931766300,6.447766357421875,0.3045802116394043,0.23895078897476196,-0.03855956718325615
1783170509941836300,6.457836181640625,0.3353959321975708,0.24022963643074036,-0.002384520834311843
1783170509951905300,6.4679052734375,0.35502487421035767,0.21209439635276794,0.049562450498342514
1783170509961975300,6.477975341796875,0.3632543087005615,0.1745438277721405,0.09156317263841629
1783170509972044300,6.488044189453125,0.36563947796821594,0.15116555988788605,0.11382647603750229
1783170509982114300,6.4981142578125,0.36981290578842163,0.168522447347641,0.12497207522392273
1783170509992183300,6.508183349609375,0.37432432174682617,0.21674858033657074,0.1316625326871872
1783170510002252300,6.518252197265625,0.3887629210948944,0.25725314021110535,0.12426082044839859
1783170510012322300,6.528322265625,0.3971709907054901,0.2783227264881134,0.11205029487609863
1783170510022391300,6.538391357421875,0.40278974175453186,0.26951006054878235,0.10286984592676163
1783170510032461300,6.54846142578125,0.40320804715156555,0.22836555540561676,0.09324260801076889
1783170510042530300,6.5585302734375,0.4023723602294922,0.15444818139076233,0.07411205768585205
1783170510052600300,6.568600341796875,0.39183446764945984,0.0742819756269455,0.04900657758116722
1783170510062669000,6.5786689453125,0.3671530783176422,-0.006450153887271881,0.03004433959722519
1783170510072739000,6.588739013671875,0.3324604034423828,-0.06252609193325043,0.011456375010311604
1783170510082808000,6.59880810546875,0.29283496737480164,-0.1102704405784607,-0.00631623063236475
1783170510092878000,6.608878173828125,0.25589531660079956,-0.13141608238220215,-0.029475275427103043
1783170510102947000,6.618947021484375,0.22651106119155884,-0.12536963820457458,-0.050180286169052124
1783170510113017000,6.62901708984375,0.1999261975288391,-0.09058327972888947,-0.054782189428806305
1783170510123086000,6.639086181640625,0.18028725683689117,-0.02868369035422802,-0.047626275569200516
1783170510133156000,6.649156005859375,0.1676064431667328,0.05487579107284546,-0.046933941543102264
1783170510143225000,6.65922509765625,0.16201753914356232,0.14176008105278015,-0.05586591735482216
1783170510153295000,6.669295166015625,0.16087020933628082,0.2003801017999649,-0.0667840912938118
1783170510163364000,6.679364013671875,0.16649667918682098,0.21204873919487,-0.07452723383903503
1783170510173434000,6.68943408203125,0.17383147776126862,0.19159698486328125,-0.06225563585758209
1783170510183503000,6.699503173828125,0.18289713561534882,0.16353286802768707,-0.027895528823137283
1783170510193573000,6.709572998046875,0.188538059592247,0.12502676248550415,-0.0049052732065320015
1783170510203642000,6.71964208984375,0.1800716072320938,0.08753584325313568,0.007761786691844463
1783170510213711000,6.729711181640625,0.15518972277641296,0.055795494467020035,-0.003357584122568369
1783170510223781000,6.739781005859375,0.12388240545988083,0.021488385275006294,-0.029479198157787323
1783170510233850000,6.74985009765625,0.083895243704319,-0.02050325646996498,-0.0726124569773674
1783170510243920100,6.759920166015625,0.039043888449668884,-0.061924465000629425,-0.10720745474100113
1783170510253988900,6.76998876953125,-0.0038088716100901365,-0.091354139149189,-0.12788628041744232
1783170510264059100,6.78005908203125,-0.040746916085481644,-0.10214872658252716,-0.12968285381793976
1783170510274128000,6.7901279296875,-0.06096557155251503,-0.10972101986408234,-0.12941356003284454
1783170510284198100,6.8001982421875,-0.08183277398347855,-0.11297033727169037,-0.12371332198381424
1783170510294267100,6.81026708984375,-0.09330081194639206,-0.10339081287384033,-0.11083129048347473
1783170510304337200,6.820337158203125,-0.10168604552745819,-0.09691453725099564,-0.08709906041622162
1783170510314406100,6.83040625,-0.12434642016887665,-0.09021149575710297,-0.055372610688209534
1783170510324476000,6.840475830078125,-0.14104816317558289,-0.060980379581451416,-0.03729560598731041
1783170510334545200,6.850545166015625,-0.15824003517627716,-0.02481570467352867,-0.03917290270328522
1783170510344615000,6.860614990234375,-0.17552581429481506,0.01027730293571949,-0.060944512486457825
1783170510354684200,6.87068408203125,-0.1958637684583664,0.038268595933914185,-0.08506177365779877
1783170510364754000,6.88075390625,-0.2171647995710373,0.05765081197023392,-0.08384417742490768
1783170510374823200,6.8908232421875,-0.24015776813030243,0.03927258402109146,-0.054724451154470444
1783170510384893200,6.90089306640625,-0.27044084668159485,0.025404971092939377,-0.007628314197063446
1783170510394962200,6.910962158203125,-0.29241153597831726,0.022810127586126328,0.022112185135483742
1783170510405032200,6.9210322265625,-0.3144039213657379,0.046442221850156784,0.026844622567296028
1783170510415101000,6.931100830078125,-0.338682621717453,0.08732704818248749,0.016580311581492424
1783170510425170200,6.941170166015625,-0.36649054288864136,0.12011988461017609,-0.00017496640793979168
1783170510435240000,6.951239990234375,-0.39549118280410767,0.13091515004634857,-0.023832442238926888
1783170510445309200,6.96130908203125,-0.4242836833000183,0.1096295639872551,-0.039950158447027206
1783170510455379000,6.97137890625,-0.4375062584877014,0.05732562020421028,-0.05664538964629173
1783170510465448200,6.9814482421875,-0.4562416076660156,0.0019387933425605297,-0.07073404639959335
1783170510475518000,6.99151806640625,-0.4702748954296112,-0.04331859201192856,-0.09316187351942062
1783170510485587200,7.001587158203125,-0.4882011413574219,-0.0721835270524025,-0.08971814066171646
1783170510495657000,7.011656982421875,-0.5069000124931335,-0.10973729193210602,-0.07231731712818146
1783170510505726200,7.021726318359375,-0.5188072919845581,-0.1264241337776184,-0.04305023327469826
1783170510515796200,7.031796142578125,-0.5287322402000427,-0.17235083878040314,-0.02388179674744606
1783170510525865000,7.041864990234375,-0.5417801141738892,-0.1692945957183838,-0.016685402020812035
1783170510535935200,7.051935302734375,-0.5542209148406982,-0.17076611518859863,-0.01678312197327614
1783170510546004000,7.06200390625,-0.5685330033302307,-0.1618993878364563,-0.0063563124276697636
1783170510556074200,7.07207421875,-0.5894098877906799,-0.16659721732139587,0.00923066958785057
1783170510566143000,7.08214306640625,-0.6046195030212402,-0.1609041690826416,0.008124658837914467
1783170510576213200,7.092213134765625,-0.6000543832778931,-0.1340087652206421,0.006952373310923576
1783170510586282000,7.102281982421875,-0.5929285883903503,-0.08734991401433945,0.002795445267111063
1783170510596352000,7.11235205078125,-0.5765396356582642,-0.023201853036880493,0.02174697071313858
1783170510606421000,7.1224208984375,-0.555942714214325,0.04551782086491585,0.059741757810115814
1783170510616490200,7.132490234375,-0.5307475328445435,0.1059177815914154,0.0993521437048912
1783170510626560000,7.14256005859375,-0.5084441304206848,0.15572956204414368,0.12867674231529236
1783170510636629000,7.15262890625,-0.4770597815513611,0.17997805774211884,0.13699033856391907
1783170510646699300,7.16269921875,-0.42638731002807617,0.12404687702655792,0.1276434361934662
1783170510656768000,7.17276806640625,-0.38178756833076477,0.014598776586353779,0.11715007573366165
1783170510666838300,7.18283837890625,-0.3595949113368988,-0.09876826405525208,0.1220974326133728
1783170510676907000,7.192906982421875,-0.3697856068611145,-0.1837511956691742,0.13430379331111908
1783170510686977000,7.20297705078125,-0.4091961085796356,-0.22947552800178528,0.13473708927631378
1783170510697046000,7.2130458984375,-0.4646790325641632,-0.22335277497768402,0.10999079793691635
1783170510707116000,7.223115966796875,-0.5167702436447144,-0.17690059542655945,0.06422757357358932
1783170510717185000,7.23318505859375,-0.5570873618125916,-0.12325388938188553,0.014264020137488842
1783170510727255000,7.243255126953125,-0.582994818687439,-0.09491065889596939,-0.025278329849243164
1783170510737324000,7.253323974609375,-0.5984668135643005,-0.11101719737052917,-0.0403711199760437
1783170510747394000,7.26339404296875,-0.6184607744216919,-0.16174456477165222,-0.03416702151298523
1783170510757463000,7.273463134765625,-0.6426001191139221,-0.2255466878414154,-0.013140439987182617
1783170510767533000,7.283532958984375,-0.6618049740791321,-0.27204737067222595,0.008192279376089573
1783170510777602000,7.29360205078125,-0.6778927445411682,-0.29169589281082153,0.030278250575065613
1783170510787672000,7.303672119140625,-0.7026398777961731,-0.2874146103858948,0.044252391904592514
1783170510797741000,7.313740966796875,-0.7057979106903076,-0.25134074687957764,0.0606597363948822
1783170510807811000,7.32381103515625,-0.6962717771530151,-0.20956586301326752,0.09015291184186935
1783170510817880000,7.333880126953125,-0.7046274542808533,-0.17502279579639435,0.10525915771722794
1783170510827949000,7.343948974609375,-0.7255162596702576,-0.13733480870723724,0.10200424492359161
1783170510838019000,7.35401904296875,-0.7442996501922607,-0.07968243956565857,0.10059771686792374
1783170510848088000,7.364088134765625,-0.7396945357322693,-0.05083268880844116,0.11687948554754257
1783170510858158000,7.374157958984375,-0.7252206206321716,-0.04371417686343193,0.1561957597732544
1783170510868227000,7.38422705078125,-0.6932491064071655,-0.028697412461042404,0.2155533730983734
1783170510878297000,7.394297119140625,-0.661356508731842,0.013598257675766945,0.26902756094932556
1783170510888366000,7.404365966796875,-0.6377630233764648,0.06974807381629944,0.30013805627822876
1783170510898436000,7.41443603515625,-0.6215503215789795,0.12612013518810272,0.2995149791240692
1783170510908505000,7.424505126953125,-0.6070315837860107,0.14636442065238953,0.26215454936027527
1783170510918575000,7.4345751953125,-0.6012606620788574,0.11900990456342697,0.20843756198883057
1783170510928644000,7.44464404296875,-0.592548668384552,0.05986163020133972,0.16009266674518585
1783170510938714000,7.454714111328125,-0.5783101916313171,-0.021446440368890762,0.14557738602161407
1783170510948783000,7.464783203125,-0.5707574486732483,-0.12768180668354034,0.14899715781211853
1783170510958853000,7.47485302734375,-0.58147132396698,-0.22369778156280518,0.15753717720508575
1783170510968922000,7.484922119140625,-0.6053956151008606,-0.28722721338272095,0.14626163244247437
1783170510978991900,7.494991943359375,-0.6250527501106262,-0.32160666584968567,0.11405625939369202
1783170510989061000,7.50506103515625,-0.6459274291992188,-0.32298457622528076,0.055068567395210266
1783170510999131000,7.515130859375,-0.6676805019378662,-0.3108605444431305,0.008506236597895622
1783170511009200000,7.5252001953125,-0.6872595548629761,-0.28830569982528687,-0.002656669821590185
1783170511019270100,7.535270263671875,-0.7066630721092224,-0.2550356388092041,-0.005655611865222454
1783170511029339100,7.545339111328125,-0.7234830260276794,-0.21273984014987946,0.00003742729313671589
1783170511039407900,7.555407958984375,-0.7257845997810364,-0.1447405070066452,0.004784418269991875
1783170511049478100,7.56547802734375,-0.724910318851471,-0.0657908245921135,0.02171546407043934
1783170511059547000,7.575546875,-0.7198671698570251,-0.007525951601564884,0.033395230770111084
1783170511069617200,7.5856171875,-0.718018114566803,0.012824060395359993,0.03745388612151146
1783170511079686000,7.595685791015625,-0.7203360795974731,-0.001251406967639923,0.03957754746079445
1783170511089756000,7.605755859375,-0.7262155413627625,-0.03516729548573494,0.055017225444316864
1783170511099825000,7.615824951171875,-0.7328165173530579,-0.08224040269851685,0.07119306921958923
1783170511109895000,7.62589501953125,-0.7470598816871643,-0.12686724960803986,0.07542270421981812
1783170511119964000,7.6359638671875,-0.7709034085273743,-0.15303094685077667,0.06058996170759201
1783170511130034000,7.646033935546875,-0.7971190810203552,-0.14950677752494812,0.03754349797964096
1783170511140103200,7.656103271484375,-0.8273064494132996,-0.13337093591690063,0.007385261356830597
1783170511150173000,7.6661728515625,-0.8486024141311646,-0.1382272094488144,-0.010073358193039894
1783170511160242200,7.6762421875,-0.861249566078186,-0.15856139361858368,-0.016455894336104393
1783170511170312000,7.68631201171875,-0.8562414646148682,-0.1950315237045288,-0.014599937945604324
1783170511180381200,7.696381103515625,-0.846725344657898,-0.2356313019990921,-0.010617220774292946
1783170511190451000,7.706450927734375,-0.8421348333358765,-0.2668270468711853,-0.004696214571595192
1783170511200520000,7.71652001953125,-0.8536588549613953,-0.2972986698150635,-0.002268617507070303
1783170511210590000,7.72658984375,-0.8658267855644226,-0.2974134385585785,-0.014198780059814453
1783170511220659000,7.736658935546875,-0.8823574781417847,-0.2785678505897522,-0.017595265060663223
1783170511230728000,7.74672802734375,-0.9014794826507568,-0.23919671773910522,-0.023425988852977753
1783170511240798000,7.7567978515625,-0.9086890816688538,-0.18251454830169678,-0.017087245360016823
1783170511250867000,7.766866943359375,-0.9019339680671692,-0.14901092648506165,-0.01689842715859413
1783170511260937000,7.77693701171875,-0.8926060199737549,-0.12381675094366074,-0.01067334320396185
1783170511271006200,7.787006103515625,-0.8831344842910767,-0.1259789764881134,0.017193708568811417
1783170511281076000,7.797075927734375,-0.8655284643173218,-0.14600498974323273,0.0701935887336731
1783170511291145000,7.80714501953125,-0.834274172782898,-0.17403262853622437,0.13059860467910767
1783170511301215000,7.817215087890625,-0.7904909253120422,-0.2161763608455658,0.18921436369419098
1783170511311284000,7.827283935546875,-0.7569595575332642,-0.265205442905426,0.24124614894390106
1783170511321354000,7.83735400390625,-0.745715856552124,-0.3137582838535309,0.2765447199344635
1783170511331423000,7.847423095703125,-0.7494229674339294,-0.35013148188591003,0.29469016194343567
1783170511341493000,7.857492919921875,-0.7624449133872986,-0.37951895594596863,0.2811877429485321
1783170511351562000,7.86756201171875,-0.7847533822059631,-0.3871854245662689,0.25478437542915344
1783170511361632000,7.877632080078125,-0.826614499092102,-0.37758827209472656,0.24831129610538483
1783170511371701000,7.887700927734375,-0.878699004650116,-0.3566523790359497,0.24355968832969666
1783170511381771000,7.89777099609375,-0.9091935157775879,-0.33489328622817993,0.24519206583499908
1783170511391840000,7.907840087890625,-0.9275639653205872,-0.32400840520858765,0.23210501670837402
1783170511401910000,7.917909912109375,-0.9358600974082947,-0.3387792706489563,0.21169468760490417
1783170511411979000,7.92797900390625,-0.9485207796096802,-0.370557963848114,0.17805656790733337
1783170511422049000,7.938049072265625,-0.9606069922447205,-0.4013800621032715,0.11601126939058304
1783170511432118000,7.948117919921875,-0.9836073517799377,-0.46355101466178894,0.015201563946902752
1783170511442187000,7.95818701171875,-1.0316647291183472,-0.5852771997451782,-0.10685765743255615
1783170511452257000,7.968257080078125,-1.1085516214370728,-0.7393021583557129,-0.22498616576194763
1783170511462326000,7.978325927734375,-1.214536190032959,-0.9023765921592712,-0.30406898260116577
1783170511472395800,7.988395751953125,-1.3096212148666382,-0.9894592761993408,-0.3345291316509247
1783170511482465000,7.998465087890625,-1.3801929950714111,-0.9880232810974121,-0.34342366456985474
1783170511492534800,8.00853466796875,-1.421988606452942,-0.8943889141082764,-0.3378848433494568
1783170511502604000,8.01860400390625,-1.434230923652649,-0.7325109839439392,-0.3545856177806854
1783170511512674000,8.028674072265625,-1.4129304885864258,-0.5447447896003723,-0.36904922127723694
1783170511522743000,8.038742919921875,-1.351035714149475,-0.3657907545566559,-0.35172826051712036
1783170511532813000,8.04881298828125,-1.2465194463729858,-0.2264757603406906,-0.27642709016799927
1783170511542882000,8.058882080078124,-1.12363862991333,-0.1340363621711731,-0.15789996087551117
1783170511552952000,8.0689521484375,-1.0075095891952515,-0.09231820702552795,-0.03667525574564934
1783170511563021000,8.07902099609375,-0.9229019284248352,-0.08059267699718475,0.05225739628076553
1783170511573091000,8.089091064453125,-0.8701058626174927,-0.07035468518733978,0.09510765969753265
1783170511583159800,8.099159912109375,-0.8458619117736816,-0.040902670472860336,0.09976056963205338
1783170511593230000,8.10922998046875,-0.8392500877380371,-0.000323285348713398,0.08705329895019531
1783170511603298800,8.119298828125,-0.8245730400085449,0.04753010720014572,0.06571801751852036
1783170511613369000,8.129369140625,-0.8112953305244446,0.09175536036491394,0.04885115101933479
1783170511623437800,8.139437744140626,-0.7863674759864807,0.12752215564250946,0.03521081805229187
1783170511633507000,8.149507080078125,-0.759900689125061,0.13961823284626007,0.029604597017169
1783170511643577000,8.1595771484375,-0.7349217534065247,0.1148323193192482,0.039304450154304504
1783170511653646000,8.16964599609375,-0.722801685333252,0.054870717227458954,0.04674958437681198
1783170511663716000,8.179716064453125,-0.7091785669326782,-0.010535058565437794,0.05141257867217064
1783170511673785000,8.18978515625,-0.6934800148010254,-0.09437642991542816,0.04913131520152092
1783170511683855000,8.199855224609376,-0.6911582946777344,-0.15531034767627716,0.05940578877925873
1783170511693923800,8.209923828125,-0.7002574801445007,-0.1908872425556183,0.055789217352867126
1783170511703994000,8.219994140625,-0.7168759703636169,-0.18881545960903168,0.03418373689055443
1783170511714062800,8.230062744140625,-0.7417837381362915,-0.1546391099691391,-0.012785635888576508
1783170511724133000,8.240133056640625,-0.7746108174324036,-0.08973000943660736,-0.07301630079746246
1783170511734201900,8.250201904296874,-0.8018437623977661,-0.02534116618335247,-0.1343393176794052
1783170511744272000,8.26027197265625,-0.8070017099380493,0.009368861094117165,-0.1631079465150833
1783170511754340900,8.2703408203125,-0.7762342095375061,0.020760798826813698,-0.1425427496433258
1783170511764411000,8.280410888671875,-0.7327327132225037,0.015985356643795967,-0.07640788704156876
1783170511774480100,8.290480224609375,-0.6718072891235352,0.005210740026086569,-0.0066074952483177185
1783170511784550000,8.3005498046875,-0.6192707419395447,-0.009023181162774563,0.03957482799887657
1783170511794619100,8.310619140625,-0.574935793876648,-0.001888306811451912,0.05689442902803421
1783170511804689000,8.32068896484375,-0.5435723662376404,0.02385595440864563,0.04349536448717117
1783170511814758100,8.330758056640626,-0.5085600018501282,0.049583956599235535,0.005448911339044571
1783170511824828000,8.340827880859376,-0.478593647480011,0.062032610177993774,-0.043464381247758865
1783170511834897200,8.350897216796875,-0.4535340964794159,0.04967501014471054,-0.07338659465312958
1783170511844966000,8.3609658203125,-0.44022729992866516,0.021361352875828743,-0.0741654485464096
1783170511855036000,8.371035888671875,-0.43651431798934937,-0.026087123900651932,-0.05255602300167084
1783170511865105000,8.38110498046875,-0.41195330023765564,-0.06596875935792923,-0.020503420382738113
1783170511875175000,8.3911748046875,-0.38355493545532227,-0.08984639495611191,0.024434758350253105
1783170511885244000,8.401243896484376,-0.3589472770690918,-0.07576798647642136,0.06468050181865692
1783170511895314000,8.41131396484375,-0.332187294960022,-0.06335632503032684,0.07732732594013214
1783170511905383200,8.421383056640625,-0.30959948897361755,-0.07054406404495239,0.0821518525481224
1783170511915453000,8.431452880859375,-0.2948746085166931,-0.10666105896234512,0.07580447196960449
1783170511925522200,8.441522216796875,-0.284715861082077,-0.15982332825660706,0.055817026644945145
1783170511935592000,8.451592041015624,-0.2863297164440155,-0.19686177372932434,-0.0038785282522439957
1783170511945661200,8.4616611328125,-0.3123670518398285,-0.21532563865184784,-0.08299145847558975
1783170511955731000,8.47173095703125,-0.3629271686077118,-0.22628188133239746,-0.159551739692688
1783170511965800000,8.481800048828125,-0.4026575982570648,-0.20087997615337372,-0.20312541723251343
1783170511975870000,8.491869873046875,-0.423641175031662,-0.15425921976566315,-0.17588581144809723
1783170511985939000,8.50193896484375,-0.4280460774898529,-0.09085560590028763,-0.06902133673429489
1783170511996009000,8.512009033203125,-0.40532585978507996,0.011470500379800797,0.06953414529561996
1783170512006078000,8.522077880859374,-0.34910473227500916,0.14887189865112305,0.165644109249115
1783170512016148000,8.53214794921875,-0.2711276412010193,0.26700252294540405,0.1917143315076828
1783170512026217000,8.542217041015626,-0.1899055689573288,0.3397561013698578,0.16267624497413635
1783170512036286000,8.552285888671875,-0.10103216022253036,0.36302173137664795,0.13334046304225922
1783170512046356000,8.56235595703125,-0.017068712040781975,0.3521278202533722,0.14721743762493134
1783170512056425200,8.57242529296875,0.0572047233581543,0.3011610209941864,0.18057645857334137
1783170512066495000,8.582494873046874,0.11758360266685486,0.2215110957622528,0.21411898732185364
1783170512076563700,8.592563720703126,0.16555485129356384,0.14927685260772705,0.24826817214488983
1783170512086634000,8.602634033203126,0.2056047022342682,0.08534714579582214,0.26340314745903015
1783170512096702700,8.61270263671875,0.24785149097442627,0.03917725384235382,0.2676950991153717
1783170512106773000,8.62277294921875,0.2982686161994934,0.011819647625088692,0.27132904529571533
1783170512116841700,8.632841796875,0.355901837348938,-0.017422927543520927,0.26347193121910095
1783170512126912000,8.642912109375,0.4110802412033081,-0.059940971434116364,0.25182053446769714
1783170512136980700,8.652980712890624,0.46388858556747437,-0.14505107700824738,0.20801153779029846
1783170512147050800,8.66305078125,0.5258803367614746,-0.2222016453742981,0.13696525990962982
1783170512157119700,8.67311962890625,0.6512659788131714,-0.2691342532634735,0.07131221145391464
1783170512167189800,8.683189697265625,0.818681538105011,-0.30540984869003296,0.06175379827618599
1783170512177258800,8.6932587890625,1.0074243545532227,-0.36519676446914673,0.11396880447864532
1783170512187328800,8.703328857421875,1.1613374948501587,-0.49983102083206177,0.1832842230796814
1783170512197397800,8.713397705078124,1.2242588996887207,-0.6971731185913086,0.24108122289180756
1783170512207467800,8.7234677734375,1.1738895177841187,-0.8650866150856018,0.2532099783420563
1783170512217537000,8.733537109375,1.0467805862426758,-0.953086256980896,0.17918100953102112
1783170512227605800,8.743605712890625,0.8795425891876221,-0.9241366982460022,0.03063035011291504
1783170512237676000,8.753676025390625,0.6968973875045776,-0.7967377305030823,-0.15644872188568115
1783170512247744800,8.763744873046875,0.5138845443725586,-0.6038593649864197,-0.332637220621109
1783170512257814800,8.773814697265625,0.3344847559928894,-0.3919479250907898,-0.4483422636985779
1783170512267883800,8.7838837890625,0.17458893358707428,-0.23896197974681854,-0.5330249667167664
1783170512277953800,8.793953857421876,0.07658141106367111,-0.17085590958595276,-0.5950574278831482
1783170512288022800,8.804022705078125,0.06983519345521927,-0.12270033359527588,-0.5716881155967712
1783170512298092800,8.8140927734375,0.14795689284801483,-0.10125016421079636,-0.48476335406303406
1783170512308161800,8.824161865234375,0.2723722755908966,-0.07999775558710098,-0.3955485224723816
1783170512318231800,8.834231689453125,0.396674245595932,-0.049690719693899155,-0.34019792079925537
1783170512328300800,8.84430078125,0.48544102907180786,-0.020113905891776085,-0.319553941488266
1783170512338370800,8.854370849609374,0.5150061249732971,0.03985968232154846,-0.3204631507396698
1783170512348439800,8.864439697265626,0.5027710795402527,0.08871201425790787,-0.34925949573516846
1783170512358509800,8.874509765625,0.4715849757194519,0.12152987718582153,-0.3438338339328766
1783170512368578800,8.884578857421875,0.4575211703777313,0.1618024706840515,-0.3072790503501892
1783170512378648800,8.89464892578125,0.4881959855556488,0.21140970289707184,-0.26417016983032227
1783170512388717800,8.9047177734375,0.5559204816818237,0.29603445529937744,-0.20333218574523926
1783170512398787800,8.914787841796874,0.6560050249099731,0.3903801143169403,-0.14093299210071564
1783170512408856800,8.92485693359375,0.7542830109596252,0.4445187449455261,-0.10664060711860657
1783170512418925800,8.93492578125,0.809377908706665,0.45783960819244385,-0.12354929000139236
1783170512428995800,8.944995849609375,0.8509359359741211,0.4764525294303894,-0.15812240540981293
1783170512439064800,8.95506494140625,0.8967723846435547,0.49566057324409485,-0.12282992899417877
1783170512449134800,8.965134765625,0.9359931945800781,0.5063128471374512,-0.0396258570253849
1783170512459203800,8.975203857421874,0.971497118473053,0.4896944761276245,0.027410967275500298
1783170512469273900,8.98527392578125,1.003153920173645,0.49309587478637695,0.009489208459854126
1783170512479342800,8.9953427734375,1.0301061868667603,0.5218124389648438,-0.04638710618019104
1783170512489412900,9.005412841796876,1.0523936748504639,0.5590105652809143,-0.08852170407772064
1783170512499481900,9.01548193359375,1.059930682182312,0.5700696110725403,-0.0971282422542572
1783170512509551900,9.0255517578125,1.0737706422805786,0.557992160320282,-0.07033055275678635
1783170512519620900,9.035620849609375,1.0981814861297607,0.527063250541687,-0.013549556955695152
1783170512529690600,9.045690673828124,1.104465365409851,0.4659956395626068,0.0029159942641854286
1783170512539759900,9.055759765625,1.1679223775863647,0.4256221055984497,-0.006602143403142691
1783170512549829600,9.06582958984375,1.2181411981582642,0.36776790022850037,-0.03800003603100777
1783170512559899000,9.07589892578125,1.2433255910873413,0.2980269193649292,-0.04494556039571762
1783170512569969000,9.085968994140625,1.252579927444458,0.19147248566150665,0.005936652421951294
1783170512580038000,9.096037841796875,1.2447621822357178,0.06647942960262299,0.0774712860584259
1783170512590108000,9.10610791015625,1.2257204055786133,-0.04025901108980179,0.11800834536552429
1783170512600177000,9.116177001953124,1.2051414251327515,-0.07963624596595764,0.11298295855522156
1783170512610246000,9.126245849609376,1.2032723426818848,-0.0561443567276001,0.10863258689641953
1783170512620316000,9.13631591796875,1.2123854160308838,0.011501537635922432,0.08419648557901382
1783170512630385000,9.146385009765625,1.2223684787750244,0.09204058349132538,0.067107655107975
1783170512640454700,9.15645458984375,1.2221282720565796,0.13009263575077057,0.06842298805713654
1783170512650524000,9.16652392578125,1.2192131280899048,0.12957598268985748,0.08080003410577774
1783170512660593700,9.17659375,1.2139142751693726,0.1286470741033554,0.08516362309455872
1783170512670663000,9.186662841796876,1.2015405893325806,0.15904037654399872,0.09312648326158524
1783170512680732700,9.196732666015626,1.175204873085022,0.18345756828784943,0.10750861465930939
1783170512690802000,9.206802001953125,1.1353732347488403,0.2051706165075302,0.10031617432832718
1783170512700871700,9.21687158203125,1.1015628576278687,0.25407344102859497,0.08422882109880447
1783170512710941000,9.22694091796875,1.0737296342849731,0.28618139028549194,0.06660816818475723
1783170512721011000,9.237010986328125,1.0471667051315308,0.29908815026283264,0.05152668431401253
1783170512731080000,9.247079833984374,1.0198897123336792,0.28060382604599,0.03660491108894348
1783170512741150000,9.25714990234375,0.9909265041351318,0.251240074634552,0.01595369540154934
1783170512751218700,9.26721875,0.946137011051178,0.2265889197587967,0.02278914861381054
1783170512761289000,9.2772890625,0.8987223505973816,0.18652352690696716,0.06107848137617111
1783170512771357700,9.287357666015625,0.8546417951583862,0.15739068388938904,0.09678440541028976
1783170512781428000,9.297427978515625,0.8197322487831116,0.17442798614501953,0.11161608248949051
1783170512791496700,9.30749658203125,0.798462450504303,0.21790531277656555,0.0940624475479126
1783170512801566000,9.31756591796875,0.7973154187202454,0.29967740178108215,0.05374431610107422
1783170512811634000,9.327634033203125,0.8133364319801331,0.402988076210022,0.024715062230825424
1783170512821702700,9.33770263671875,0.8262348771095276,0.4499734044075012,0.021643245592713356
1783170512831773000,9.34777294921875,0.8384721279144287,0.4918636083602905,0.04435295984148979
1783170512841842000,9.357842041015624,0.8584737777709961,0.5318996906280518,0.08345082402229309
1783170512851911700,9.36791162109375,0.8560308814048767,0.469942182302475,0.11367380619049072
1783170512861981000,9.37798095703125,0.8099193572998047,0.30535030364990234,0.11209402233362198
1783170512872050700,9.38805078125,0.7462350726127625,0.11649038642644882,0.07868064194917679
1783170512882120000,9.398119873046875,0.6835205554962158,0.0038466649129986763,0.09888791292905807
1783170512892189700,9.408189697265625,0.6539011001586914,-0.016982190310955048,0.15894673764705658
1783170512902259000,9.418259033203125,0.6389508843421936,-0.002231740392744541,0.22321094572544098
1783170512912328700,9.42832861328125,0.6202338933944702,-0.010887796059250832,0.260254830121994
1783170512922398000,9.43839794921875,0.5941569805145264,-0.06294966489076614,0.2587226927280426
1783170512932468000,9.448468017578126,0.5700876712799072,-0.09463970363140106,0.20252351462841034
1783170512942536700,9.45853662109375,0.5491400361061096,-0.1107797920703888,0.1454053670167923
1783170512952605700,9.468605712890625,0.5344894528388977,-0.15267062187194824,0.0872625857591629
1783170512962675700,9.47867578125,0.5243467688560486,-0.15409007668495178,0.015442720614373684
1783170512972745000,9.488744873046874,0.5178465247154236,-0.007129428908228874,-0.0688922256231308
1783170512982814700,9.498814697265624,0.5134957432746887,0.2036970555782318,-0.07473652809858322
1783170512992884000,9.508884033203126,0.5049580335617065,0.3141697645187378,-0.031042464077472687
1783170513002953700,9.51895361328125,0.484709233045578,0.2554931640625,0.009209087118506432
1783170513013023000,9.52902294921875,0.4814477562904358,0.1290552020072937,0.002429395215585828
1783170513023092700,9.5390927734375,0.4981399178504944,0.02335699275135994,-0.014691001735627651
1783170513033162000,9.549161865234375,0.515015721321106,-0.05678738281130791,0.0018164891516789794
1783170513043231700,9.559231689453124,0.5384113192558289,-0.0889543816447258,0.06591851264238358
1783170513053300700,9.56930078125,0.5612576603889465,-0.053093839436769485,0.13757149875164032
1783170513063370500,9.57937060546875,0.5834084749221802,0.059247881174087524,0.1864926964044571
1783170513073439500,9.589439453125,0.6088234186172485,0.17661407589912415,0.19961214065551758
1783170513083509500,9.599509521484375,0.6451310515403748,0.23696155846118927,0.17721974849700928
1783170513093578500,9.60957861328125,0.6952876448631287,0.22935354709625244,0.14485102891921997
1783170513103648500,9.6196484375,0.7393770217895508,0.16925932466983795,0.15370577573776245
1783170513113717500,9.629717529296874,0.7679224610328674,0.07631979137659073,0.2128898650407791
1783170513123787500,9.63978759765625,0.7970481514930725,-0.01674596779048443,0.2925468683242798
1783170513133857500,9.649857421875,0.8307138681411743,-0.0774359330534935,0.36142006516456604
1783170513143926300,9.65992626953125,0.8445886969566345,-0.09656514972448349,0.3832353353500366
1783170513153996500,9.66999658203125,0.8383285403251648,-0.042785000056028366,0.3520767390727997
1783170513164065500,9.6800654296875,0.838908851146698,0.061560049653053284,0.3101558983325958
1783170513174135600,9.690135498046875,0.8387814164161682,0.1675982028245926,0.2682448625564575
1783170513184204500,9.70020458984375,0.8365404009819031,0.22138100862503052,0.2446253001689911
1783170513194274300,9.7102744140625,0.8263241052627563,0.22543364763259888,0.24345546960830688
1783170513204343600,9.720343505859375,0.827908992767334,0.2114643007516861,0.2680404484272003
1783170513214413300,9.730413330078125,0.8438828587532043,0.24353648722171783,0.2829684019088745
1783170513224482600,9.740482666015625,0.8647186756134033,0.34547218680381775,0.23173369467258453
1783170513234551600,9.750551513671875,0.8550571799278259,0.4987664222717285,0.07803132385015488
1783170513244621600,9.76062158203125,0.8242971301078796,0.5988069772720337,-0.07280692458152771
1783170513254690300,9.770690185546876,0.7834290862083435,0.6673601865768433,-0.15553072094917297
1783170513264760600,9.780760498046876,0.7592174410820007,0.6848222613334656,-0.32504329085350037
1783170513274829300,9.790829345703125,0.7757655382156372,0.8087141513824463,-0.6498283743858337
1783170513284899600,9.800899658203125,0.8208792209625244,1.0543265342712402,-0.9382146596908569
1783170513294968600,9.810968505859375,0.7733486890792847,0.8238856196403503,-0.615748941898346
1783170513305038300,9.821038330078125,0.9183743000030518,0.10281533747911453,-0.5869188904762268
1783170513315107600,9.831107666015624,0.8876138925552368,-0.08499051630496979,-0.33925068378448486
1783170513325177300,9.84117724609375,0.9446290135383606,-0.11555907875299454,-0.1075061559677124
1783170513335246600,9.85124658203125,1.0059623718261719,-0.09491026401519775,-0.006792332977056503
1783170513345316400,9.86131640625,1.0232704877853394,0.09156587719917297,-0.0704599916934967
1783170513355385600,9.871385498046875,1.0329889059066772,0.3537512719631195,-0.20029421150684357
1783170513365455400,9.881455322265625,1.1334131956100464,0.6421431303024292,-0.2644103467464447
1783170513375524600,9.891524658203124,1.2168612480163574,0.8645586371421814,-0.08401552587747574
