time,seconds_elapsed,z,y,x
1783169547091161000,0.0631611328125,0.08386661621034144,0.018921453059767373,0.023374834005744194
1783169547101230800,0.07323095703125,-0.04422434165179729,0.014430502882646397,0.011421323687391122
1783169547111300000,0.083300048828125,-0.09794482592344284,0.005612460453761741,-0.008084261961351149
1783169547121368800,0.093368896484375,0.018772505009174347,0.002785977456718683,-0.019499216415104454
1783169547131438800,0.10343896484375,0.06456161175966263,-0.00683630772687029,-0.02420185484783724
1783169547141507800,0.1135078125,-0.018038345515727996,-0.016991654040967114,-0.009922181445616296
1783169547151577900,0.123577880859375,-0.0759475136488676,0.009888201544201001,0.010418698541575577
1783169547161646800,0.133646728515625,-0.031055647999048232,0.02646922895766329,0.004194524513813667
1783169547171716000,0.143716064453125,0.038078093981742854,0.013868594683567062,0.005435430236288812
1783169547181785900,0.153785888671875,0.008449263915419577,-0.0026031682357192036,0.02300821091674734
1783169547191854800,0.163854736328125,-0.04931085113584995,-0.002488538013258949,0.0026765965148224493
1783169547201923800,0.173923828125,-0.035843466797471045,0.014854550680727698,-0.0004830365598783828
1783169547211993900,0.183993896484375,0.00486029951274395,-0.0034002871298929676,-0.009088037884637015
1783169547222062800,0.194062744140625,0.025510873353481293,0.0009163430933607742,0.008716989782272139
1783169547232131800,0.2041318359375,-0.01623743357360363,0.00905044467896223,0.010599017836322309
1783169547242201900,0.214201904296875,-0.022820319095253942,0.007419249580823816,-0.00719977074440103
1783169547252270800,0.224270751953125,0.013542787662148476,0.02091161766340956,0.012564119922299869
1783169547262339800,0.23433984375,0.003217208480834961,0.021902546663209795,-0.02631996124666184
1783169547272409900,0.244409912109375,-0.009202712631225586,-0.0021506478284019975,-0.006438145572005305
1783169547282478800,0.254478759765625,-0.032846038547158236,0.0033745590335922315,-0.007613575709681026
1783169547292547800,0.2645478515625,-0.021173136410117147,-0.0012919714727206155,0.007790201785066165
1783169547302617900,0.274617919921875,0.014590835410356521,0.015263455708604306,0.017763261751260143
1783169547312686800,0.284686767578125,-0.0038157588958740232,0.008939353553880936,-0.008439563363668275
1783169547322755800,0.294755859375,-0.03105097182393074,0.00803926747557707,0.009347761966480175
1783169547332825900,0.304825927734375,-0.003367430606484413,-0.00012801942699588835,0.007958617154532112
1783169547342894800,0.314894775390625,0.012344517788290977,0.002869157661567442,0.0031222316652711013
1783169547352964900,0.32496484375,-0.008755553385615348,0.00656660567370709,-0.015623327113117556
1783169547363034000,0.3350341796875,-0.02521685884296894,0.0004125171904917806,-0.0049426291925774414
1783169547373102800,0.345102783203125,-0.010252513945102692,0.011585589179769158,0.0000036338538571726527
1783169547383172900,0.3551728515625,-0.0060632455617189406,0.019930301308748313,0.009967704512708586
1783169547393241900,0.365241943359375,-0.003968319109082222,0.020571019498235546,0.011607144566095667
1783169547403311000,0.37531103515625,-0.013246435064077376,0.018536326199700123,0.012312968447624006
1783169547413380900,0.385380859375,-0.02342179211974144,0.017108928311662747,-0.005027836957731051
1783169547423450000,0.3954501953125,-0.022075053685903546,0.00855940519243013,-0.0150706913491711
1783169547433518800,0.405518798828125,-0.021625556352734564,0.006464866898860782,0.017551364574738545
1783169547443588900,0.4155888671875,-0.019530629900097844,-0.0017707040335284544,-0.000008181023166980594
1783169547453657900,0.425657958984375,-0.001724339574575424,0.007844270059862173,-0.006190812897565774
1783169547463727000,0.43572705078125,-0.00007949497699737548,0.004067459501465782,0.0037570703865319956
1783169547473796900,0.445796875,-0.021028174981474874,-0.0023946354849962515,0.0012900261108065023
1783169547483865900,0.455865966796875,-0.022674188622832298,0.01608241197525058,-0.015908090879739028
1783169547493934800,0.465934814453125,-0.013995792126655578,0.027583779770554973,-0.02035518022389151
1783169547504004900,0.4760048828125,-0.012050503277778625,0.015296723223966545,-0.01783036532085389
1783169547514073900,0.486073974609375,-0.0005284077882766723,0.006150713782617822,0.00355250142487348
1783169547524143000,0.49614306640625,-0.010554127240180969,0.017090520438714882,0.014249947267526293
1783169547534212900,0.506212890625,-0.010105214428901672,0.008892523304047063,0.007554721661913209
1783169547544281900,0.51628173828125,-0.0018757307440042494,0.007880519550177269,0.00940567758262041
1783169547554350800,0.526350830078125,-0.005317980152368545,0.012692353978427126,0.005677404032310005
1783169547564420900,0.5364208984375,-0.019833412238955496,0.017174824021570383,0.0017887853962020015
1783169547574489900,0.54648974609375,-0.01609188762307167,0.0013883810519007965,0.004714163332100725
1783169547584556300,0.556556396484375,0.002013093388080597,0.002287238720920868,0.00586462799187866
1783169547594625300,0.566625244140625,0.003209609696269035,0.011786335916258394,-0.014194939419458387
1783169547604694300,0.5766943359375,0.002011924344301224,0.018648243875266052,-0.01217219913690933
1783169547614764300,0.586764404296875,-0.012653145346045494,0.008889230801840313,-0.009584634895698399
1783169547624833300,0.596833251953125,-0.009958499434590339,0.009419657017267309,0.01576518098593224
1783169547634902300,0.60690234375,-0.0011304653346538543,0.01204004581584595,-0.023845620722114106
1783169547644972300,0.61697216796875,-0.010557634371519088,-0.004739504410978406,-0.008168958269851282
1783169547655041300,0.627041259765625,-0.008912205252051353,-0.011668326426623389,-0.011023365886858663
1783169547665110300,0.6371103515625,-0.011157353830337524,0.0007945342114428058,0.005472932110418332
1783169547675180500,0.6471806640625,-0.0033773674786090847,0.007050608064676635,0.007860990582511294
1783169547685249300,0.657249267578125,-0.009661562314629554,0.008882823893940076,0.008438740238116587
1783169547695318300,0.667318359375,-0.02941314148902893,0.0004498306933091953,0.011520241459133104
1783169547705388300,0.67738818359375,-0.018489011892676353,0.010546149429702199,0.000875322671449976
1783169547715457500,0.68745751953125,-0.004872574472427368,0.012160521257203072,-0.010252480837417532
1783169547725526300,0.6975263671875,-0.003824526724219322,-0.01708394913403317,-0.0077021467589889646
1783169547735596500,0.707596435546875,-0.020135025534033773,0.013716952352388762,0.005732478095748229
1783169547745665300,0.717665283203125,-0.014148936861753463,0.014338303687702864,0.012907060741609893
1783169547755734300,0.727734375,0.006500467935204505,-0.0005538116575917229,-0.00474846631885739
1783169547765804300,0.73780419921875,0.0018617022186517714,0.005444428676785901,-0.00022680819293018428
1783169547775873500,0.74787353515625,0.00021685762107372282,0.0036043948672479014,0.004554056849965127
1783169547785943300,0.757943359375,-0.014746902754902839,-0.0005674839899176731,0.02126661424669437
1783169547796012300,0.76801220703125,-0.0033738603472709652,0.011388249109918251,0.0020742501324333717
1783169547806081300,0.778081298828125,-0.01579261241555214,0.008838345431396737,-0.0013476928484858943
1783169547816151300,0.7881513671875,-0.012949497944116591,0.006019516017846763,-0.003420045568066416
1783169547826220300,0.79822021484375,-0.014595511585474013,-0.0029842354085994885,-0.006432118831662228
1783169547836289300,0.808289306640625,-0.01190086567401886,0.019194178187078796,-0.02050489317617612
1783169547846359300,0.818359375,-0.006066168171167373,0.009457322146533989,-0.005738303906691726
1783169547856428300,0.82842822265625,-0.011153262177109718,0.005491003198293038,-0.002314109603181714
1783169547866497300,0.838497314453125,-0.0060655836492776866,0.012867838409496471,-0.007986335136875277
1783169547876567300,0.8485673828125,-0.012649053692817687,0.016349113787151873,-0.0001609022082237061
1783169547886636300,0.85863623046875,-0.0006774608701467514,-0.0043572316617006435,-0.008212513142143142
1783169547896705300,0.868705322265625,-0.01668926899433136,-0.008860141704673878,0.01160418770731776
1783169547906775300,0.878775390625,-0.017137597283720968,-0.011786354182567446,0.022117317358474244
1783169547916844300,0.88884423828125,-0.014143676164746283,0.005462868515774607,0.00904079207627219
1783169547926913300,0.898913330078125,-0.0089057755112648,0.015407120229303836,0.013318871254270196
1783169547936983300,0.9089833984375,-0.014891864183545113,-0.008018256653589196,0.000727168063656427
1783169547947052300,0.91905224609375,-0.014443535894155502,0.0051970663195941595,0.012534667782241013
1783169547957121300,0.929121337890625,-0.024172318226099013,0.00860686106334906,0.007478037413221318
1783169547967191300,0.93919140625,-0.0145960961073637,0.0062703261408722025,0.009515180680458434
1783169547977260300,0.94926025390625,-0.010106383472681045,0.004119637213274836,-0.011353056782239582
1783169547987329300,0.959329345703125,0.00006955810487270355,0.009597018311591819,0.0011273417958058416
1783169547997399300,0.9693994140625,-0.00008183306455612182,0.0040319863292854275,0.011909150586818577
1783169548007468300,0.97946826171875,-0.019085808742046354,0.006447404307406395,-0.0057666920342482626
1783169548017537300,0.989537353515625,-0.018636311408877372,0.023260071352543307,-0.007754090433713281
1783169548027607300,0.999607177734375,-0.008460369831323623,0.009379229108756408,-0.006136698956997134
1783169548037676300,1.00967626953125,-0.018336451679468155,0.007885282490262761,-0.008780132987734396
1783169548047746300,1.019746337890625,-0.018784779968857763,-0.0010735612153774127,0.0001462514867191203
1783169548057815300,1.029815185546875,-0.008309563183784485,-0.0020375702422112227,0.007361384197033476
1783169548067884300,1.03988427734375,-0.009655132573843001,0.009205320146842859,0.0034220514371292666
1783169548077954300,1.049954345703125,-0.013246435064077376,-0.006427690393361263,0.0012521212362335062
1783169548088023600,1.0600234375,-0.014442951372265814,0.004211758776404895,-0.0010975277544988784
1783169548098092300,1.07009228515625,-0.00277238732278347,0.0181157535669161,0.004748813378729392
1783169548108162300,1.080162353515625,-0.01025426751077175,0.00837272808048874,-0.001591589173534885
1783169548118231300,1.090231201171875,-0.018183891466259955,0.0016556354196509346,0.0008696247246698476
1783169548128300500,1.100300537109375,-0.01713584371805191,0.012794640742545015,0.0014071005937468725
1783169548138370300,1.110370361328125,-0.00905658215880394,0.016659873936488292,0.005993270756670972
1783169548148439300,1.120439208984375,-0.012798691296577453,0.015121503654378466,0.0133882775204489
1783169548158508300,1.13050830078125,-0.01190086567401886,0.005985307787568308,-0.010000055287685244
1783169548168578300,1.140578369140625,-0.0174368724912405,0.009320137598970905,-0.007910497988265706
1783169548178647300,1.150647216796875,-0.011003040051460265,0.007299819885659963,0.003158348724845564
1783169548188716300,1.16071630859375,-0.021627309918403625,0.011670367686660028,-0.003464234052953543
1783169548198786300,1.170786376953125,-0.015342530560493468,0.01518830354658421,-0.014799185497988946
1783169548208855300,1.180855224609375,-0.01938274586200714,0.01089367052600719,-0.014105255266942548
1783169548218924300,1.19092431640625,-0.01220014088153839,0.007139975981716997,0.0007160826973500661
1783169548228994300,1.200994384765625,-0.015043839874863624,0.010982138827326706,-0.006883728206815431
1783169548239063300,1.211063232421875,-0.024770868641138075,0.016548157190321943,-0.0049275674791191704
1783169548249132300,1.22113232421875,-0.01848608928322792,0.016667322024004533,0.004115656299545662
1783169548259202300,1.231202392578125,-0.010406243202090262,0.004472624502563849,0.009454668965144082
1783169548269271300,1.241271240234375,-0.012200725403428076,-0.013489093846688047,0.002679071599699091
1783169548279340300,1.25134033203125,-0.013697101441025733,0.010929550123563968,-0.012813565780367934
1783169548289410300,1.261410400390625,-0.016989713245630263,0.012831821814621797,-0.014532023603428387
1783169548299479300,1.271479248046875,-0.023124854999780654,0.007443813199922442,0.0009972925252164713
1783169548309549300,1.28154931640625,-0.027014848175644875,0.008168866938306018,0.006001557952759321
1783169548319618300,1.291618408203125,-0.020279986962676046,0.008908383026882074,0.013944917031010844
1783169548329687300,1.301687255859375,-0.016239771661162375,0.014614896705956197,0.019111066480888984
1783169548339757300,1.31175732421875,-0.016537877824902535,0.007596332313935272,-0.00573256714400486
1783169548349826300,1.321826416015625,-0.019380407774448393,0.016634214338846504,-0.0008647065209574066
1783169548359895300,1.331895263671875,-0.009653963530063628,0.01974834147111978,-0.006030729248316493
1783169548369965300,1.34196533203125,-0.013394319102168083,0.002316044690296985,-0.002243705539871007
1783169548380034300,1.352034423828125,-0.00890402194559574,0.002735375214065425,-0.005107516881107585
1783169548390103300,1.362103271484375,-0.021174889975786208,0.014641273256228304,-0.011305530129373072
1783169548400173300,1.37217333984375,-0.004863806644082069,0.01158014581967145,-0.005862682629964547
1783169548410242300,1.3822421875,-0.018481997630000115,0.002165123878326267,-0.0001755186803988181
1783169548420311300,1.392311279296875,-0.005014613291621208,0.015449224071670323,0.0032933538734097965
1783169548430381300,1.40238134765625,-0.009504325926303863,-0.007457471832516603,0.0032725314227340274
1783169548440450300,1.4124501953125,-0.0136941788315773,0.01200472334071528,0.0026305505746335254
1783169548450519300,1.422519287109375,-0.01234744039773941,0.02108944018203765,0.004059507948806276
1783169548460589300,1.43258935546875,-0.0015729484051465988,0.01039834759000223,0.021706752379762474
1783169548470658300,1.442658203125,-0.022073884642124175,0.0034627305073896423,0.015186249728460097
1783169548480727600,1.4527275390625,-0.013694763353466987,0.013431212479877285,-0.002193462915177224
1783169548490797300,1.46279736328125,-0.006363105291128158,-0.0036151217572391032,-0.0022861073514039163
1783169548500866300,1.4728662109375,-0.007113046875596046,0.0003433244118001312,0.0054103471690265
1783169548510935300,1.482935302734375,-0.023873043018579482,0.0019830590094206853,0.0020911841425695454
1783169548521005300,1.49300537109375,-0.03434825980365276,-0.004323676451970823,-0.01074110003800015
1783169548531074300,1.50307421875,-0.01609188762307167,-0.006062651906674727,0.0009458717235887889
1783169548541143300,1.513143310546875,-0.012501169654726982,0.006860209192265756,0.01074269034853205
1783169548551213300,1.52321337890625,-0.002475450202822685,0.005124238545401022,0.00997864260689821
1783169548561282300,1.5332822265625,-0.026267244678735733,0.0009490626194514334,0.0034769017382815944
1783169548571351300,1.543351318359375,-0.023124854999780654,0.006946069977967999,0.006760206858423771
1783169548581421300,1.55342138671875,-0.023273908081650734,0.025883761786483227,0.0010209222792647778
1783169548591490300,1.563490234375,-0.017587094616889953,0.01405270994566381,0.004077244534896453
1783169548601559000,1.57355908203125,-0.0036713819891214367,0.00034094522504601627,0.007413505968271056
1783169548611629300,1.58362939453125,-0.014444704937934875,0.012840169517858884,-0.0033531440695165654
1783169548621698000,1.593697998046875,0.00021919570863246916,0.007074144203891046,0.017600809190055588
1783169548631768300,1.603768310546875,-0.008460369831323623,-0.005420887970994226,-0.007117844065011013
1783169548641837000,1.613837158203125,-0.028211949005723,-0.0076064153165323655,-0.001260035114630591
1783169548651906300,1.62390625,-0.011153262177109718,0.000504250594554469,0.011277226483495906
1783169548661976000,1.63397607421875,-0.00935761093199253,0.0021644982572412118,0.0042995169749599875
1783169548672045300,1.64404541015625,-0.009806523743271827,0.024583159482735206,-0.0074220603091293014
1783169548682114000,1.654114013671875,-0.008460369831323623,-0.00570448155219201,-0.009853053740650647
1783169548692184300,1.664184326171875,-0.02671615749001503,0.002045895112561993,0.007048704943602206
1783169548702253000,1.674253173828125,-0.01504442439675331,0.0038709779481403525,0.01150722671393305
1783169548712322300,1.684322265625,-0.014594927063584328,0.0009067532811081036,0.009222031536337454
1783169548722392000,1.69439208984375,0.006055646777153015,-0.004082227812334895,-0.004510851320833899
1783169548732461300,1.70446142578125,-0.02102934402525425,0.003931348099559545,-0.002890821504103951
1783169548742530000,1.714530029296875,-0.019233108258247374,0.009055248718243092,0.011434015347249806
1783169548752600300,1.724600341796875,-0.0044184009641408915,0.01127099310553167,0.003315329384844517
1783169548762669000,1.7346689453125,-0.0023228899896144866,0.009834124136250465,0.008401610540034016
1783169548772738300,1.74473828125,-0.007410568517446517,0.00884109451090917,-0.003844256621284876
1783169548782808000,1.75480810546875,-0.009654548051953316,0.020395192573871464,-0.0010176708762533963
1783169548792877300,1.764877197265625,-0.011599836900830269,0.01041420274625998,-0.003589488417416578
1783169548802946000,1.774946044921875,-0.019979542711377144,0.012777712440630421,0.0009043638195551466
1783169548813016000,1.78501611328125,-0.020129764837026595,0.025973983653471804,0.006630937330902088
1783169548823085000,1.7950849609375,-0.003969488152861595,0.019071816749311982,-0.00040012806637678295
1783169548833154300,1.805154296875,-0.01220014088153839,-0.0030242888577748086,-0.0074740062671422485
1783169548843224000,1.81522412109375,-0.025818916389346122,0.002001110689342022,0.006562638459709705
1783169548853293000,1.82529296875,-0.020431962653994558,0.009780795646971091,0.010710873863095185
1783169548863362000,1.835362060546875,-0.016691022560000417,-0.0072408562400378285,0.00817798410981195
1783169548873432000,1.84543212890625,-0.023723989936709402,0.013844305059104226,0.00035381041484070007
1783169548883501000,1.8555009765625,-0.008460954353213309,-0.0032519601338077335,0.0017505368866899515
1783169548893571000,1.865571044921875,-0.02103109759092331,0.006385326256090775,0.014232953891885699
1783169548903640300,1.875640380859375,-0.005319733718037605,0.012453800548776052,-0.0035205216842994556
1783169548913709000,1.885708984375,-0.014745733711123466,0.002474363357434049,-0.0032556544948136434
1783169548923779300,1.895779296875,0.00291267257630825,0.007888753088982776,0.005492923444032203
1783169548933848000,1.90584814453125,-0.003970657196640968,0.006544800267275422,-0.0033025132857554124
1783169548943917000,1.9159169921875,-0.013696516919136047,0.0033456297666300087,0.0011879242930677718
1783169548953987000,1.925987060546875,0.002913257098197937,0.002323022420355119,-0.0007635945088404696
1783169548964056300,1.936056396484375,-0.015790274327993393,-0.0035215982548892494,-0.0029358274063211866
1783169548974125000,1.946125,0.0038122517645359038,-0.0030074290545191616,-0.0016457727544067892
1783169548984195300,1.9561953125,-0.005614332750439643,0.0039496463746530935,-0.0015649500450701452
1783169548994264000,1.96626416015625,-0.009954407781362532,0.021495751394028775,-0.004444543477328261
1783169549004333300,1.976333251953125,-0.0014250643670558928,0.00788241924631875,-0.002513976131903473
1783169549014403000,1.986403076171875,-0.01085164888203144,0.0050346788321156055,0.007726148689084221
1783169549024472300,1.996472412109375,-0.0029208558827638624,0.008496171797066927,-0.0067249996893689965
1783169549034541000,2.006541015625,-0.0032218846559524533,0.002579467699723318,-0.006369801035040291
1783169549044611300,2.016611328125,-0.010104629907011985,0.010103643526323139,-0.013721153603470884
1783169549054680000,2.02668017578125,-0.015641805768013,0.020548898997972718,-0.002115695246029645
1783169549064749300,2.036749267578125,-0.007411153039336204,-0.0031946815551957114,0.014126452176953897
1783169549074819000,2.046819091796875,0.008149988707900046,0.0006420744629343972,-0.00065171793246991
1783169549084888300,2.056888427734375,-0.016841244685649872,-0.0009230879279784858,-0.001849217196414247
1783169549094957000,2.06695703125,-0.014296820899844168,-0.0016132164834532887,0.0032352373278699813
1783169549105027000,2.077027099609375,-0.008909867164492607,0.018618529157014563,0.011847814604308223
1783169549115096000,2.087095947265625,-0.010406243202090262,0.00815281085264869,-0.0053082636175968215
1783169549125165300,2.097165283203125,-0.023126024043560026,0.005538933993247337,0.005249539717281004
1783169549135235000,2.107235107421875,-0.01025777464210987,0.008429563701106235,0.0025689759884611704
1783169549145304300,2.11730419921875,-0.008461538875102996,-0.004502594949142076,-0.005075728936778614
1783169549155373000,2.127373046875,-0.005915361523628235,0.01527430132960435,-0.00039824435325572265
1783169549165443000,2.137443115234375,-0.012198971837759018,0.014119509837869554,0.012069767383963335
1783169549175512000,2.147511962890625,-0.004117956712841988,0.021586169623839666,-0.012996059907536255
1783169549185581300,2.157581298828125,-0.011450199297070503,0.011982219247962347,0.005151544394146185
1783169549195651000,2.167651123046875,-0.0240203425347805,0.0072251517808297645,-0.005969478889129823
1783169549205720000,2.177719970703125,0.0002215337961912155,-0.0033181389715056867,0.0035711798675241877
1783169549215789000,2.1877890625,-0.001723170530796051,0.004002440574392676,-0.008363594925962389
1783169549225859000,2.197859130859375,-0.029405542704463,0.0005745895841391756,0.013692131863319081
1783169549235928000,2.207927978515625,-0.017882862693071364,0.011129753437358886,0.013813672458822838
1783169549245998000,2.217998046875,-0.014441197806596756,0.008445459956559351,0.009800203600339591
1783169549256067000,2.228067138671875,-0.017132921108603476,0.014138844726001843,-0.00455692237719777
1783169549266136000,2.238135986328125,-0.006058569386601448,0.008660121053969487,0.027021337281935846
1783169549276206300,2.248206298828125,-0.013990531429648399,0.001445645930781029,-0.00577591880360851
1783169549286275000,2.258275146484375,-0.021024667850136756,0.017301468908810055,0.004625175582617521
1783169549296344000,2.268343994140625,-0.01653553973734379,0.00803954147021286,0.01358350783160422
1783169549306414000,2.2784140625,-0.014290391159057616,0.0029013428981183097,-0.005466688457655255
1783169549316483300,2.2884833984375,-0.02087503024637699,0.012236659799912012,-0.005099778815935133
1783169549326552000,2.298552001953125,-0.015489245554804802,0.011340450745704583,-0.008475698689551791
1783169549336622300,2.308622314453125,-0.008157002970576286,0.010516786337899976,-0.006009760667168302
1783169549346691000,2.318691162109375,0.00007364975810050964,0.007676726906653493,0.004619095184991601
1783169549356760300,2.32876025390625,-0.0017214169651269913,0.009344134962488896,-0.005294197417981922
1783169549366830000,2.338830078125,0.001270166066288948,0.008031654991279356,0.012406085524597437
1783169549376899300,2.3488994140625,-0.004715922605991363,0.012752404469437897,0.001824077046936145
1783169549386968000,2.358968017578125,-0.012945990812778472,-0.00901739179273136,0.010364746714499778
1783169549397038300,2.369038330078125,-0.00037760114073753353,0.019448915566550568,0.018056630091089754
1783169549407107000,2.379107177734375,-0.013395488145947456,0.0014288043938344343,0.005005557768908329
1783169549417176300,2.38917626953125,-0.005314473021030426,0.011117862070165574,-0.00641798185009975
1783169549427246000,2.39924609375,-0.03045359045267105,0.01715211899941787,0.002505605595780071
1783169549437315300,2.4093154296875,-0.01698679063618183,-0.001245789676858112,-0.004361924961482873
1783169549447384000,2.419384033203125,-0.010253098466992377,0.00867640090191271,-0.00985236076255096
1783169549457454000,2.4294541015625,-0.01638824022114277,0.0067159373167902225,0.0066714325964276205
1783169549467523000,2.439523193359375,-0.012497078001499176,0.007078199324500747,0.00801169219877338
1783169549477592300,2.44959228515625,-0.013844400957226752,-0.006294583799294195,-0.0030354347312299065
1783169549487662000,2.459662109375,-0.027161563169956205,0.003068064067419618,-0.0077011729363875925
1783169549497731300,2.4697314453125,-0.009054828593134879,-0.006192717160284519,0.009847823868039994
1783169549507800000,2.479800048828125,-0.014891864183545113,0.007395151752606034,-0.006678855567768914
1783169549517870000,2.4898701171875,-0.02416939561665058,0.019861327725765293,-0.0011781860670540482
1783169549527939000,2.49993896484375,-0.0005272387444972992,0.0011607006427133456,0.0038785093756916467
1783169549538009000,2.510009033203125,-0.014593173497915267,0.004362432993203401,0.0005183476185658946
1783169549548078000,2.520078125,0.005309212324023246,0.006887572123226709,0.018199683832080336
1783169549558147000,2.53014697265625,-0.006063830083608627,0.007716903653414919,0.010792358726134989
1783169549568217000,2.540217041015625,-0.013994623082876205,0.012979993547080083,0.013296767878672107
1783169549578286000,2.5502861328125,-0.016388824743032455,-0.0023127430549357087,0.014285018580907489
1783169549588355300,2.560355224609375,-0.02013034935891628,-0.00026023097191937264,-0.003159757513931254
1783169549598425000,2.570425048828125,-0.007412906605005264,0.010441926436824723,0.012675738487055058
1783169549608494300,2.580494384765625,-0.01848608928322792,0.016419566941168157,0.020511569512134883
1783169549618563000,2.59056298828125,-0.011602174988389015,-0.008943477173149585,0.0015752739346178712
1783169549628633300,2.60063330078125,-0.009807108265161514,0.0035547242063563313,0.0042050093752099196
1783169549638702000,2.6107021484375,-0.020282325050234792,0.0054116726180771365,0.016588082775333895
1783169549648771300,2.620771240234375,-0.00920855785012245,-0.0026564967249985785,0.01211696638491121
1783169549658841000,2.630841064453125,-0.016092472144961355,0.005968790477607399,0.004017754591244738
1783169549668910300,2.640910400390625,-0.01699205133318901,0.004250227623269893,0.001482735671312548
1783169549678979000,2.65097900390625,-0.003675473642349243,-0.0035554548587184397,-0.007128558396914741
1783169549689049300,2.66104931640625,-0.012953005075454712,0.004066660350444727,-0.0032519270261225754
1783169549699118000,2.6711181640625,-0.01639466996192932,0.01689955531072337,0.00033975791495759037
1783169549709187300,2.681187255859375,-0.013850830698013305,0.02365962403018493,-0.0075683551783324214
1783169549719257000,2.691257080078125,-0.014299158987402916,-0.00005250650537200272,0.004747083787590964
1783169549729326300,2.701326416015625,-0.01040858128964901,0.002506612526066601,0.016764372065645874
1783169549739395000,2.71139501953125,-0.01684299825131893,0.0018563273572130127,0.003990912250091787
1783169549749465300,2.72146533203125,-0.02342822186052799,0.014315151140978559,0.004358583368570544
1783169549759534000,2.7315341796875,-0.008314239358901977,0.012720401895977555,0.01066786013020901
1783169549769603300,2.741603271484375,-0.023876550149917602,0.0040277120129670945,0.012515706211799987
1783169549779673000,2.751673095703125,-0.009213234025239945,0.0031533540309639646,0.0016413465993944554
1783169549789742300,2.761742431640625,-0.00876373669207096,0.01953604129415471,0.007152410771604627
1783169549799811000,2.77181103515625,-0.01579728859066963,0.01180789472751785,0.006462206867604982
1783169549809881000,2.781881103515625,-0.0107096100628376,0.0032527958174468946,-0.0033653162812115624
1783169549819950000,2.7919501953125,-0.008614099088311195,-0.0012575760127743706,-0.000788134153408464
1783169549830019300,2.802019287109375,0.0048538697719573975,0.0126767317176098,0.014200732122716726
1783169549840089000,2.812089111328125,-0.015347206735610961,0.008505560679920017,0.01611037541112164
1783169549850158300,2.822158447265625,-0.01400046830177307,0.0007509325317339972,0.010096085840952581
1783169549860228400,2.832228271484375,-0.01459960323870182,-0.00029462186528835443,0.003056088218546938
1783169549870297000,2.842297119140625,-0.008913958817720412,0.012498196812928653,-0.0003019968875683844
1783169549880366000,2.852365966796875,-0.017293664628267286,0.0063115258009405805,-0.0035527343203139022
1783169549890436000,2.86243603515625,-0.006221066471934318,0.010348265937156974,0.0012296445429441519
1783169549900505300,2.87250537109375,-0.01759293983578682,0.00546597835489083,-0.0010884996312495786
1783169549910574000,2.882573974609375,-0.014152443993091582,0.01434774280290585,-0.017651379466668005
1783169549920644400,2.892644287109375,-0.003677811729907989,0.015330100337183102,-0.007610377963952487
1783169549930713000,2.902713134765625,-0.015500351470708846,-0.004547726432234048,-0.00188779335784493
1783169549940782300,2.9127822265625,-0.014603110370039939,0.00925697726884391,-0.014236516963795293
1783169549950852000,2.92285205078125,-0.0204389769166708,0.013668802361725829,-0.020344362002355044
1783169549960921300,2.93292138671875,-0.016099486407637593,0.005428322358778678,-0.006278663569310447
1783169549970990000,2.942989990234375,-0.017895137652754783,0.007690851330128498,0.0041875410755339544
1783169549981060400,2.953060302734375,-0.002183189257979393,0.016058195416023952,-0.006789653290261048
1783169549991129000,2.963129150390625,-0.009666238489747047,0.023668611054238863,0.00705726499268203
1783169550001198300,2.9731982421875,-0.010863339319825171,0.00416241234249901,0.014301140881935133
1783169550011268000,2.98326806640625,-0.017148118677735327,0.00046864042505621905,-0.015830989930871873
1783169550021337300,2.99333740234375,0.0006581716477870941,-0.0026694977704668416,-0.0001203532854153309
1783169550031406000,3.003406005859375,-0.004579729005694389,0.008229031593748368,-0.012924565573903963
1783169550041476400,3.013476318359375,-0.017299509847164152,0.006385143593000248,0.00785649136226275
1783169550051545000,3.023545166015625,-0.01550502764582634,0.011609650475368834,-0.010270513109385501
1783169550061614300,3.0336142578125,-0.009369885891675948,0.027002381419716403,0.014556788151926592
1783169550071684000,3.04368408203125,0.0029009821385145187,0.004341239508125,-0.005139528587722452
1783169550081753300,3.05375341796875,-0.012660159608721732,0.004592474322835914,0.0031573463611362968
1783169550091822000,3.063822021484375,-0.010865092885494232,-0.007266004381026141,-0.007637342461047228
1783169550101892400,3.073892333984375,-0.03076630966365337,0.0005783387440722436,0.006417382486833958
1783169550111961000,3.083961181640625,-0.008171616017818451,-0.002364596539759077,-0.00647542368384893
1783169550122030300,3.0940302734375,-0.006975099709630012,-0.003764891791739501,0.009424384566379012
1783169550132100000,3.10410009765625,-0.006825462105870247,0.00418210799023509,-0.00634571918984293
1783169550142169300,3.11416943359375,-0.018497195199131965,0.00566224527908489,-0.02091835793145001
1783169550152239000,3.124239013671875,-0.026427988198399543,0.00934043146832846,-0.019536054993886498
1783169550162308000,3.13430810546875,0.006342647024989128,0.008158989431685767,0.005064231436874252
1783169550172377000,3.144377197265625,-0.010717208847403526,0.01193401902494952,-0.009931073713192018
1783169550182447000,3.154447021484375,-0.003833294552564621,0.017123947784281335,-0.007778188261931063
1783169550192516000,3.16451611328125,-0.025530747097730636,0.01200938124952372,0.00987800095223938
1783169550202585300,3.17458544921875,-0.02134206323623657,0.013043062545661814,-0.012104912904225057
1783169550212655400,3.1846552734375,0.0002069207489490509,0.008080535634304397,-0.01821140623591491
1783169550222724000,3.19472412109375,-0.004132569760084152,0.00978053535206709,-0.009061115628381957
1783169550232793000,3.20479296875,-0.002786415848135948,0.012521614221134222,0.004304821054451167
1783169550242863000,3.214863037109375,-0.013410685715079307,0.009659626085869967,-0.0069386070490756535
1783169550252932400,3.224932373046875,-0.017450316494703293,0.013963743887422605,-0.002806477963697398
1783169550263001000,3.2350009765625,-0.00039221418797969816,0.023627178498730063,-0.0037354270935931705
1783169550273071400,3.2450712890625,-0.02179039152562618,0.014350012391805647,0.002497684867517091
1783169550283140000,3.25514013671875,-0.01445931798517704,-0.002354303474607877,0.007438992035976843
1783169550293209300,3.265209228515625,-0.010269465079903601,0.011828156630834565,-0.00660171922792797
1783169550303279000,3.275279052734375,-0.010120996519923209,-0.0013940070750890299,-0.0017965816852345596
1783169550313348400,3.285348388671875,-0.004884264910221099,-0.0072475051765330135,0.005643018847162602
1783169550323417000,3.2954169921875,-0.006680500677227973,0.008310841825418174,-0.003530430015316233
1783169550333487400,3.3054873046875,-0.007877016985416412,0.0026954039632808417,0.010675437223532935
1783169550343556000,3.31555615234375,-0.007727963903546333,-0.009162371487682685,-0.0031364873778424226
1783169550353625300,3.325625244140625,-0.018202596166729926,0.006822553196153603,-0.006602688483952079
1783169550363695000,3.335695068359375,-0.01535772812962532,0.002170197345665656,-0.008483300899050663
1783169550373764400,3.345764404296875,-0.0011415712505578994,0.0014595191925065591,-0.0000697624592052307
1783169550383833000,3.3558330078125,-0.003834463596343994,0.015018413172662257,0.00023902378710918126
1783169550393903400,3.3659033203125,-0.00637830286026001,0.00653458940051496,-0.00010361221316852607
1783169550403972000,3.37597216796875,-0.009670330142974854,0.006517030910938046,-0.0025392144627927335
1783169550414041300,3.386041259765625,-0.02882452794611454,-0.0010550209116889162,-0.0018490596494986674
1783169550424111000,3.396111083984375,0.002749006447196007,0.009800536960479804,0.002612116443866398
1783169550434180400,3.406180419921875,-0.0024900632500648497,0.005110671244352124,-0.0130577566496504
1783169550444250000,3.41625,-0.007129998010396957,-0.0025107407119125125,-0.006388595925411209
1783169550454319400,3.4263193359375,0.0018476736932992934,0.01111768397365231,0.000807313777913805
1783169550464388000,3.43638818359375,-0.00713116705417633,0.020807527101272715,0.006062277447339147
1783169550474458000,3.4464580078125,-0.007879355072975158,0.005369934101891703,0.008285097746097017
1783169550484527000,3.456527099609375,-0.008177461236715316,0.001883512191660702,-0.011833473268413218
1783169550494596400,3.466596435546875,-0.024037878191471098,0.009106047323718667,0.006258856040431419
1783169550504666000,3.476666015625,-0.012067454412579537,0.0058478446787921705,0.00396465785576147
1783169550514735000,3.486735107421875,0.008582534906268119,0.01858720243698917,-0.010208439624647144
1783169550524804000,3.49680419921875,-0.0015928221493959427,-0.0038947880819905547,-0.00030289764493354596
1783169550534874000,3.5068740234375,-0.010420856249332427,0.007224151700409129,-0.0047775063253182445
1783169550544943000,3.516943115234375,-0.012067454412579537,0.022581359240226445,-0.028824119237449482
1783169550555012400,3.527012451171875,-0.03526069847345352,0.01937000967802014,-0.0010419890418241265
1783169550565082400,3.537082275390625,-0.018950199663639068,0.0057564720343332735,-0.0005414796156925149
1783169550575151000,3.547151123046875,0.002747252881526947,0.017186993949976748,-0.009544710452330765
1783169550585220000,3.55722021484375,-0.004136076891422272,0.018828212685207835,0.012303243921342072
1783169550595290000,3.5672900390625,-0.018950199663639068,0.0003812909351661801,-0.0005928501849703024
1783169550605359000,3.577359130859375,-0.0247872352540493,-0.009066582963010295,-0.0032969500530045477
1783169550615428000,3.587427978515625,-0.018652678021788598,0.0033228334129322317,0.003929841129062697
1783169550625498000,3.597498046875,-0.01191957037448883,-0.0010578704559011385,0.0016030261662905105
1783169550635567000,3.607567138671875,-0.020000585499405858,0.007191126213641837,0.004479598807689035
1783169550645636000,3.617635986328125,-0.023441665863990782,0.010726721027842723,0.007732064689928666
1783169550655706000,3.6277060546875,-0.010721300500631331,0.00882095590517856,0.0012383963882690295
1783169550665775000,3.637775146484375,-0.013863105657696722,0.006661069890973158,-0.009748235951084643
1783169550675844000,3.647843994140625,0.0031961656928062437,0.009866683832136914,-0.005064710927486885
1783169550685914000,3.6579140625,0.001550152051448822,0.0043458426180062815,-0.011911787785188062
1783169550695983000,3.667983154296875,-0.01610708519220352,0.0033822582828579467,-0.013769969172769923
1783169550706052000,3.678052001953125,-0.01565875690281391,0.023112968199164606,0.005674567046185256
1783169550716122000,3.6881220703125,0.0009510171145200729,0.0033220844942610708,0.009356940786779159
1783169550726191000,3.698191162109375,-0.00009644611179828643,-0.0012135268084937706,0.004162738852773327
1783169550736261000,3.70826123046875,-0.0026402853757143017,0.011493750744429416,0.00682665284089162
1783169550746330400,3.718330322265625,-0.00009703063368797301,-0.00036044907653704286,-0.013076246720989
1783169550756399000,3.728399169921875,-0.022243395990133284,0.012949347247066907,-0.01037187970818486
1783169550766469000,3.73846923828125,-0.012217092016339302,0.007258341664378531,0.0013182852325553539
1783169550776538000,3.7485380859375,-0.01520867504775524,-0.0001419063884532079,-0.0006831063012883533
1783169550786607400,3.758607421875,-0.013263386198878287,0.007230348545755259,-0.006822573745751287
1783169550796677000,3.768677001953125,-0.001741290709376335,0.009206808851030654,0.008744937235122778
1783169550806746400,3.778746337890625,-0.007726794859766959,0.004517308461084031,-0.009058312891586684
1783169550816815000,3.788815185546875,0.01037935519516468,-0.00013727587910834698,0.007649829766573384
1783169550826885000,3.798885009765625,-0.012813304343819618,-0.011178880675556137,0.0009611537744000088
1783169550836954000,3.8089541015625,-0.007576572734117507,0.01117286192672327,-0.00045689290504669766
1783169550847023400,3.8190234375,-0.019099252745509148,0.014425776475179009,0.009580289797432487
1783169550857093000,3.829093017578125,-0.012364391532540321,-0.0017954411825630812,-0.0030464926980726887
1783169550867162000,3.839162109375,-0.019248305827379224,0.0011241269254125654,-0.002387839276384329
1783169550877231000,3.849231201171875,-0.00907353329360485,0.013027677746862172,-0.01240930952814524
1783169550887301000,3.859301025390625,-0.023290859216451642,-0.0019985899386927484,-0.016864585603686283
1783169550897370000,3.8693701171875,0.006336801806092262,0.009395371959381737,-0.005887377538159489
1783169550907439000,3.879439208984375,-0.010271803167462349,-0.0024202448502881452,0.006228822803415824
1783169550917509000,3.889509033203125,-0.026131635600328443,-0.007219315695087425,-0.004909879983734572
1783169550927578000,3.899578125,-0.022539748588204383,0.012806815237528643,-0.0014946829790773335
1783169550937647000,3.909647216796875,-0.014758593192696571,0.009634948302339762,0.004329679217783268
1783169550947717000,3.919717041015625,-0.006976853275299072,0.006009282318199984,0.00277537043938064
1783169550957786000,3.9297861328125,-0.010420271727442742,0.018014165489119476,0.004768060360249364
1783169550967855000,3.939855224609375,-0.007726210337877273,0.008840400391165166,0.0029541291063476817
1783169550977925000,3.949925048828125,-0.018500702330470083,0.0017464235422201453,0.009968971737899119
1783169550987994000,3.959994140625,-0.022090835776925086,0.009116874678409657,0.012096759280521655
1783169550998063000,3.97006298828125,-0.010120411998033523,-0.004395878605078905,0.0046065017065440765
1783169551008133000,3.980133056640625,-0.012215338450670242,0.009353866338636725,-0.008194262816110858
1783169551018202000,3.9902021484375,-0.017453239104151724,0.015680945901735684,-0.00840674223123351
1783169551028272000,4.000272216796875,-0.024335984355211258,-0.0030484551846515387,0.00013638082996476441
1783169551038341000,4.010341064453125,-0.0071270754009485245,0.006720928585738874,0.014104169563198229
1783169551048410000,4.02041015625,0.0024485621958971024,0.024570067105721682,-0.0023520715599705
1783169551058480400,4.03048046875,-0.019248890349268914,0.011541823103278875,-0.005061591955216135
1783169551068549000,4.040549072265625,-0.01401098969578743,0.009397184890555218,0.011604185424029127
1783169551078618000,4.0506181640625,-0.012364976054430007,0.01030297462386079,0.018133594042639013
1783169551088688000,4.060688232421875,-0.018949030619859693,0.014645163980056532,0.0060924294153635854
1783169551098757400,4.07075732421875,-0.011915478721261023,0.018262692323513328,-0.006199239374260651
1783169551108826000,4.080826171875,-0.0020405659168958664,0.009469642771990038,0.014007933513954048
1783169551118896000,4.090896240234375,-0.012664251261949538,-0.006893412775546312,-0.00851815986658912
1783169551128965000,4.100965087890625,0.005742927566170692,0.006908249585074372,0.003599517762730829
1783169551139034400,4.111034423828125,-0.008771919998526573,-0.00038505836140830066,0.003392481707705883
1783169551149104000,4.121104248046875,-0.02089373494684696,-0.008773623331845738,-0.007229148677579359
1783169551159173400,4.13117333984375,-0.006380056425929069,-0.00412992114527151,0.007076495991181582
1783169551169242000,4.1412421875,-0.012217092016339302,0.025643468490894883,-0.0036828029988566413
1783169551179312000,4.15131201171875,-0.004435936620831489,0.020240919894189573,-0.012287896796804853
1783169551189381000,4.161381103515625,0.0064876084536314,0.0050221527106827125,-0.013801868998241843
1783169551199450400,4.171450439453125,-0.005483984369039535,0.019544151535374112,-0.009896147388638928
1783169551209520000,4.18152001953125,-0.01625789183974266,0.009051800952409393,-0.005150507781107444
1783169551219589000,4.191589111328125,-0.0024918168157339097,0.004959700200031511,0.0027758099724422207
1783169551229658000,4.201658203125,0.0022977555483579635,-0.004440320535004138,-0.014088731107115745
1783169551239728000,4.21172802734375,-0.0114677349537611,-0.008016452855570242,0.0008539476649253629
1783169551249797000,4.221797119140625,-0.019847440764307975,0.010106936028529889,-0.006377503709238954
1783169551259866000,4.2318662109375,-0.001443184545636177,0.005330656970851123,0.0016164758779748808
1783169551269936000,4.24193603515625,-0.01236614509820938,-0.004956088037416338,0.011213264719059224
1783169551280005000,4.252005126953125,-0.014612462720274924,0.008153066580975428,0.004486202078411588
1783169551290074000,4.26207421875,-0.00922609350681305,0.004927843757043592,-0.0017010808549297507
1783169551300144000,4.27214404296875,-0.0071305825322866435,0.0027661630779737606,0.012134406143479281
1783169551310213000,4.282213134765625,-0.007280220136046409,0.004719000479066744,0.00396434847015189
1783169551320282000,4.2922822265625,-0.0048871875196695325,0.012365323114302008,-0.0049289796931378076
1783169551330352000,4.30235205078125,-0.010423194336891173,0.014494266000972129,0.0010099750519206281
1783169551340421000,4.312421142578125,-0.018353402814269063,0.003383975315908901,-0.004435295016726013
1783169551350491100,4.3224912109375,-0.01850304041802883,0.00250925657430198,0.00001585743954638019
1783169551360560000,4.33256005859375,-0.009524199670553207,0.007386959312995895,-0.005752432896743994
1783169551370629000,4.342629150390625,-0.0032400048345327375,0.012089437915524467,0.0029809908554540012
1783169551380699100,4.35269921875,-0.006979775884747505,0.018660738030658104,-0.016026191700919297
1783169551390768000,4.36276806640625,-0.013563830450177191,-0.008657614003052002,0.002870416895247763
1783169551400837000,4.372837158203125,-0.0096726682305336,0.011443965919106267,-0.009146668170118936
1783169551410907400,4.382907470703125,-0.025534838750958442,0.019295921528502367,0.007578635685396147
1783169551420976000,4.39297607421875,-0.004136076891422272,0.00043672918314114213,0.012619600411114516
1783169551431045000,4.403045166015625,-0.004134907847642899,0.0064017385347746305,-0.005283355221914826
1783169551441115100,4.413115234375,-0.032115970706939695,0.017205442922119982,-0.008361470325890696
1783169551451184400,4.423184326171875,-0.0024877251625061033,-0.007742083760444074,0.0032338947541546074
1783169551461253000,4.433253173828125,-0.009521277061104774,0.004731531167076901,0.002699582381476648
1783169551471323100,4.4433232421875,-0.022838439273834228,0.011850907318759709,0.016268639279331545
1783169551481392000,4.45339208984375,-0.012812135300040245,0.0093725208067568,0.005271762965532252
1783169551491461000,4.463461181640625,-0.019246552261710168,0.019689647253556177,0.0025122271328116767
1783169551501531100,4.47353125,-0.01790039834976196,0.013784912155219353,0.010316070425807265
1783169551511600000,4.48360009765625,-0.023435820645093915,0.01840558052607812,0.006642749924637609
1783169551521669000,4.493669189453125,-0.00024199206233024596,0.02664709257548675,-0.001986740812339121
1783169551531739100,4.5037392578125,-0.004880173256993294,0.006307539178989827,-0.004525056801055325
1783169551541808000,4.51380810546875,-0.022686463582515717,0.00604484225534834,0.013672866615490055
1783169551551877400,4.52387744140625,-0.005627192232012748,0.002101977247931063,0.00012210570944007487
1783169551561947100,4.533947021484375,-0.0038321255087852475,-0.0035042041620938105,0.009331069984938949
1783169551572016000,4.54401611328125,-0.01341010119318962,0.00235403404654935,0.007230276622163364
1783169551582085000,4.554085205078125,-0.008023147457838059,0.015795681155472995,0.000026313759834738447
1783169551592155400,4.5641552734375,-0.0024865561187267303,0.00908005893251393,0.005014397520845522
1783169551602224600,4.574224609375,-0.005928221005201339,0.0078739802115364,-0.00760179964856361
1783169551612294400,4.58429443359375,-0.0026367782443761823,-0.007150145749282091,-0.007283325408585369
1783169551622363600,4.59436376953125,-0.02119184111058712,0.0030238367666257544,0.010517118556395871
1783169551632432400,4.604432373046875,-0.013410685715079307,0.0009250789556652307,-0.0006028487058880273
1783169551642502700,4.614502685546875,-0.022239304336905477,0.015374039943609386,0.005408455464395228
1783169551652571400,4.6245712890625,-0.012212415841221808,0.005619716745032929,-0.005750508084427565
1783169551662640600,4.634640625,-0.005029810860753059,0.0037065035348525267,0.0027559761857439296
1783169551672710400,4.64471044921875,-0.002336333993077278,-0.005540883921738714,0.003372231220832327
1783169551682779600,4.654779541015625,-0.009967267262935639,-0.0011308032613713294,0.002363687790883705
1783169551692848400,4.664848388671875,-0.018047113344073294,0.0015239992634626105,0.01200987786480109
1783169551702918700,4.674918701171875,-0.028821605336666105,0.02223955093207769,-0.00395628389470512
1783169551712987400,4.6849873046875,0.0005097030878067016,0.002325981562421657,-0.020400688449607695
1783169551723056600,4.695056640625,-0.0074205053895711895,0.007060613435460254,0.004604027763311751
1783169551733126700,4.705126708984375,-0.008617021697759629,0.020055315927905028,-0.0011562630712578538
1783169551743195600,4.715195556640625,-0.009513678276538848,0.01282326861540787,-0.001348904133104952
1783169551753264400,4.725264404296875,-0.00921557211279869,0.0035383986926404757,0.008987075427925446
1783169551763334400,4.73533447265625,-0.005026303729414939,0.005192604773608036,0.008452597516821697
1783169551773403600,4.745403564453125,-0.01894084731340408,0.011269189307512716,0.01033541444709408
1783169551783472600,4.75547265625,-0.017295418193936346,0.005360111394198611,0.010564916920609539
1783169551793542700,4.765542724609375,-0.008466799572110176,-0.0016655403257347643,-0.009958417236199602
1783169551803611400,4.775611328125,-0.02552490187883377,-0.0008079599485965445,0.005788125264632981
1783169551813680400,4.785680419921875,-0.017893968608975408,0.001763315311516635,0.013475625868694623
1783169551823750400,4.79575048828125,-0.004577390918135643,0.011596996489772573,0.007915359109762357
1783169551833819600,4.805819580078125,-0.008617606219649314,-0.0017090050081256776,0.0020702806351473556
1783169551843888600,4.815888671875,-0.004428337836265564,0.004925555901834741,-0.005383222841727547
1783169551853958700,4.825958740234375,-0.01295826577246189,0.0075495705627603455,-0.00972505029667518
1783169551864027400,4.83602734375,-0.010414426508545875,0.0267141025302466,0.009849109359539579
1783169551874096600,4.8460966796875,-0.03256079186499119,0.007642842903360724,0.003477108375902753
1783169551884166400,4.85616650390625,-0.007422258955240249,0.006693766584177501,0.0005612449037318584
1783169551894235600,4.866235595703125,-0.0153542209982872,0.0027708438196685165,-0.0052402181914425455
1783169551904305400,4.876305419921875,-0.019843933632969855,0.008250156580167822,0.0008777109913586172
1783169551914374700,4.886374755859375,-0.005179448464512825,0.008107277510757557,0.004625091100938152
1783169551924443400,4.896443359375,-0.015654080727696418,0.028472860397654585,0.010254589454468804
1783169551934513700,4.906513671875,-0.003533434823155403,0.0012063983813859521,0.014978598327148937
1783169551944582400,4.91658251953125,-0.0027829087167978283,-0.002210369525849819,0.014920059373212278
1783169551954651600,4.926651611328125,-0.014454641810059546,0.005617451722710393,0.005498643082054331
1783169551964721400,4.936721435546875,-0.03315992680191993,0.005214200117485597,0.021264707700686995
1783169551974790700,4.946790771484375,-0.008469137659668922,0.008617966979253105,-0.011604021027247653
1783169551984859400,4.956859375,-0.006821954974532127,0.00882865972102154,-0.010333914326463127
1783169551994929700,4.9669296875,-0.012507599395513535,0.010398050762480125,0.0018623221315152477
1783169552004998400,4.976998291015625,-0.01864215662777424,0.013997970384010112,0.006508904686698224
1783169552015067600,4.987067626953125,-0.022381927677989005,0.018028440609644165,-0.009500497992913005
1783169552025137400,4.997137451171875,-0.010861001232266425,0.01311797267908696,0.001031605786771979
1783169552035206700,5.00720654296875,-0.011760580420494078,0.0001806903291493654,-0.004383545421535382
1783169552045275400,5.017275390625,0.0005102876096963882,0.029103897443343883,0.013397497439943253
1783169552055345400,5.027345458984375,-0.020588614520430565,0.014102220776351168,0.020211095578083767
1783169552065414400,5.037414306640625,-0.017746084570884703,0.006231976025016047,0.01940025411923416
1783169552075483600,5.047483642578125,0.00799041423201561,-0.0004959028913173824,0.006870462299865903
1783169552085553700,5.0575537109375,0.0011053308933973312,0.017847225124109536,0.0022461281091091224
1783169552095622700,5.06762255859375,-0.008770750954747199,0.028172626208909785,-0.0010630089969665276
1783169552105691400,5.07769140625,-0.007574234646558761,0.011104134938912465,0.00833472959108185
1783169552115761400,5.087761474609375,-0.0006909048736095428,0.009526122199581004,-0.0008537478771700989
1783169552125830400,5.097830322265625,-0.007275543960928917,0.01174291233306285,-0.0038629499053116885
1783169552135899600,5.107899658203125,-0.014757424148917198,0.010659802404628134,-0.001094174745143391
1783169552145969700,5.1179697265625,-0.015056699356436729,-0.0028078148291911928,-0.00205126769071212
1783169552156038400,5.128038330078125,-0.004582067093253136,-0.009192168404324911,-0.013263612244452815
1783169552166107400,5.138107421875,-0.021491700839996335,0.017226120383967643,0.003182075518660713
1783169552176177400,5.148177490234375,-0.006678162589669227,0.01654256313317455,0.0034231371408735864
1783169552186246700,5.15824658203125,-0.0027881694138050077,0.014015359910228288,0.0039996332710201385
1783169552196316400,5.16831640625,-0.018351064726710317,0.00018228863119147716,0.015865603444882435
1783169552206385700,5.1783857421875,-0.018352233770489692,0.015519412364205344,-0.0020870125742396338
1783169552216454400,5.188454345703125,-0.007427519652247428,-0.0005016293792054056,-0.0034029277531953993
1783169552226524700,5.198524658203125,-0.008474398356676101,-0.0038479441324248908,0.011536213063111063
1783169552236593400,5.208593505859375,-0.013562076884508133,0.008193512755795381,0.0100915261135553
1783169552246662700,5.21866259765625,-0.00338671982884407,0.001022657578624785,0.011200885869743068
1783169552256732400,5.228732421875,-0.028825112468004226,0.01699207873265259,0.004969971573940711
1783169552266801700,5.2388017578125,-0.010719546934962272,0.01123729633190669,-0.008187873032875359
1783169552276870400,5.248870361328125,-0.006828969237208366,0.020342087846877983,-0.009358799383725271
1783169552286940700,5.258940673828125,-0.022090835776925086,0.014367835742863825,-0.0036157085624174213
1783169552297009400,5.269009521484375,-0.014459902507066726,-0.006811310282931663,0.015489508132997433
1783169552307078700,5.27907861328125,-0.004733458262681961,0.0019275020304368809,0.007059161263890564
1783169552317148400,5.2891484375,-0.022689970713853834,-0.006894613785366527,0.0025597469358122904
1783169552327217700,5.2992177734375,-0.008773673564195632,0.014793125649960711,0.010421269524574745
1783169552337286400,5.309286376953125,-0.026132804644107818,0.009416455846605823,-0.003981639814958907
1783169552347356700,5.319356689453125,-0.011768763726949691,0.009094950540969147,0.0013438489320746158
1783169552357425400,5.32942529296875,-0.005933481702208519,0.005501593090966344,0.016620889066392554
1783169552367494700,5.33949462890625,-0.007132336097955703,0.0060749725321307775,0.008349320947082014
1783169552377564400,5.349564453125,-0.018056465694308278,-0.0035892018646933137,-0.004873318824521265
1783169552387633700,5.359633544921875,-0.016560089656710623,-0.003651640675612725,0.0063897683941235295
1783169552397702400,5.369702392578125,-0.02000233906507492,-0.014976044468814505,0.012638277712120907
1783169552407772400,5.3797724609375,-0.009526537758111953,0.003345638899784535,0.004187652956676902
1783169552417841400,5.38984130859375,-0.0008475567400455475,0.008579808659642004,-0.012406542182323755
1783169552427910700,5.39991064453125,-0.0032417584002017974,0.0028769299760693684,-0.01371726516293129
1783169552437980400,5.40998046875,0.00528816953599453,0.006005071933963335,-0.001455394431593595
1783169552448049700,5.420049560546875,-0.018654431587457655,0.002186116434005089,0.00394645776207908
1783169552458118400,5.430118408203125,-0.01700900246798992,0.01972848142660223,0.007476858094643103
1783169552468188400,5.4401884765625,-0.012669511958956717,0.0035717347066616637,-0.012726527959376108
1783169552478257400,5.45025732421875,-0.02074994256198406,0.0044172547532478346,-0.000923624500806909
1783169552488326700,5.46032666015625,-0.018355156379938124,0.0043493223498808214,0.01637425279498566
1783169552498396700,5.470396728515625,-0.01850479398369789,0.008019147136155515,-0.009561082773463568
1783169552508465400,5.48046533203125,-0.012818565040826797,0.006983579843607731,-0.010606541272363393
1783169552518535700,5.49053564453125,-0.013866028267145156,-0.0011332829128252342,0.018860489253303966
1783169552528604400,5.5006044921875,-0.021197101807594296,0.005643298550019972,-0.001439446802146267
1783169552538673700,5.510673583984375,-0.01910334439873695,0.00909630681441631,-0.0059407996422727585
1783169552548743400,5.520743408203125,-0.02808276966810226,-0.005103583916439674,0.00035367912574438374
1783169552558812700,5.530812744140625,-0.0256891525298357,0.0017802481800084933,0.004795616229099687
1783169552568881400,5.54088134765625,-0.006086626437306404,-0.0008662614405155182,0.009901459459640318
1783169552578951700,5.55095166015625,-0.010277063864469528,0.0046964963863138105,0.005483379297552164
1783169552589020200,5.561020263671875,-0.013868950876593589,0.004811144875083119,0.013397979213844518
1783169552599089200,5.571089111328125,-0.003991115462779998,0.007844324858789331,-0.007631991574139101
1783169552609159200,5.5811591796875,-0.00234451729953289,0.01197545158045832,-0.0024705399906204545
1783169552619228200,5.591228271484375,-0.0012976385951042175,0.004261835862672887,0.0009900339506566523
1783169552629297200,5.601297119140625,-0.006984452059864998,0.008953108084597624,-0.0052551097998977635
1783169552639367200,5.6113671875,0.0009457564175128936,0.016210330937546678,-0.003947646213811822
1783169552649436200,5.621436279296875,-0.013719313272833824,0.00581643119379878,0.005125180401961552
1783169552659505200,5.631505126953125,-0.012821487650275229,-0.013660162397543899,-0.012477222523558883
1783169552669575200,5.6415751953125,-0.004291559714078903,0.0033538496057037262,0.004919865946564823
1783169552679644200,5.65164404296875,-0.006985621103644371,0.007013404159713536,-0.009495650571148144
1783169552689713200,5.661713134765625,-0.009679097971320152,-0.015038145353016443,-0.0027577114851039366
1783169552699783200,5.671783203125,-0.003992284506559371,-0.005801416287757456,0.0018618186663719824
1783169552709852200,5.68185205078125,-0.011024667361378668,0.01028253005745355,-0.008314191409840714
1783169552719921200,5.691921142578125,-0.012519874355196952,0.008507337078475393,0.016019809909194008
1783169552729991200,5.7019912109375,-0.02104921776950359,0.0037670061170123515,0.007360296210000524
1783169552740060200,5.71206005859375,-0.022395956203341484,0.008219866473181172,-0.016638532037648836
1783169552750129200,5.722129150390625,-0.011173135921359061,0.008854017924563959,0.0012699502955132629
1783169552760199200,5.73219921875,-0.008030746242403984,0.002573722945526242,0.009163524548441637
1783169552770268200,5.74226806640625,-0.015811901637911796,0.010359125257888808,0.00860391333772568
1783169552780337200,5.752337158203125,-0.021349662020802497,0.023256756017450243,0.004611814919189782
1783169552790407200,5.7624072265625,-0.0038426469027996062,-0.005398598507372662,-0.0029345122320693917
1783169552800476200,5.77247607421875,-0.008032499808073043,0.008090632336633279,0.010208217004005564
1783169552810545200,5.782545166015625,-0.02434241409599781,0.014351747691165656,0.004232782156480243
1783169552820615200,5.792615234375,-0.015213351222872732,0.010582590716262347,-0.007845525868609548
1783169552830684200,5.80268408203125,-0.01685878034234047,0.012349550156434998,-0.006581592038640519
1783169552840754200,5.812754150390625,-0.011471242085099219,0.0008770979283610358,-0.004085057948593748
1783169552850823200,5.8228232421875,-0.005336684852838516,0.0036709892634768037,-0.002861276890855515
1783169552860892200,5.83289208984375,-0.014615385329723358,-0.0012980815530987456,0.010299459501012461
1783169552870962200,5.842962158203125,-0.01850654754936695,0.007190537125174887,-0.006036623557918937
1783169552881031000,5.853031005859375,-0.0021954642176628112,0.011888060991372913,0.001929828701552469
1783169552891100200,5.86310009765625,-0.00818038384616375,0.00753003931180574,0.00034774371694657017
1783169552901170200,5.873170166015625,-0.012370236751437187,0.0005680091463029385,0.0009650878807122353
1783169552911239200,5.8832392578125,-0.008778934261202812,0.001989648580411449,-0.005897460540756583
1783169552921308200,5.89330810546875,-0.005936404311656951,0.00832982965367846,0.020618605516606475
1783169552931378200,5.903378173828125,-0.009677928927540779,0.010348896124819294,0.012804594739334424
1783169552941447200,5.913447265625,-0.014916998624801635,0.001357282660738565,0.0028099554122833067
1783169552951516200,5.92351611328125,-0.018957213926315306,-0.008067625920381396,0.008546015987894498
1783169552961586200,5.933586181640625,-0.002049333745241165,0.006473319633374922,0.007729073581821285
1783169552971655200,5.9436552734375,-0.01865910776257515,0.014391992936586029,0.00591100615056348
1783169552981724200,5.95372412109375,-0.011924831071496009,0.013056104690325445,0.006030386755021754
1783169552991794200,5.963794189453125,-0.012374328404664993,0.014022520303376949,0.004287039944232674
1783169553001863200,5.97386328125,-0.012374328404664993,0.015644828842161222,0.007741599703254178
1783169553011932200,5.98393212890625,-0.008035422417521476,0.014353460157639346,0.00575416020459379
1783169553022002200,5.994002197265625,-0.010429624077677726,0.001644209843338467,-0.006084324882365763
1783169553032071200,6.0040712890625,0.0064805941909551615,0.00834062504232861,0.00444622397776111
1783169553042140200,6.01414013671875,-0.005191138902306556,0.0022564828230533748,0.010663687420234783
1783169553052210200,6.024210205078125,-0.014918167668581008,-0.008031239432748407,0.009166992863873019
1783169553062279200,6.034279052734375,-0.013123100945353508,0.008199435606505722,0.011136319033819017
1783169553072348200,6.04434814453125,-0.017313538372516632,0.006917063079192303,-0.0008216859382053372
1783169553082418200,6.054418212890625,-0.020904840862751007,0.017217923377780244,0.0009163008525210897
1783169553092487200,6.064487060546875,-0.01387070444226265,0.014116112304385751,0.016232200276060028
1783169553102556200,6.07455615234375,-0.010129179826378822,-0.006668143519153818,0.0032400265257747376
1783169553112626200,6.084626220703125,-0.008932663518190383,-0.0071855230233399195,-0.01048783309640712
1783169553122695200,6.094695068359375,-0.00324643457531929,0.010646262503042816,0.009387009414768544
1783169553132764200,6.10476416015625,-0.011326280656456947,-0.002625722560822032,-0.01067554453809862
1783169553142834200,6.114834228515625,-0.001600420933961868,0.005533166406163945,-0.005487739237194182
1783169553152903200,6.124903076171875,-0.00803483789563179,0.0017768552131019531,-0.010604002255405066
1783169553162973200,6.13497314453125,-0.013721066838502884,0.0074781218949006864,-0.008515884569467743
1783169553173042200,6.145042236328125,-0.0013023147702217101,0.01060575696271844,0.0041306552225665654
1783169553183111200,6.155111083984375,-0.015368834045529365,0.011122561078169382,-0.0014041962506074924
1783169553193181000,6.165180908203125,-0.01596738446056843,0.007984527913923374,0.0036962196028558535
1783169553203250200,6.175250244140625,-0.01671615700125694,0.01719277523679193,0.012591441754065453
1783169553213319200,6.185319091796875,-0.003996960681676864,0.013901953530474565,-0.0018105074625986161
1783169553223389200,6.19538916015625,-0.006839490631222724,0.009761542957229538,0.007878342434467049
1783169553233458000,6.2054580078125,0.0013905775755643844,0.00020293869357556103,-0.0002754285410512239
1783169553243527200,6.215527099609375,-0.008783610436320304,0.00495652186225634,0.006547210278426064
1783169553253597200,6.22559716796875,-0.014319617253541946,0.011825444083940238,0.004916117928276071
1783169553263666200,6.235666259765625,-0.01865910776257515,-0.012528148993197827,0.003624415883613983
1783169553273735200,6.245735107421875,-0.026140987950563428,0.00841030644478742,-0.0039288341987761665
1783169553283805200,6.25580517578125,-0.010130348870158195,0.0022182194721652193,-0.0008846350641339085
1783169553293874200,6.265874267578125,-0.0004033201038837433,0.015884793344186618,-0.004055335238832049
1783169553303943200,6.275943115234375,-0.01416997964978218,0.0017076030689058823,0.011155024875933305
1783169553314013200,6.28601318359375,-0.0045937575310468675,-0.0003191626515006646,-0.002035500441066688
1783169553324082200,6.296082275390625,-0.007286649876832961,0.009326393809821457,0.000053900453081587326
1783169553334151200,6.306151123046875,-0.01955751790702343,-0.001628861577156931,-0.01707049371412722
1783169553344221200,6.31622119140625,-0.009082301121950149,0.0060181049454724415,-0.003868542820814764
1783169553354290200,6.326290283203125,-0.024495558831095693,0.006432179338810965,0.011475551792391342
1783169553364359200,6.336359130859375,-0.01686345651745796,0.003222597042005509,0.011791973355889785
1783169553374429200,6.34642919921875,-0.006388824254274368,0.0028048739534337072,-0.004690317807276733
1783169553384498200,6.356498291015625,0.009772036951780319,0.01757097459915094,0.018069100271951175
1783169553394567200,6.366567138671875,-0.01656418130993843,0.00005061594238504767,0.010092866403982043
1783169553404637200,6.37663720703125,0.0016910218268632888,-0.0030014468383044004,-0.0014296983013337011
1783169553414706200,6.3867060546875,-0.01416997964978218,0.012484985704906285,0.026470820409839505
1783169553424775200,6.396775146484375,-0.013571429234743117,0.0023286164775025097,-0.003907912425044924
1783169553434845200,6.40684521484375,-0.006538461858034134,0.005083614274067804,-0.006012343066610628
1783169553444914200,6.4169140625,0.0015425532668828963,0.007342658946965821,0.005345089638291392
1783169553454984200,6.426984130859375,-0.009231938725709914,0.005627589524234645,0.0023341568773670588
1783169553465053200,6.43705322265625,-0.007285480833053588,-0.00290512402409222,-0.01961190584222786
1783169553475122200,6.4471220703125,-0.007283727267384529,0.010629845657781698,0.001206127811683109
1783169553485192000,6.45719189453125,-0.01850654754936695,0.0092813719245838,0.005045044962503016
1783169553495261200,6.46726123046875,-0.014615969851613043,0.005034966526483185,0.006092210219654953
1783169553505330200,6.477330078125,-0.002944236758351326,0.014133136504422873,-0.00349897086455021
1783169553515400200,6.487400146484375,-0.014016250392794609,0.009903088586078955,-0.00039866904494119805
1783169553525469200,6.49746923828125,-0.016260814449191092,0.006723111409670673,0.013954284222621936
1783169553535538200,6.5075380859375,-0.007732055556774139,0.014627893184847198,-0.0008979203790368046
1783169553545608000,6.51760791015625,0.005435469052195548,0.011293789459229446,0.001957110575767001
1783169553555677200,6.52767724609375,-0.02000233906507492,0.01778606038824655,0.02075153629744891
1783169553565746200,6.53774609375,-0.01326806237399578,0.0091675408531446,-0.0016731893426505848
1783169553575816200,6.547816162109375,-0.017757775008678436,0.015210574743896721,0.004582943876087665
1783169553585885000,6.557885009765625,-0.019404373171925542,0.00015845566445495932,0.007293616190447937
1783169553595954200,6.5679541015625,-0.008182137411832808,0.0017594702534610405,0.0021032878556055947
1783169553606024200,6.578024169921875,0.00618307254910469,0.010705879169213586,-0.0016161116934381423
1783169553616093400,6.588093505859375,-0.013867781832814216,0.0077962661996716625,-0.0173559516004927
1783169553626162200,6.598162109375,-0.005936988833546638,0.01243427386439871,0.018329312977561494
1783169553636232400,6.608232421875,0.0001958148330450058,0.023968265287671237,0.00016602362462435848
1783169553646301200,6.61830126953125,-0.0026478841602802275,0.006878475501318462,-0.0016932948406960348
1783169553656370200,6.6283701171875,-0.005192892467975616,0.013229451963235623,0.009225405095290625
1783169553666440200,6.638440185546875,-0.008485504272580146,-0.013748489134968258,0.014056099487637402
1783169553676509400,6.648509521484375,0.000793196204304695,-0.007933172186021693,-0.004855111880972981
1783169553686578200,6.658578125,-0.0008539864808320999,-0.005776414277241565,0.010154931897210189
1783169553696648400,6.6686484375,-0.008933832561969756,0.0031241918685613198,0.003720592567353742
1783169553706717200,6.67871728515625,-0.005641220757365227,0.0023237165400991217,-0.005408866456348914
1783169553716786400,6.688786376953125,-0.0045949265748262405,0.005256500322674401,0.009120460583205568
1783169553726856200,6.698856201171875,-0.01207680676281452,-0.008498601216170937,0.00826254570428282
1783169553736925400,6.708925537109375,-0.01551847164928913,0.0011879722421290352,-0.013463584946095942
1783169553746994200,6.718994140625,-0.00908405468761921,0.0046047173164784905,0.013479006277513689
1783169553757064400,6.729064453125,-0.018512977290153502,0.00558337592317257,-0.005247242728917626
1783169553767133200,6.73913330078125,-0.018214286604523656,0.001755241602915339,0.0008775203367578796
1783169553777202400,6.749202392578125,-0.01043430025279522,0.017700227002007886,0.007760193664225516
1783169553787272200,6.759272216796875,-0.021806758138537406,0.0015795927750645205,0.00340300081843161
1783169553797341400,6.769341552734375,-0.002803366982936859,0.011387244462920353,0.000018358782242285086
1783169553807410200,6.77941015625,-0.0038519992530345916,0.00778489085570909,-0.016845924285700312
1783169553817480400,6.78948046875,-0.0011591069072484968,0.004697816127142869,0.0026864306389587
1783169553827549200,6.799549072265625,-0.011484686088562011,0.00851644740011543,-0.0041533876441826574
1783169553837619200,6.809619140625,-0.021361352458596227,0.01313502427858766,-0.003570441223651869
1783169553847688200,6.819688232421875,-0.007743161472678184,0.02281204902383033,-0.014893570941797224
1783169553857757400,6.82975732421875,-0.004601356315612793,0.006161440672609023,0.002125495120836422
1783169553867827200,6.8398271484375,-0.017620412364602087,0.0015945574487559496,-0.015198006381624144
1783169553877896200,6.849896240234375,-0.0022077391773462295,0.01312310551193077,0.005971022392244776
1783169553887965200,6.859965087890625,-0.028095629149675366,0.013896112878154962,-0.0018358234253013504
1783169553898035200,6.87003515625,0.001233341187238693,0.01757665542126633,-0.00803989766323939
1783169553908104200,6.880104248046875,-0.000862169787287712,0.005857904848502948,0.015621416000532917
1783169553918173400,6.89017333984375,-0.014629413855075836,0.0035313067981507626,-0.011623428980616154
1783169553928243200,6.9002431640625,-0.009243629163503646,0.018842332542105576,0.004981679136399179
1783169553938312200,6.910312255859375,-0.0038578444719314575,0.014820255685481242,0.005606602676777402
1783169553948381200,6.920381103515625,-0.018072832307219504,0.01713410385211464,0.0064643497339857275
1783169553958451200,6.930451171875,-0.002511106038093567,-0.0011980278452625498,0.002056481580302352
1783169553968520200,6.940520263671875,-0.0167266783952713,-0.004946534757781774,0.005816435760376043
1783169553978589200,6.950589111328125,-0.014333645778894424,0.008794748318265192,-0.005064354734460357
1783169553988659500,6.960659423828125,-0.012239888370037078,0.02811892326029483,0.0030748648426088035
1783169553998728200,6.970728271484375,-0.00939677389860153,0.016305923099396748,0.008875639526260783
1783169554008797200,6.980797119140625,-0.020021628287434576,0.002339937022537924,0.004658738783857552
1783169554018867200,6.9908671875,-0.005956278055906296,0.015250180668500252,0.0065058667711738955
1783169554028936400,7.0009365234375,-0.004459317496418953,0.01982174463404808,0.011019749157666228
1783169554039005200,7.011005126953125,-0.02136836672127247,-0.005602907174127176,0.006531702182040316
1783169554049075500,7.021075439453125,-0.01807692396044731,-0.004545539041724987,0.016284333463740766
1783169554059144200,7.031144287109375,-0.014935118803381919,-0.00227709178624209,0.014856942425569286
1783169554069213400,7.04121337890625,-0.028701778349280355,-0.004498672259273007,0.027384165545227004
1783169554079283200,7.051283203125,-0.02166881097257137,0.0013372673525940625,0.005358070134161971
1783169554089352400,7.0613525390625,-0.027205986833572386,0.0009688176326919346,0.0026778774397447705
1783169554099421200,7.071421142578125,-0.016133388677239416,-0.001676276348880492,0.0020108603317989036
1783169554109491500,7.081491455078125,-0.016284195324778556,0.012072747075627558,0.0013872942065121605
1783169554119560200,7.091560302734375,-0.016284195324778556,0.016116021983907557,0.005470341719465795
1783169554129629400,7.10162939453125,-0.02077273891568184,0.0030408883661264554,-0.0034942878395668227
1783169554139699200,7.11169921875,-0.010746434941887855,0.0026376641603652385,0.008381000435200984
1783169554149768400,7.1217685546875,-0.010147884526848793,0.01419257964065764,0.014838764023128895
1783169554159837200,7.131837158203125,0.00032733225822448726,-0.00631279074284248,0.0022706563372339584
1783169554169907500,7.141907470703125,-0.001169043779373169,0.012673521413793786,0.003990649671899154
1783169554179976200,7.15197607421875,-0.015085340929031372,-0.006012451522820629,-0.011254378755803918
1783169554190045400,7.16204541015625,-0.016284195324778556,-0.005800502972304821,-0.0018349135347816626
1783169554200115200,7.172115234375,-0.005960369709134101,0.007066591085097752,0.014516937915439483
1783169554210184400,7.182184326171875,-0.005212181690335273,0.009591017829068004,0.014377428980049444
1783169554220254200,7.192254150390625,-0.02152209597826004,0.018665071712480857,-0.0058127471075917125
1783169554230323200,7.2023232421875,-0.027208909443020818,-0.0031086015737848355,0.0015217296745628117
1783169554240392200,7.21239208984375,-0.001322188514471054,-0.010054744616989046,0.018418824741785647
1783169554250462200,7.222462158203125,-0.018979425758123395,-0.004416661098203621,-0.0032474038313433993
1783169554260531200,7.23253125,-0.006710311293601989,0.0008652659266721456,-0.0002630337087146472
1783169554270600200,7.24260009765625,-0.008804653224349021,0.008671532930550166,0.010015106726344675
1783169554280670200,7.252670166015625,-0.0026689269483089447,0.0024453838581219313,0.02106975823403336
1783169554290739200,7.2627392578125,-0.003865443256497383,-0.006267330466187559,0.007242163422779412
1783169554300808200,7.27280810546875,-0.005810147583484649,0.0038496520323213186,-0.0015373553603130858
1783169554310878200,7.282878173828125,-0.010448913300037383,0.006390185094298794,0.0007271577888575848
1783169554320947200,7.292947265625,-0.011496376526355743,0.01101341074842494,-0.0020199329791765193
1783169554331016200,7.30301611328125,-0.01748129615485668,0.002156483914144337,0.010290321779908844
1783169554341086500,7.31308642578125,-0.02286883441209793,-0.0010623502681963144,-0.00670877464035293
1783169554351155200,7.3231552734375,-0.013141221123933792,0.0007248208429431542,0.004631019659870071
1783169554361224200,7.33322412109375,-0.0073047700554132455,0.000011914200079627335,0.014234751981683075
1783169554371294200,7.343294189453125,-0.012990414476394653,0.007196624372666701,0.01588687456177431
1783169554381363500,7.353363525390625,-0.02241875255703926,0.000728643068112433,0.0035268224192783236
1783169554391432200,7.36343212890625,-0.0025169512569904328,0.0003141439830884337,-0.006019954409264027
1783169554401502500,7.37350244140625,-0.012840776872634886,-0.0003984292996348813,-0.006541304552380461
1783169554411571200,7.3835712890625,0.002422258710861206,0.0015475080032134427,0.013705667198327137
1783169554421640400,7.393640380859375,-0.018975918626785278,0.0003334971375297755,0.01924651572909206
1783169554431710200,7.403710205078125,-0.023314824613928795,0.016461351123126224,0.008978575885994359
1783169554441779500,7.413779541015625,0.000029226094484329223,-0.0002519882999593392,-0.007363503088883589
1783169554451848200,7.42384814453125,-0.005207505515217781,0.0010884071580599993,-0.009942999329714802
1783169554461918500,7.43391845703125,-0.004158873245120048,0.009894160927529446,0.003367550479137571
1783169554471987200,7.4439873046875,-0.014634090030193328,-0.0037359442584682253,0.008036906555132008
1783169554482056400,7.454056396484375,-0.022114801174402236,-0.0011044541105628013,0.015143831933906766
1783169554492126200,7.464126220703125,-0.015978490376472473,0.013743150806147604,-0.006520589416270377
1783169554502195500,7.474195556640625,-0.022859482061862946,-0.0102261602277169,0.010138257040333701
1783169554512264200,7.48426416015625,-0.01687397791147232,0.008486116193933411,0.0010409821115375962
1783169554522334500,7.49433447265625,-0.024055998370051384,-0.006187629993213341,0.00821159640175756
1783169554532403200,7.5044033203125,-0.013431728503108024,-0.007368756936024874,0.008576597214181674
1783169554542472400,7.514472412109375,-0.008344049975275993,-0.007982386189186945,-0.005927707265259232
1783169554552542200,7.524542236328125,-0.002360299390554428,0.012612735703843645,-0.0014255644072662106
1783169554562611500,7.534611572265625,-0.00879471635222435,-0.0033815093641867858,-0.001136577698320616
1783169554572681200,7.54468115234375,-0.0203168118417263,-0.001919227392436005,0.020618473085865844
1783169554582750200,7.554750244140625,-0.008345803540945053,-0.006828320783236995,0.006046482798230135
1783169554592819200,7.564819091796875,-0.01672492482960224,0.0054650011073565105,-0.0058669226969534066
1783169554602889200,7.57488916015625,-0.00026478841602802275,0.0035821647691307587,0.015245414303481811
1783169554612958500,7.58495849609375,-0.01747252832651138,0.004517185163497924,-0.006122784596076234
1783169554623027200,7.595027099609375,-0.01283317808806896,0.008101162863802164,-0.0025029992218071127
1783169554633097500,7.605097412109375,0.0018313070803880691,-0.008272555641643703,0.008701844728778814
1783169554643166200,7.615166259765625,-0.005800210711359977,0.011161376984906383,-0.0046429795257223305
1783169554653235500,7.6252353515625,-0.0004132569760084152,0.0038565521305659782,0.0021822439764859155
1783169554663305200,7.63530517578125,-0.00026420389413833614,0.005324592556245625,0.019824792824371253
1783169554673374500,7.64537451171875,-0.018370353949069974,0.014571349825174548,0.004163588236144278
1783169554683443200,7.655443115234375,-0.02720014161467552,-0.002202889472292736,0.006388182650168892
1783169554693513500,7.665513427734375,-0.008795300874114035,0.008880992696457542,0.019418109436333177
1783169554703582200,7.675582275390625,-0.006550736817717551,0.005477454163553193,0.02657146320614265
1783169554713651500,7.6856513671875,-0.014781389546394347,0.006848724250448867,-0.007180425581469899
1783169554723721200,7.69572119140625,-0.01208908172249794,0.01400503944561351,-0.007420302176882978
1783169554733790500,7.70579052734375,-0.011342062747478484,0.000414700014423579,-0.011153578412585193
1783169554743859200,7.715859130859375,-0.004907061263918876,0.0018521809050580486,0.011711426924477563
1783169554753929500,7.725929443359375,-0.010893734458088875,0.015010289231711067,-0.0025387178475153632
1783169554763998200,7.735998291015625,-0.004758008182048797,0.02734660544723738,-0.012425830263039096
1783169554774067500,7.7460673828125,-0.0013163432955741882,0.0071466797171393405,-0.004911960059677949
1783169554784137200,7.75613720703125,-0.0038607670813798904,0.0003500464135315269,0.010842369597032666
1783169554794206500,7.76620654296875,0.007212415596842765,0.004803399960044771,0.004181162708741613
1783169554804275200,7.776275146484375,-0.013738017973303793,0.005173726543202065,0.014895358756795757
1783169554814345500,7.786345458984375,-0.017329904985427854,-0.006174715712713078,0.00671425795800169
1783169554824414200,7.796414306640625,-0.020023381853103636,-0.006327545353979803,-0.005139728375477716
1783169554834483500,7.8064833984375,-0.017778233274817465,0.013627598135080188,-0.00023896670489339156
1783169554844553200,7.81655322265625,-0.014635843595862388,-0.002756253605312668,0.0035856593423814046
1783169554854622500,7.82662255859375,-0.008649754923582076,0.00507828964497894,0.00860796046682517
1783169554864691200,7.836691162109375,-0.00042027123868465424,0.001685021344339475,0.013173672363610238
1783169554874761200,7.84676123046875,-0.01972176855802536,0.0017710099942050872,-0.0077807523950643364
1783169554884830200,7.856830322265625,-0.009845686709880829,-0.0006567651419900357,-0.001999750990961911
1783169554894899500,7.8668994140625,-0.022265607821941376,0.004297829624661244,-0.005338417868909892
1783169554904969200,7.87696923828125,-0.023762568381428716,-0.005975991969951428,-0.0005221127615193836
1783169554915038500,7.88703857421875,-0.019423077872395514,0.00017066669205669313,-0.0025657302936713676
1783169554925107200,7.897107177734375,-0.022415829947590827,0.010370934426691382,0.018348622749518834
1783169554935177200,7.90717724609375,-0.0071522098422050475,0.00160492357914336,0.011476161430455977
1783169554945246200,7.91724609375,-0.012988660910725593,0.00811215461527463,-0.0038954319693846624
1783169554955315500,7.9273154296875,-0.0019160627543926237,-0.007947844598768279,0.007975475816143444
1783169554965385500,7.937385498046875,0.004517769685387611,0.00022773977469187228,-0.0023478725921770092
1783169554975454200,7.9474541015625,-0.01957271547615528,0.010943592348648234,-0.0029906126337475142
1783169554985523200,7.957523193359375,-0.0074526540935039515,0.0068803066988009955,0.010262971407035365
1783169554995593200,7.96759326171875,-0.019421908828616143,0.005663446288905106,0.0033918675030639857
1783169555005662200,7.977662109375,-0.010892565414309502,-0.0082652765174862,0.013138072468910831
1783169555015732200,7.987732177734375,-0.026155016475915907,-0.006117624363768845,0.009083703061169944
1783169555025801500,7.997801513671875,-0.009845102187991141,0.017297587318136357,0.017572693915490524
1783169555035870200,8.0078701171875,-0.022864742758870123,0.009820529435737989,0.006981444968737195
1783169555045940500,8.0179404296875,-0.027952421286702153,0.003172259660833515,0.004664937912492314
1783169555056009200,8.02800927734375,-0.020769816306233403,0.009590415040869266,0.0188120333019644
1783169555066078500,8.038078369140624,-0.012539748099446297,0.014117039319570176,0.019987554771185384
1783169555076148200,8.048148193359374,-0.01598258202970028,0.004120020805764943,0.001945139293471584
1783169555086217500,8.058217529296876,-0.008801146093010902,-0.007427747981110587,-0.000019733321998501195
1783169555096286200,8.0682861328125,-0.01643091031908989,-0.012656931038596667,-0.0008346447428339161
1783169555106356500,8.0783564453125,-0.005059036955237389,0.008550404468644409,0.004567531677824445
1783169555116425200,8.08842529296875,-0.022866496324539184,0.0005643284850288182,0.0027961997399223036
1783169555126494500,8.098494384765624,-0.011494622960686682,-0.01448339754708577,0.012769411544810282
1783169555136564200,8.108564208984374,-0.01822773060798645,0.000689900226611644,0.014562157305143772
1783169555146633500,8.118633544921876,-0.014486790513992308,0.00815183360511437,-0.009142255714838392
1783169555156702200,8.1287021484375,-0.01718026738166809,0.004164691064553335,0.003695579140394693
1783169555166772500,8.1387724609375,-0.00969838719367981,0.0068838686290662735,-0.009667745460243895
1783169555176841200,8.14884130859375,-0.00969838719367981,0.002875815731217153,0.004841242044180399
1783169555186910500,8.158910400390624,-0.02526128250658512,0.012526568957464769,-0.0009678997506620361
1783169555196980200,8.168980224609374,-0.012692308312654494,0.013953939446038566,-0.003326580289576668
1783169555207049500,8.179049560546876,-0.0004214402824640274,0.013960675147501751,0.011017590308265062
1783169555217118200,8.1891181640625,-0.005059621477127075,0.009963536369311623,-0.012529829493630677
1783169555227188200,8.199188232421875,-0.016730770048499106,-0.0024996439291629937,0.011767938318109373
1783169555237257200,8.20925732421875,0.0015256021320819854,0.014622047965950331,0.012920453371078474
1783169555247326500,8.219326416015624,-0.00041910219490528107,0.0039225757046369835,0.004565542933426332
1783169555257396200,8.229396240234376,-0.023164017966389654,0.011933913993672466,0.004821084030496422
1783169555267465500,8.239465576171876,-0.011641922476887702,-0.004548589515336789,-0.0008753375128260813
1783169555277534200,8.2495341796875,-0.03304068433642387,-0.012522915695654228,0.025463718876661733
1783169555287604200,8.259604248046875,-0.005657002848386764,0.0007796517361421138,0.009962408424727618
1783169555297673200,8.269673095703125,-0.008351648759841918,0.005758956252364442,0.015289160972018725
1783169555307742500,8.279742431640624,-0.004160626810789108,0.00345716384970583,-0.0020773120224883315
1783169555317812200,8.289812255859376,-0.008500701841711998,0.013172278415900655,0.0029213924555922858
1783169555327881200,8.299881103515625,-0.016880407652258872,-0.0061255839079385616,0.012092097946780267
1783169555337950200,8.3099501953125,-0.007753098344802856,-0.0018118351949378848,0.0026519153063592964
1783169555348020200,8.320020263671875,0.0009270517170429229,0.0018898643006337805,0.01325730009303079
1783169555358089200,8.330089111328125,-0.015382862570881842,0.015734173926315268,0.01524959728825488
1783169555368158500,8.340158447265624,-0.012839607828855513,-0.003012488822126761,0.014439850666304118
1783169555378228500,8.350228515625,-0.015384616136550903,0.006145567250042222,0.008586649392382241
1783169555388297200,8.360297119140625,-0.007004910326004028,0.015097451491933315,-0.003947344819712453
1783169555398366200,8.3703662109375,-0.011492284873127936,0.008716066192020661,0.014879317512514534
1783169555408436200,8.380436279296875,-0.0053571431189775465,0.009505481270351446,0.03061213288209401
1783169555418505500,8.39050537109375,0.00601531476676464,-0.001840289537864737,0.01260485721642035
1783169555428574200,8.40057421875,0.0022755437165498734,0.017599675537250004,0.019278207775298505
1783169555438644500,8.41064453125,-0.005207505515217781,-0.0021368110992945727,0.016028114229947096
1783169555448713200,8.420713134765625,-0.01014496191740036,0.0053766972028184675,-0.0031084565849567296
1783169555458782500,8.430782470703125,-0.0071522098422050475,0.006715361928055063,0.0035388222426816353
1783169555468852200,8.440852294921875,-0.010295768564939498,-0.0028707011646823956,0.008920203612127807
1783169555478921500,8.45092138671875,-0.00027004911303520204,0.0189730142836459,0.01929734858389711
1783169555488990200,8.460990234375,-0.011791560080647467,-0.0002505635278532281,0.0036432164822064804
1783169555499060500,8.471060546875,-0.0059556935340166085,-0.008519703369704075,-0.0068277705106767825
1783169555509129200,8.481129150390625,-0.026007132437825202,-0.0023795475137187165,0.016163786098791752
1783169555519199500,8.491199462890625,-0.01104337206184864,0.010142039307951926,0.005488643419492291
1783169555529268200,8.501268310546875,-0.017776479709148404,-0.004231541189108975,0.0012776883606857154
1783169555539337500,8.51133740234375,-0.018973580539226532,0.00912722710906528,0.0036667777375958394
1783169555549407200,8.5214072265625,-0.009696049106121063,-0.0013500583355082198,0.012520755704608744
1783169555559476500,8.5314765625,-0.010594459250569344,0.004689098531147465,-0.001562223798444029
1783169555569545200,8.541545166015625,-0.021817279532551765,0.006300342253223061,0.009845009714801562
1783169555579615200,8.551615234375,-0.01927344026863575,0.01436439254360739,0.013725596883147954
1783169555589684200,8.561684326171875,-0.006853519156575202,0.017218699695914982,0.005721570825955132
1783169555599753000,8.5717529296875,-0.015382862570881842,-0.011060615457594394,0.011341910908784484
1783169555609822700,8.58182275390625,-0.010145546439290045,0.0052769996880088,-0.000018760641041444614
1783169555619892000,8.59189208984375,-0.011790975558757782,0.018917060012440198,-0.0019600023608189075
1783169555629960700,8.601960693359375,-0.013137713992595671,0.0029649370530853048,0.016605180040607227
1783169555640031000,8.612031005859375,-0.004609539622068405,-0.007172307348740287,0.009064053079206496
1783169555650099700,8.622099609375,-0.003561491873860359,0.00039539252575486895,0.012475004308653297
1783169555660169000,8.6321689453125,-0.01987199068367481,0.0008776596173644065,0.0026208625809696967
1783169555670238700,8.64223876953125,-0.022266776865720747,-0.0038568443915108215,-0.006426676613208837
1783169555680308000,8.652307861328126,-0.008648001357913018,0.006030124176829122,0.0092113948362472
1783169555690376700,8.662376708984375,-0.011042203018069267,-0.005775067136948928,0.005314525536668952
1783169555700446700,8.67244677734375,-0.01822422347664833,0.0015196336155990139,0.0002788865816837642
1783169555710515700,8.682515625,-0.007595277434587478,0.0049303325416520235,0.010510288098454475
1783169555720585000,8.6925849609375,-0.08565583771467208,0.019623084823368116,-0.04427596224118024
1783169555730654700,8.70265478515625,-0.3278682647973299,0.04694936443520709,-0.09666944482591934
1783169555740724000,8.712723876953126,-0.17508885588049888,0.005039039913401939,0.02398560458153952
1783169555750792700,8.722792724609375,0.48885611461102957,-0.0541410158052342,0.14833777320757507
1783169555760862700,8.73286279296875,0.8444868310809135,-0.08595744187659583,0.17352379852086305
1783169555770931700,8.742931640625,-0.6697071872800588,0.039402890011831185,-0.09754739670422859
1783169555781001000,8.7530009765625,-0.23547522778213023,0.03864202060797252,-0.11479551429087295
1783169555791071000,8.763071044921874,0.2432055297732353,0.012610306284739635,0.04435873145407531
1783169555801139700,8.7731396484375,-0.27947920468151566,0.0560807060303865,-0.07180180127942003
