time,seconds_elapsed,z,y,x
1783169547091161000,0.0631611328125,-0.00006265414413064718,-0.0035716183483600616,-0.00018709409050643444
1783169547101230800,0.07323095703125,-0.0018682773225009441,0.002417298499494791,0.0008041344117373228
1783169547111300000,0.083300048828125,0.00038315908750519156,-0.0002463953569531441,-0.0012731309980154037
1783169547121368800,0.093368896484375,-0.00037078186869621277,-0.00011803023517131805,0.00046191830188035965
1783169547131438800,0.10343896484375,-0.0013361370656639338,-0.0018554748967289925,0.001581417629495263
1783169547141507800,0.1135078125,-0.0001781947212293744,-0.0010693101212382317,0.0016690355259925127
1783169547151577900,0.123577880859375,-0.0009893696988001466,0.0019389870576560497,0.00043095601722598076
1783169547161646800,0.133646728515625,0.00013128842692822218,0.0004944885149598122,-0.0003677261993288994
1783169547171716000,0.143716064453125,-0.0007073848973959684,-0.001128300093114376,0.0024547153152525425
1783169547181785900,0.153785888671875,0.000638843048363924,0.0005668019875884056,-0.0009298962540924549
1783169547191854800,0.163854736328125,0.0017406129045411944,0.002572030294686556,-0.00031075836159288883
1783169547201923800,0.173923828125,-0.0006652867887169123,0.00031739799305796623,0.0027926231268793344
1783169547211993900,0.183993896484375,0.001824461854994297,0.00015627499669790268,0.001902688411064446
1783169547222062800,0.194062744140625,0.0011030115419998765,0.0004516192711889744,0.0003548592794686556
1783169547232131800,0.2041318359375,0.00024412223137915134,-0.0004329504445195198,0.002065986394882202
1783169547242201900,0.214201904296875,0.000787673401646316,0.0010482999496161938,-0.0008568328339606524
1783169547252270800,0.224270751953125,0.0017899259692057967,0.0015561580657958984,0.000008266652002930641
1783169547262339800,0.23433984375,0.0019654282368719578,-0.00014959648251533508,0.0012732683680951595
1783169547272409900,0.244409912109375,-0.001153338816948235,0.001629797276109457,-0.0016134711913764477
1783169547282478800,0.254478759765625,0.001788921537809074,0.0012811892665922642,0.0007620686665177345
1783169547292547800,0.2645478515625,0.000047802808694541454,-0.0012112483382225037,0.00232406472787261
1783169547302617900,0.274617919921875,-0.0035016583278775215,-0.0010448014363646507,-0.001967619638890028
1783169547312686800,0.284686767578125,-0.00029371120035648346,0.0001525399275124073,-0.003195561934262514
1783169547322755800,0.294755859375,-0.0012700259685516357,0.00016052927821874619,0.0010742840822786093
1783169547332825900,0.304825927734375,0.0004293941310606897,0.001733671873807907,0.0014152219519019127
1783169547342894800,0.314894775390625,0.002382023725658655,-0.0009302878752350807,-0.001726242946460843
1783169547352964900,0.32496484375,0.0004928452544845641,-0.0006619933992624283,-0.004034135490655899
1783169547363034000,0.3350341796875,0.0019914060831069946,0.0007963534444570541,0.000959823839366436
1783169547373102800,0.345102783203125,0.0016613721381872892,-0.000379013828933239,0.000505219679325819
1783169547383172900,0.3551728515625,0.0005750686977989972,-0.00125785730779171,0.0007781938184052706
1783169547393241900,0.365241943359375,-0.0018269132124260068,-0.00005185883492231369,0.0005169305950403214
1783169547403311000,0.37531103515625,-0.0022413008846342564,0.0007257843390107155,-0.0006069233641028404
1783169547413380900,0.385380859375,-0.0029675643891096115,0.00020166346803307533,0.001158861443400383
1783169547423450000,0.3954501953125,0.0005118556437082589,-0.0013877106830477715,-0.002134669804945588
1783169547433518800,0.405518798828125,0.001775729120709002,-0.0005807653069496155,0.0016875736182555556
1783169547443588900,0.4155888671875,0.0012183295330032706,0.0003710482269525528,-0.0007715893443673849
1783169547453657900,0.425657958984375,-0.0016394079430028796,0.0014969035983085632,-0.0011425311677157879
1783169547463727000,0.43572705078125,0.0009113677078858018,-0.0007726419717073441,-0.0019747689366340637
1783169547473796900,0.445796875,0.0005568963242694736,0.0005873125046491623,0.0026524008717387915
1783169547483865900,0.455865966796875,0.0005497058155015111,-0.00006782542914152145,-0.0002991806250065565
1783169547493934800,0.465934814453125,-0.0008675247663632035,-0.0011799689382314682,-0.0011677970178425312
1783169547504004900,0.4760048828125,0.0007743141031824052,0.00003816094249486923,0.0002303626388311386
1783169547514073900,0.486073974609375,-0.0002635611454024911,-0.0018846420571208,0.001857380848377943
1783169547524143000,0.49614306640625,0.0013375312555581331,-0.0010707806795835495,-0.0005948580801486969
1783169547534212900,0.506212890625,0.0003812895156443119,-0.000424826517701149,-0.000027038156986236572
1783169547544281900,0.51628173828125,-0.0012195366434752941,0.00017465092241764069,-0.002329873386770487
1783169547554350800,0.526350830078125,-0.0014127225149422884,-0.00041762925684452057,0.0007257293909788132
1783169547564420900,0.5364208984375,-0.00012428523041307926,-0.0009987317025661469,-0.0005081130657345057
1783169547574489900,0.54648974609375,-0.0009413204388692975,-0.00031297747045755386,-0.0002484272699803114
1783169547584556300,0.556556396484375,0.0006834741798229516,-0.00006849970668554306,-0.0009397838730365038
1783169547594625300,0.566625244140625,0.00110623927321285,-0.0004875538870692253,-0.005545130930840969
1783169547604694300,0.5766943359375,0.0030865659937262535,0.002723952289670706,-0.001183139393106103
1783169547614764300,0.586764404296875,-0.0002945541637018323,-0.000012363307178020477,0.002403105841949582
1783169547624833300,0.596833251953125,-0.001516678836196661,0.000585515983402729,0.0006459520664066076
1783169547634902300,0.60690234375,-0.0001830358523875475,-0.00009969156235456467,-0.0012370008043944836
1783169547644972300,0.61697216796875,-0.0013308582128956914,0.0003956565633416176,0.0009217574261128902
1783169547655041300,0.627041259765625,0.0028846673667430878,0.0006030169315636158,-0.0013323510065674782
1783169547665110300,0.6371103515625,0.001081973547115922,0.002927423920482397,-0.001930230762809515
1783169547675180500,0.6471806640625,0.0013824893394485116,0.0007595778442919254,-0.000696839764714241
1783169547685249300,0.657249267578125,0.0006330758333206177,0.0005864724516868591,0.0025921640917658806
1783169547695318300,0.667318359375,-0.0014802644727751613,0.00033881794661283493,0.0013932355213910341
1783169547705388300,0.67738818359375,-0.0005670665996149182,0.000032288022339344025,0.0023663544561713934
1783169547715457500,0.68745751953125,0.0003942911862395704,-0.0008026650175452232,-0.001009868225082755
1783169547725526300,0.6975263671875,0.0001426223898306489,0.0008535552769899368,0.0011100079864263535
1783169547735596500,0.707596435546875,0.002556188963353634,0.0008100681006908417,-0.0001747512724250555
1783169547745665300,0.717665283203125,0.0006701381062157452,0.0013970285654067993,0.0005799885839223862
1783169547755734300,0.727734375,-0.000316216959618032,0.0006864652968943119,-0.0012738769873976707
1783169547765804300,0.73780419921875,-0.003212404903024435,-0.0004834616556763649,0.0016718454426154494
1783169547775873500,0.74787353515625,-0.00010349031072109938,0.0006078882142901421,0.0012168064713478088
1783169547785943300,0.757943359375,-0.0012004462769255042,-0.0001737494021654129,-0.00015578651800751686
1783169547796012300,0.76801220703125,-0.0014933296479284763,0.0001872573047876358,0.0026950701139867306
1783169547806081300,0.778081298828125,0.0021091282833367586,-0.0008183522149920464,0.000723531935364008
1783169547816151300,0.7881513671875,-0.0007225504377856851,-0.00032455287873744965,0.0021292008459568024
1783169547826220300,0.79822021484375,0.0006090301321819425,-0.0005935318768024445,-0.0004189116880297661
1783169547836289300,0.808289306640625,0.0013249069452285767,0.0002277093008160591,-0.003936360590159893
1783169547846359300,0.818359375,0.00018480769358575344,-0.00016990024596452713,0.003043784759938717
1783169547856428300,0.82842822265625,0.002066274406388402,-0.002193000167608261,0.0008734073489904404
1783169547866497300,0.838497314453125,0.0005349568673409522,-0.0014260094612836838,-0.0005125014577060938
1783169547876567300,0.8485673828125,0.000406980630941689,0.0009310333989560604,0.0039393100887537
1783169547886636300,0.85863623046875,0.0008328200783580542,-0.000357137992978096,0.0004625534638762474
1783169547896705300,0.868705322265625,0.0000030902447178959846,-0.00015148334205150604,0.0009746137075126171
1783169547906775300,0.878775390625,-0.0032619449775666,0.00018114503473043442,0.0008720820769667625
1783169547916844300,0.88884423828125,-0.00030549243092536926,-0.002384766936302185,0.0020290075335651636
1783169547926913300,0.898913330078125,0.0015600519254803658,-0.00009258463978767395,-0.0018179286271333694
1783169547936983300,0.9089833984375,-0.0006293202750384808,0.0007947203703224659,-0.0017585777677595615
1783169547947052300,0.91905224609375,-0.00035235146060585976,0.00015449617058038712,-0.001124212983995676
1783169547957121300,0.929121337890625,-0.0003293994814157486,0.0007311049848794937,-0.0030422089621424675
1783169547967191300,0.93919140625,-0.0014617755077779293,0.0007052724249660969,-0.0012243352830410004
1783169547977260300,0.94926025390625,0.00023646384943276644,-0.002553812228143215,-0.00027425726875662804
1783169547987329300,0.959329345703125,-0.00022106710821390152,-0.0009527197107672691,0.001293545588850975
1783169547997399300,0.9693994140625,0.0013074022717773914,0.0003556939773261547,-0.001745038665831089
1783169548007468300,0.97946826171875,0.00028608005959540606,-0.001016899012029171,0.0009743152186274529
1783169548017537300,0.989537353515625,-0.002333469223231077,-0.0008608289062976837,0.0009110006503760815
1783169548027607300,0.999607177734375,-0.002344654407352209,-0.0009593665599822998,0.0016018245369195938
1783169548037676300,1.00967626953125,0.0003046580823138356,0.000791396014392376,-0.0003420165739953518
1783169548047746300,1.019746337890625,0.0016527501866221428,0.0006646295078098774,0.0029488515574485064
1783169548057815300,1.029815185546875,-0.0007266190368682146,0.0001584910787642002,0.0008262780029326677
1783169548067884300,1.03988427734375,0.00033491698559373617,-0.0008391290903091431,0.0017293558921664953
1783169548077954300,1.049954345703125,0.0007083933451212943,0.00022147921845316887,0.001593835186213255
1783169548088023600,1.0600234375,-0.0014532945351675153,0.00045637041330337524,-0.0013084779493510723
1783169548098092300,1.07009228515625,-0.0002788204001262784,0.0006003151647746563,-0.00026935944333672523
1783169548108162300,1.080162353515625,0.00035234878305345774,-0.00015975162386894226,-0.0010115823242813349
1783169548118231300,1.090231201171875,-0.0013107715640217066,0.00009350571781396866,0.0023594708181917667
1783169548128300500,1.100300537109375,-0.001874562818557024,0.000590185634791851,0.0008979279082268476
1783169548138370300,1.110370361328125,-0.0012226008111611009,0.0023485375568270683,-0.0009045451879501343
1783169548148439300,1.120439208984375,0.0021710654255002737,0.0038984972052276134,-0.002304835245013237
1783169548158508300,1.13050830078125,-0.0005385795375332236,-0.0027945544570684433,-0.00012504938058555126
1783169548168578300,1.140578369140625,-0.0007036954630166292,0.0004374580457806587,0.0010454098228365183
1783169548178647300,1.150647216796875,-0.0009990804828703403,-0.0002781348302960396,-0.0005878140218555927
1783169548188716300,1.16071630859375,0.001370333950035274,0.0030739866197109222,0.0006510887760668993
1783169548198786300,1.170786376953125,0.00021169648971408606,-0.0000674854964017868,-0.0021107729990035295
1783169548208855300,1.180855224609375,0.0008865415584295988,0.0007477086037397385,0.001621114555746317
1783169548218924300,1.19092431640625,-0.00014891859609633684,-0.001006772741675377,-0.0017510026227682829
1783169548228994300,1.200994384765625,0.0014172864612191916,0.001453721895813942,-0.0004764136392623186
1783169548239063300,1.211063232421875,-0.0011207668576389551,0.0005571660585701466,-0.0020291635300964117
1783169548249132300,1.22113232421875,-0.0013452712446451187,-0.0011781500652432442,0.0012923311442136765
1783169548259202300,1.231202392578125,0.0016547999111935496,-0.00039291568100452423,-0.0008036228828132153
1783169548269271300,1.241271240234375,-0.001274677226319909,-0.00022833235561847687,0.001750082359649241
1783169548279340300,1.25134033203125,-0.0003182520158588886,-0.00026256125420331955,-0.00029214611276984215
1783169548289410300,1.261410400390625,0.0009083999320864677,0.0005116192623972893,0.0011558143887668848
1783169548299479300,1.271479248046875,-0.0009343251585960388,-0.0006475141271948814,-0.0011378494091331959
1783169548309549300,1.28154931640625,-0.0023465994745492935,-0.0014477940276265144,0.0037277457304298878
1783169548319618300,1.291618408203125,-0.0006363377906382084,-0.0004926519468426704,0.0004899208433926105
1783169548329687300,1.301687255859375,0.0007415817235596478,0.0016352138482034206,0.0030992859974503517
1783169548339757300,1.31175732421875,-0.001480169128626585,-0.0006621675565838814,0.002760056871920824
1783169548349826300,1.321826416015625,-0.0003323466517031193,-0.0005135638639330864,-0.0008711630944162607
1783169548359895300,1.331895263671875,-0.0009811969939619303,-0.0027010776102542877,-0.0005407687276601791
1783169548369965300,1.34196533203125,-0.00039237202145159245,0.0009636986069381237,0.0009785646107047796
1783169548380034300,1.352034423828125,-0.00235577579587698,-0.000968162901699543,-0.001184709370136261
1783169548390103300,1.362103271484375,-0.00045827345456928015,-0.0001239413395524025,0.001441167201846838
1783169548400173300,1.37217333984375,-0.0013295384123921394,-0.0022038649767637253,0.002307482063770294
1783169548410242300,1.3822421875,-0.0002996940165758133,-0.001264568418264389,-0.00110269570723176
1783169548420311300,1.392311279296875,0.0006169861298985779,-0.0009523108601570129,-0.0015514849219471216
1783169548430381300,1.40238134765625,0.0004159174859523773,-0.002871118485927582,-0.0005011342000216246
1783169548440450300,1.4124501953125,-0.0007057050243020058,-0.00039637181907892227,0.001194267300888896
1783169548450519300,1.422519287109375,0.0008599674329161644,0.00033812783658504486,0.0016904142685234547
1783169548460589300,1.43258935546875,0.0010871788254007697,0.00006101606413722038,-0.0014057978987693787
1783169548470658300,1.442658203125,0.0011260609608143568,-0.0008223541080951691,0.002430751919746399
1783169548480727600,1.4527275390625,-0.000396285904571414,0.002133096568286419,-0.001594767440110445
1783169548490797300,1.46279736328125,0.0007470091804862022,0.0011820816434919834,-0.002642455045133829
1783169548500866300,1.4728662109375,-0.0003352781059220433,0.0018698624335229397,0.00008069793693721294
1783169548510935300,1.482935302734375,-0.0010042641079053283,-0.0006217909976840019,-0.0033169628586620092
1783169548521005300,1.49300537109375,-0.0006343185668811202,-0.0006556455045938492,0.0006364504806697369
1783169548531074300,1.50307421875,-0.0019421969773247838,-0.001098528504371643,-0.00043920031748712063
1783169548541143300,1.513143310546875,-0.0010090034920722246,-0.0008707260712981224,-0.0011108042672276497
1783169548551213300,1.52321337890625,-0.00004600454121828079,0.001682979054749012,-0.000043675536289811134
1783169548561282300,1.5332822265625,0.00027858756948262453,0.00015410082414746284,-0.0018606511875987053
1783169548571351300,1.543351318359375,-0.0011368824634701014,0.000614827498793602,0.0003854585811495781
1783169548581421300,1.55342138671875,-0.0008082651766017079,-0.0007637450471520424,-0.001244857907295227
1783169548591490300,1.563490234375,0.0006202544318512082,-0.00008383952081203461,0.0018614530563354492
1783169548601559000,1.57355908203125,-0.0006797206588089466,-0.0011732568964362144,0.0003892621025443077
1783169548611629300,1.58362939453125,0.0013330965302884579,-0.0008914945647120476,0.0011136417742818594
1783169548621698000,1.593697998046875,0.00074406573548913,-0.0023574382066726685,0.0001346913632005453
1783169548631768300,1.603768310546875,0.0004351390525698662,0.0016705929301679134,0.0013805180788040161
1783169548641837000,1.613837158203125,0.0003672962775453925,-0.0014717355370521545,-0.0005474823992699385
1783169548651906300,1.62390625,0.0006397376419045031,0.00004173861816525459,-0.0001237737014889717
1783169548661976000,1.63397607421875,-0.0008766872342675924,0.00023898528888821602,0.0011325054802000523
1783169548672045300,1.64404541015625,0.0016186947468668222,0.0016299542039632797,-0.0029743551276624203
1783169548682114000,1.654114013671875,0.0024660122580826283,-0.001696750521659851,0.000684400787577033
1783169548692184300,1.664184326171875,-0.001899707829579711,0.00047532375901937485,0.002365654334425926
1783169548702253000,1.674253173828125,-0.0012080142041668296,-0.0007357439026236534,-0.0008666906505823135
1783169548712322300,1.684322265625,0.00003594823647290468,0.002958060707896948,0.0005487792659550905
1783169548722392000,1.69439208984375,0.0006319216336123645,-0.001401420682668686,-0.0008791733998805285
1783169548732461300,1.70446142578125,0.0008774650632403791,0.0009277798235416412,-0.0011438915971666574
1783169548742530000,1.714530029296875,0.000050900387577712536,-0.0011623948812484741,0.0012760621029883623
1783169548752600300,1.724600341796875,-0.0011901325779035687,0.0009859772399067879,0.0012262607924640179
1783169548762669000,1.7346689453125,-0.0002646495122462511,-0.00010512210428714752,-0.00087561528198421
1783169548772738300,1.74473828125,-0.0012628021650016308,-0.002984532155096531,0.0008684888016432524
1783169548782808000,1.75480810546875,0.0003205878892913461,0.0005592568777501583,0.003112460020929575
1783169548792877300,1.764877197265625,-0.0016410965472459793,0.0016532833687961102,-0.0012290251906961203
1783169548802946000,1.774946044921875,0.000571028795093298,0.002251170575618744,-0.0005655274726450443
1783169548813016000,1.78501611328125,-0.00047559349332004786,-0.00032437220215797424,-0.000069380272179842
1783169548823085000,1.7950849609375,0.0020675796549767256,-0.00003428943455219269,0.0005922880955040455
1783169548833154300,1.805154296875,-0.00029677466955035925,-0.0033113090321421623,-0.0006817681714892387
1783169548843224000,1.81522412109375,-0.0009002722799777985,-0.000802840106189251,-0.0006842953152954578
1783169548853293000,1.82529296875,0.0006800476112402976,-0.0003698104992508888,0.000020643463358283043
1783169548863362000,1.835362060546875,-0.0003118059830740094,-0.0004930850118398666,0.0009431163780391216
1783169548873432000,1.84543212890625,0.00029805791564285755,-0.0015447670593857765,-0.0010228289756923914
1783169548883501000,1.8555009765625,0.0024351931642740965,-0.0005528507754206657,0.0017009282018989325
1783169548893571000,1.865571044921875,-0.0008841707604005933,0.00053451769053936,-0.0014618420973420143
1783169548903640300,1.875640380859375,-0.0024083026219159365,0.00029491912573575974,-0.000141404801979661
1783169548913709000,1.885708984375,-0.0008721915073692799,-0.0011090990155935287,0.0018064312171190977
1783169548923779300,1.895779296875,0.0008036931976675987,-0.0006647119298577309,-0.0002566997427493334
1783169548933848000,1.90584814453125,0.00019462825730443,0.001763292122632265,-0.0012894738465547562
1783169548943917000,1.9159169921875,-0.002470096806064248,-0.0018327794969081879,0.002948665525764227
1783169548953987000,1.925987060546875,-0.0010101520456373692,-0.0001896088942885399,0.0013923142105340958
1783169548964056300,1.936056396484375,-0.0013666844461113214,-0.0008839806541800499,0.00045633758418262005
1783169548974125000,1.946125,0.0006613127770833671,0.00012748735025525093,-0.0012270465958863497
1783169548984195300,1.9561953125,0.0005044506979174912,-0.0003264080733060837,0.0014559247065335512
1783169548994264000,1.96626416015625,0.0012589242542162538,0.0024832263588905334,-0.00033265422098338604
1783169549004333300,1.976333251953125,0.002643041079863906,0.0002442053519189358,0.000802231952548027
1783169549014403000,1.986403076171875,-0.00042678462341427803,-0.0002351636067032814,0.0011031690519303083
1783169549024472300,1.996472412109375,0.0017581174615770578,-0.001394820399582386,0.0011810800060629845
1783169549034541000,2.006541015625,-0.0022968114353716373,0.00037538306787610054,-0.002649611094966531
1783169549044611300,2.016611328125,-0.0006957367295399308,0.0009540161117911339,0.002009803429245949
1783169549054680000,2.02668017578125,0.00013437052257359028,-0.0016401689499616623,-0.0005937027744948864
1783169549064749300,2.036749267578125,-0.0009695481276139617,0.00019412022083997726,-0.0010946274269372225
1783169549074819000,2.046819091796875,0.0013492662692442536,0.0011126445606350899,-0.0012504223268479109
1783169549084888300,2.056888427734375,-0.00030063639860600233,0.0008219014853239059,-0.0008916943334043026
1783169549094957000,2.06695703125,-0.002504135947674513,0.0001087067648768425,0.0009461529552936554
1783169549105027000,2.077027099609375,0.0001239085104316473,-0.0007581035606563091,0.00094816111959517
1783169549115096000,2.087095947265625,0.00038170255720615387,-0.0022233747877180576,0.0003313729539513588
1783169549125165300,2.097165283203125,0.0011330095585435629,-0.0004242975264787674,-0.002567572519183159
1783169549135235000,2.107235107421875,-0.0003466426860541105,-0.0014962200075387955,-0.0013470458798110485
1783169549145304300,2.11730419921875,0.00198151683434844,-0.0001613907516002655,0.0008970634080469608
1783169549155373000,2.127373046875,0.00258152699097991,0.0017584818415343761,0.0026851098518818617
1783169549165443000,2.137443115234375,-0.0022175442427396774,-0.0017257914878427982,0.0006100710015743971
1783169549175512000,2.147511962890625,-0.0010433564893901348,-0.0010296409018337727,0.0011975641828030348
1783169549185581300,2.157581298828125,-0.0005611233646050096,-0.0010272879153490067,-0.0006417843978852034
1783169549195651000,2.167651123046875,-0.0018844481091946363,-0.00022567622363567352,0.0004953853785991669
1783169549205720000,2.177719970703125,-0.000591856543906033,-0.00006675580516457558,0.0017626818735152483
1783169549215789000,2.1877890625,0.0008595662657171488,0.0008022338151931763,0.0008337711915373802
1783169549225859000,2.197859130859375,0.0005645253695547581,0.0009682043455541134,0.0018620240734890103
1783169549235928000,2.207927978515625,0.0013861105544492602,0.0014499700628221035,0.0012018263805657625
1783169549245998000,2.217998046875,-0.0021352129988372326,-0.004329198505729437,0.0019891452975571156
1783169549256067000,2.228067138671875,-0.001052105682902038,-0.0003818604163825512,0.003831253619864583
1783169549266136000,2.238135986328125,-0.0005636905552819371,0.0018547456711530685,-0.002153231995180249
1783169549276206300,2.248206298828125,0.0005319339688867331,-0.000047017354518175125,-0.0025846639182418585
1783169549286275000,2.258275146484375,-0.0010470227571204305,-0.00011456198990345001,-0.0014216878917068243
1783169549296344000,2.268343994140625,0.0005487434100359678,0.0025177067145705223,-0.0002842519897967577
1783169549306414000,2.2784140625,0.0005746441311202943,-0.0012386776506900787,0.00009016040712594986
1783169549316483300,2.2884833984375,0.00031338806729763746,-0.000879417173564434,-0.0014137264806777239
1783169549326552000,2.298552001953125,-0.0008364522363990545,-0.002440253272652626,0.0008360522333532572
1783169549336622300,2.308622314453125,0.000010433141142129898,-0.0000918777659535408,-0.0010920765344053507
1783169549346691000,2.318691162109375,-0.001539038959890604,0.00029850564897060394,0.004697360098361969
1783169549356760300,2.32876025390625,-0.001392564969137311,0.00005349470302462578,-0.0014633305836468935
1783169549366830000,2.338830078125,-0.0010879829060286283,-0.0007267291657626629,0.0013117305934429169
1783169549376899300,2.3488994140625,-0.0007508269045501947,0.00027035828679800034,0.00015751668252050877
1783169549386968000,2.358968017578125,-0.00017157942056655884,-0.0018216879107058048,-0.0028302972204983234
1783169549397038300,2.369038330078125,0.0016236575320363045,0.0008878116495907307,0.00008719554170966148
1783169549407107000,2.379107177734375,0.0006261750822886825,-0.0013937382027506828,0.003302645171061158
1783169549417176300,2.38917626953125,-0.00014800589997321367,-0.00028932560235261917,0.0005870198365300894
1783169549427246000,2.39924609375,0.001747797359712422,0.0003508557565510273,0.0005659102462232113
1783169549437315300,2.4093154296875,-0.00020270177628844976,-0.0021551791578531265,0.001020511845126748
1783169549447384000,2.419384033203125,0.00039840536192059517,0.0011067050509154797,0.0003360733389854431
1783169549457454000,2.4294541015625,-0.0002237091539427638,0.0008326657116413116,0.00010357936844229698
1783169549467523000,2.439523193359375,-0.0011682702461257577,-0.00018472271040081978,-0.0016237292438745499
1783169549477592300,2.44959228515625,-0.0010662710992619395,0.00005283067002892494,-0.002229598816484213
1783169549487662000,2.459662109375,-0.000742415664717555,-0.00004005013033747673,0.002262743655592203
1783169549497731300,2.4697314453125,0.0026424620300531387,0.0009812717325985432,-0.001949311699718237
1783169549507800000,2.479800048828125,-0.0005260319449007511,-0.00042279018089175224,-0.001308361766859889
1783169549517870000,2.4898701171875,-0.0009742419933900237,0.0015671239234507084,-0.0019094373565167189
1783169549527939000,2.49993896484375,0.0011541040148586035,0.0003669452853500843,-0.0024168018717318773
1783169549538009000,2.510009033203125,0.00021054607350379229,0.0008210139349102974,0.0008226674981415272
1783169549548078000,2.520078125,-0.00036631058901548386,-0.0003738892264664173,0.00024392991326749325
1783169549558147000,2.53014697265625,0.0018491731025278568,-0.00014832010492682457,-0.0023502553813159466
1783169549568217000,2.540217041015625,-0.00026230374351143837,0.00012566335499286652,0.0008566617034375668
1783169549578286000,2.5502861328125,0.002539341803640127,0.0007325978949666023,-0.0030808215960860252
1783169549588355300,2.560355224609375,0.0028189443983137608,0.0016735144890844822,-0.00008565746247768402
1783169549598425000,2.570425048828125,0.001121712033636868,-0.0011630184017121792,-0.0011629064101725817
1783169549608494300,2.580494384765625,0.0003678745124489069,-0.0006341715343296528,0.0005472542252391577
1783169549618563000,2.59056298828125,-0.00041775801219046116,-0.00133857736364007,0.0021885603200644255
1783169549628633300,2.60063330078125,0.0013166730059310794,0.0003247656859457493,-0.0009812081698328257
1783169549638702000,2.6107021484375,0.0008804472163319588,0.0015514176338911057,-0.001692272024229169
1783169549648771300,2.620771240234375,0.0006980123580433428,0.0008086301386356354,0.0006749664898961782
1783169549658841000,2.630841064453125,0.0004418162861838937,-0.0007826089859008789,-0.00023157335817813873
1783169549668910300,2.640910400390625,-0.001987788826227188,-0.0002539316192269325,-0.00008877390064299107
1783169549678979000,2.65097900390625,0.0014396995538845658,0.0007056053727865219,0.0005858046934008598
1783169549689049300,2.66104931640625,0.0007820544997230172,-0.0007985765114426613,-0.0010746316984295845
1783169549699118000,2.6711181640625,-0.0013013363350182772,0.0007447246462106705,-0.0007276218384504318
1783169549709187300,2.681187255859375,-0.0011481461115181446,-0.00009737256914377213,0.00028648553416132927
1783169549719257000,2.691257080078125,0.0015384508296847343,-0.0001479722559452057,0.0009056704584509134
1783169549729326300,2.701326416015625,-0.0009588121902197599,-0.0015050619840621948,0.00047416589222848415
1783169549739395000,2.71139501953125,0.0008934163488447666,0.0020667696371674538,-0.002611638745293021
1783169549749465300,2.72146533203125,-0.001298656570725143,0.0007391008548438549,0.0008444476407021284
1783169549759534000,2.7315341796875,-0.0014200968435034156,-0.0024028965272009373,0.0016564455581828952
1783169549769603300,2.741603271484375,-0.00047654169611632824,-0.00040054926648736,-0.0013316618278622627
1783169549779673000,2.751673095703125,0.002764791715890169,-0.0009883088059723377,0.001782905077561736
1783169549789742300,2.761742431640625,0.00023573089856654406,0.0007878332398831844,-0.00013753585517406464
1783169549799811000,2.77181103515625,0.000625085027422756,0.0008080732077360153,-0.0013298331759870052
1783169549809881000,2.781881103515625,0.00013650080654770136,0.0008107433095574379,-0.001099840272217989
1783169549819950000,2.7919501953125,0.0025945985689759254,-0.0007695769891142845,0.0004487880505621433
1783169549830019300,2.802019287109375,0.0007010083645582199,-0.0005718674510717392,0.0011306381784379482
1783169549840089000,2.812089111328125,-0.0014590815408155322,0.0012545287609100342,-0.0004579373635351658
1783169549850158300,2.822158447265625,0.0008163758320733905,0.0020103035494685173,0.0005432127509266138
1783169549860228400,2.832228271484375,0.0014483439736068249,0.0015833987854421139,-0.0018389848992228508
1783169549870297000,2.842297119140625,-0.001819642260670662,-0.00015804637223482132,-0.0013289398048073053
1783169549880366000,2.852365966796875,-0.0021863593719899654,-0.0033618295565247536,0.0014761679340153933
1783169549890436000,2.86243603515625,0.0009721671813167632,-0.000937215518206358,0.002463066717609763
1783169549900505300,2.87250537109375,-0.00001373502891510725,-0.0000202888622879982,0.000011094380170106888
1783169549910574000,2.882573974609375,0.0006772095803171396,-0.002272116020321846,-0.002176464069634676
1783169549920644400,2.892644287109375,0.0010473888833075762,0.00140357855707407,0.0005191874224692583
1783169549930713000,2.902713134765625,0.0010423435596749187,0.0007416172884404659,-0.0021606984082609415
1783169549940782300,2.9127822265625,-0.000634382595308125,0.0005325591191649437,0.0011565347667783499
1783169549950852000,2.92285205078125,0.0013206901494413614,0.0014386745169758797,0.0004825515206903219
1783169549960921300,2.93292138671875,0.0018453329103067517,-0.0003224741667509079,-0.00034143030643463135
1783169549970990000,2.942989990234375,0.0005079826223663986,0.00029482971876859665,-0.0003139651380479336
1783169549981060400,2.953060302734375,0.0021197276655584574,0.0016852659173309803,0.0003539556637406349
1783169549991129000,2.963129150390625,0.0018308570142835379,0.0008581988513469696,0.001918627880513668
1783169550001198300,2.9731982421875,-0.0002594582038000226,0.0018965653143823147,-0.0022079399786889553
1783169550011268000,2.98326806640625,-0.00028098723851144314,0.0006713694892823696,-0.001515279756858945
1783169550021337300,2.99333740234375,-0.0006061592139303684,-0.0014117551036179066,-0.0006297787185758352
1783169550031406000,3.003406005859375,-0.002760223113000393,-0.002205639611929655,0.001464263303205371
1783169550041476400,3.013476318359375,0.00020547315943986177,-0.00010946625843644142,-0.002107035368680954
1783169550051545000,3.023545166015625,0.0016420228639617562,-0.0008261199109256268,-0.0033822497352957726
1783169550061614300,3.0336142578125,-0.0020184919703751802,0.0005736378952860832,0.0029707211069762707
1783169550071684000,3.04368408203125,-0.0001455346355214715,0.0006174552254378796,-0.0011196047998964787
1783169550081753300,3.05375341796875,0.001126124756410718,0.0011847089044749737,0.0015874984674155712
1783169550091822000,3.063822021484375,-0.00121186429169029,0.0030558458529412746,0.000046327244490385056
1783169550101892400,3.073892333984375,0.0012249280698597431,-0.0004789675585925579,-0.00018217205069959164
1783169550111961000,3.083961181640625,0.000055228592827916145,-0.0014926576986908913,0.00038201408460736275
1783169550122030300,3.0940302734375,0.0007809399976395071,-0.0001347120851278305,0.00004379265010356903
1783169550132100000,3.10410009765625,-0.0016730508068576455,0.0015304400585591793,0.0004963069222867489
1783169550142169300,3.11416943359375,-0.0023217969574034214,-0.0018690847791731358,-0.003325861878693104
1783169550152239000,3.124239013671875,-0.000844542752020061,0.000836679246276617,0.0018439918057993054
1783169550162308000,3.13430810546875,0.0016106253024190664,0.0011796941980719566,-0.0002463231794536114
1783169550172377000,3.144377197265625,-0.0013790364610031247,-0.0007760091684758663,0.0016991833690553904
1783169550182447000,3.154447021484375,-0.00048314896412193775,0.00013186223804950714,0.0016054401639848948
1783169550192516000,3.16451611328125,0.0011126346653327346,-0.000137371476739645,-0.0026916847564280033
1783169550202585300,3.17458544921875,0.00046735070645809174,0.0010309568606317043,-0.002255458850413561
1783169550212655400,3.1846552734375,0.00011919706594198942,-0.0018731006421148777,0.0015014477539807558
1783169550222724000,3.19472412109375,0.00038897525519132614,-0.0010371343232691288,-0.002219254383817315
1783169550232793000,3.20479296875,-0.00010482175275683403,0.002249492798000574,-0.0003968991804867983
1783169550242863000,3.214863037109375,0.00009385007433593273,-0.0010863826610147953,0.000342128099873662
1783169550252932400,3.224932373046875,0.0015045733889564872,-0.00037187663838267326,0.0012250116560608149
1783169550263001000,3.2350009765625,0.0016089694108814,0.0005458486266434193,-0.0016674476210027933
1783169550273071400,3.2450712890625,-0.00006386567838490009,-0.002664052415639162,-0.0037016712594777346
1783169550283140000,3.25514013671875,-0.0024527213536202908,-0.000600635539740324,0.0017628688365221024
1783169550293209300,3.265209228515625,-0.002474354114383459,-0.00017599714919924736,-0.0015872493386268616
1783169550303279000,3.275279052734375,0.00026763672940433025,-0.00048412522301077843,-0.00013928883709013462
1783169550313348400,3.285348388671875,-0.0013865364016965032,0.00035331258550286293,-0.0016467873938381672
1783169550323417000,3.2954169921875,0.0013969994615763426,0.0015280330553650856,0.0004065099637955427
1783169550333487400,3.3054873046875,-0.0013857950689271092,-0.000848179217427969,-0.000014429911971092224
1783169550343556000,3.31555615234375,0.000513305189087987,0.0005137613043189049,-0.001384359784424305
1783169550353625300,3.325625244140625,0.0012415035162121058,0.0006978577002882957,0.00254252552986145
1783169550363695000,3.335695068359375,0.001242036116309464,0.0023687249049544334,0.0015848528128117323
1783169550373764400,3.345764404296875,-0.001322597498074174,0.00022451113909482956,0.00011852220632135868
1783169550383833000,3.3558330078125,0.000012977863661944866,0.0008285157382488251,0.0008144059684127569
1783169550393903400,3.3659033203125,0.0024410556070506573,-0.001145725604146719,-0.00023774756118655205
1783169550403972000,3.37597216796875,0.0010567442514002323,0.0015853457152843475,-0.00028888043016195297
1783169550414041300,3.386041259765625,0.0014884326374158263,0.001368143130093813,-0.002122071571648121
1783169550424111000,3.396111083984375,0.0005374178872443736,-0.0013717170804738998,-0.0014094095677137375
1783169550434180400,3.406180419921875,0.0010965830879285932,-0.0020253118127584457,-0.001702047185972333
1783169550444250000,3.41625,0.0016771522350609303,0.000662350095808506,-0.0011084286961704493
1783169550454319400,3.4263193359375,-0.001324916142039001,0.0005548759363591671,-0.0003336910158395767
1783169550464388000,3.43638818359375,0.00018882460426539183,0.0002962830476462841,-0.0003398158587515354
1783169550474458000,3.4464580078125,-0.0016379911685362458,-0.000026677269488573074,0.002699632663279772
1783169550484527000,3.456527099609375,-0.0003013506066054106,0.001072409562766552,0.0025094826705753803
1783169550494596400,3.466596435546875,0.00028751057107001543,-0.00034590624272823334,-0.003242200007662177
1783169550504666000,3.476666015625,-0.000588669441640377,0.0008325427770614624,0.001972535625100136
1783169550514735000,3.486735107421875,-0.0021682048682123423,0.00159922381862998,0.0004897089675068855
1783169550524804000,3.49680419921875,0.00008323148358613253,0.0001288927160203457,0.0004415055736899376
1783169550534874000,3.5068740234375,-0.002393505070358515,0.0013650525361299515,-0.000014930032193660736
1783169550544943000,3.516943115234375,-0.0003857477568089962,-0.0017140940763056278,-0.0004679339472204447
1783169550555012400,3.527012451171875,0.00008855632040649652,0.00012994231656193733,-0.0012794970534741879
1783169550565082400,3.537082275390625,-0.001858747098594904,-0.00014782510697841644,-0.0015585962682962418
1783169550575151000,3.547151123046875,0.0012893378734588623,-0.0032849088311195374,0.0035345929209142923
1783169550585220000,3.55722021484375,0.0009796122321859002,-0.00025556236505508423,-0.0001426998060196638
1783169550595290000,3.5672900390625,-0.002030497882515192,0.0006790766492486,-0.0003777281381189823
1783169550605359000,3.577359130859375,-0.00008159654680639505,0.0023374268785119057,-0.0032693883404135704
1783169550615428000,3.587427978515625,-0.00017820822540670633,-0.002034548670053482,0.0026868991553783417
1783169550625498000,3.597498046875,-0.000765701406635344,-0.002147999592125416,-0.0008401910308748484
1783169550635567000,3.607567138671875,-0.000298410770483315,0.00028704991564154625,0.000911366194486618
1783169550645636000,3.617635986328125,0.001724260044284165,0.0007411190308630466,0.0010969885624945164
1783169550655706000,3.6277060546875,0.0005302760400809348,-0.0005557169206440449,0.0016117997001856565
1783169550665775000,3.637775146484375,-0.0008569646161049604,0.0005705337971448898,-0.0027549853548407555
1783169550675844000,3.647843994140625,0.0014635480474680662,0.0001073768362402916,0.00010604178532958031
1783169550685914000,3.6579140625,0.0005085385055281222,0.0009665125980973244,0.0003459926228970289
1783169550695983000,3.667983154296875,-0.0009890079963952303,-0.00009377999231219292,-0.0018403339199721813
1783169550706052000,3.678052001953125,0.00022033357527107,0.0018061189912259579,0.0009863453451544046
1783169550716122000,3.6881220703125,0.0007566357962787151,-0.00016381405293941498,0.0013579383958131075
1783169550726191000,3.698191162109375,-0.001939015812240541,0.0015544574707746506,0.00044474052265286446
1783169550736261000,3.70826123046875,-0.00013878836762160063,0.001126340590417385,-0.0005496388766914606
1783169550746330400,3.718330322265625,0.00011234777048230171,0.0017828098498284817,0.000764364842325449
1783169550756399000,3.728399169921875,0.001072881044819951,0.002664044965058565,-0.00043661403469741344
1783169550766469000,3.73846923828125,0.0011389274150133133,0.000018194317817687988,0.00031812582165002823
1783169550776538000,3.7485380859375,-0.00183211883995682,-0.0024000396952033043,0.0030854991637170315
1783169550786607400,3.758607421875,-0.0018821860430762172,-0.002036518417298794,0.0013113012537360191
1783169550796677000,3.768677001953125,0.0013962183147668839,-0.0002132919616997242,0.0000841035507619381
1783169550806746400,3.778746337890625,0.00039992976235225797,0.00018458440899848938,0.0016726790927350521
1783169550816815000,3.788815185546875,0.0005367396515794098,-0.00008344091475009918,0.001578388037160039
1783169550826885000,3.798885009765625,0.00038147735176607966,-0.0001905001699924469,-0.00036731758154928684
1783169550836954000,3.8089541015625,0.0011432808823883533,0.00020257709547877312,-0.001876601716503501
1783169550847023400,3.8190234375,-0.0006895066471770406,0.001532027032226324,0.0023013651371002197
1783169550857093000,3.829093017578125,0.0016628507291898131,0.002728684339672327,0.001284454483538866
1783169550867162000,3.839162109375,-0.0006170815322548151,0.0006958935409784317,-0.002184312790632248
1783169550877231000,3.849231201171875,0.0028578625060617924,-0.0007226881571114063,-0.0005830579902976751
1783169550887301000,3.859301025390625,-0.00037654663901776075,0.00020888587459921837,-0.0015886675100773573
1783169550897370000,3.8693701171875,0.0015249031130224466,-0.00014393450692296028,-0.00030722073279321194
1783169550907439000,3.879439208984375,0.00007880665361881256,0.0005367696285247803,0.004006567876785994
1783169550917509000,3.889509033203125,0.002195746637880802,-0.001838891301304102,0.0023211271036416292
1783169550927578000,3.899578125,0.00025616632774472237,0.0004466329701244831,0.0006827504839748144
1783169550937647000,3.909647216796875,-0.0010480795754119754,-0.000653393566608429,0.0024939836002886295
1783169550947717000,3.919717041015625,0.000732243643142283,0.0007849792018532753,-0.0019052918069064617
1783169550957786000,3.9297861328125,-0.001238396274857223,-0.002307137008756399,-0.001906051766127348
1783169550967855000,3.939855224609375,-0.0024152472615242004,-0.001011508982628584,0.0016250335611402988
1783169550977925000,3.949925048828125,-0.002061209175735712,-0.0019667167216539383,0.0014572623185813427
1783169550987994000,3.959994140625,0.0005846412386745214,-0.0004159584641456604,-0.0001092089805752039
1783169550998063000,3.97006298828125,-0.0006398160476237535,-0.0003857649862766266,-0.0002309097908437252
1783169551008133000,3.980133056640625,-0.0021029566414654255,0.000016372185200452805,-0.000332376454025507
1783169551018202000,3.9902021484375,0.001537228119559586,0.0014482885599136353,-0.00035534496419131756
1783169551028272000,4.000272216796875,-0.0012545636855065823,0.0003004660829901695,0.0018398985266685486
1783169551038341000,4.010341064453125,0.00005598913412541151,-0.0016788337379693985,0.00021720142103731632
1783169551048410000,4.02041015625,-0.0017815920291468501,0.0004929737187922001,0.000014801276847720146
1783169551058480400,4.03048046875,-0.000950116547755897,-0.0002452959306538105,0.0007219910621643066
1783169551068549000,4.040549072265625,0.00042940088314935565,-0.0034421547316014767,0.00016033020801842213
1783169551078618000,4.0506181640625,-0.002386786276474595,0.0006132242269814014,0.00007995800115168095
1783169551088688000,4.060688232421875,-0.00043602066580206156,0.0013509197160601616,-0.0013994278851896524
1783169551098757400,4.07075732421875,0.0005780065548606217,-0.00012319348752498627,-0.0009344762656837702
1783169551108826000,4.080826171875,-0.0004318641731515527,-0.0005458365194499493,-0.001775236101821065
1783169551118896000,4.090896240234375,0.00008180760778486729,0.0006693964824080467,0.0013851404655724764
1783169551128965000,4.100965087890625,0.0012820942793041468,-0.0020126732997596264,0.00391248008236289
1783169551139034400,4.111034423828125,-0.0002903863787651062,-0.0008698883466422558,0.00044487183913588524
1783169551149104000,4.121104248046875,-0.001173224300146103,-0.001537275966256857,0.0001330156810581684
1783169551159173400,4.13117333984375,-0.0011781709035858512,-0.0003387145698070526,-0.002239836845546961
1783169551169242000,4.1412421875,-0.0008633852703496814,-0.0006995731964707375,-0.0014763083308935165
1783169551179312000,4.15131201171875,0.0012793756322935224,0.00024933042004704475,-0.00023007229901850224
1783169551189381000,4.161381103515625,0.000847144634462893,0.002067736815661192,0.0005949749611318111
1783169551199450400,4.171450439453125,0.00034867983777076006,0.0006809053011238575,-0.0018269275315105915
1783169551209520000,4.18152001953125,-0.0005248370580375195,-0.001058405265212059,-0.0014961627312004566
1783169551219589000,4.191589111328125,0.0012496476992964745,0.00045957788825035095,0.001822060439735651
1783169551229658000,4.201658203125,0.0025261007249355316,0.0003948630765080452,-0.0016885183285921812
1783169551239728000,4.21172802734375,0.0010612402111291885,-0.0010980158112943172,0.0006455332040786743
1783169551249797000,4.221797119140625,0.001511847018264234,-0.0014165290631353855,0.0008138448465615511
1783169551259866000,4.2318662109375,-0.002077950630337,-0.0016575241461396217,0.001261367229744792
1783169551269936000,4.24193603515625,0.0012014660751447082,0.0002887141890823841,-0.0003623620141297579
1783169551280005000,4.252005126953125,-0.0006152128335088491,-0.0008867606520652771,-0.0017937105149030685
1783169551290074000,4.26207421875,0.002628517337143421,-0.001163463108241558,0.0007541358936578035
1783169551300144000,4.27214404296875,0.0031598792411386967,-0.0023053251206874847,-0.0005220780149102211
1783169551310213000,4.282213134765625,-0.001256707007996738,-0.0003396458923816681,0.0012238905765116215
1783169551320282000,4.2922822265625,0.0007240177947096527,0.0006661033257842064,0.0006743667181581259
1783169551330352000,4.30235205078125,0.0017458726651966572,0.0015289676375687122,0.001183296786621213
1783169551340421000,4.312421142578125,-0.0013300764840096235,-0.0014208517968654633,0.00045635527931153774
1783169551350491100,4.3224912109375,0.0012167043751105666,-0.00038195308297872543,0.0037733223289251328
1783169551360560000,4.33256005859375,-0.0009387097088620067,-0.00236267177388072,-0.0005911425687372684
1783169551370629000,4.342629150390625,-0.00030940480064600706,0.00011326884850859642,0.00034735514782369137
1783169551380699100,4.35269921875,0.00031977402977645397,-0.002258346416056156,-0.0002551032230257988
1783169551390768000,4.36276806640625,0.0020028918515890837,0.0013355892151594162,-0.001374163432046771
1783169551400837000,4.372837158203125,0.00001848896499723196,-0.0010247905738651752,0.000526726245880127
1783169551410907400,4.382907470703125,-0.0010944460518658161,-0.0010327803902328014,-0.001620314083993435
1783169551420976000,4.39297607421875,0.0022576211486011744,0.0004577767103910446,0.0027694813907146454
1783169551431045000,4.403045166015625,0.002286916133016348,0.0005824128165841103,0.002741784555837512
1783169551441115100,4.413115234375,0.0007590171881020069,-0.003258715383708477,0.0016385067719966173
1783169551451184400,4.423184326171875,0.001277268398553133,0.000995151698589325,0.0010946893598884344
1783169551461253000,4.433253173828125,-0.00003883335739374161,0.00023827701807022095,0.00006683566607534885
1783169551471323100,4.4433232421875,-0.0011067609302699566,0.00008328072726726532,0.0005107845645397902
1783169551481392000,4.45339208984375,0.0008877977961674333,0.0005158758722245693,-0.0015498425345867872
1783169551491461000,4.463461181640625,-0.0002360561629757285,0.001697520725429058,0.0004459300544112921
1783169551501531100,4.47353125,-0.00026180280838161707,0.0007733111269772053,-0.00045054848305881023
1783169551511600000,4.48360009765625,-0.0001675268867984414,-0.001371332909911871,-0.0009427007753401995
1783169551521669000,4.493669189453125,0.002046298235654831,-0.00031542452052235603,-0.0009048669598996639
1783169551531739100,4.5037392578125,-0.0015942431055009365,0.0001431712880730629,0.0004552092868834734
1783169551541808000,4.51380810546875,-0.00048429996240884066,-0.00037091178819537163,-0.0013006515800952911
1783169551551877400,4.52387744140625,0.0007386236102320254,-0.000825247261673212,0.0016352168750017881
1783169551561947100,4.533947021484375,-0.0019439514726400375,-0.0012915381230413914,-0.002301802160218358
1783169551572016000,4.54401611328125,-0.0022030770778656006,-0.0031070145778357983,-0.002127365441992879
1783169551582085000,4.554085205078125,-0.001267777057364583,-0.0013438984751701355,-0.0002598073333501816
1783169551592155400,4.5641552734375,0.000041965628042817116,0.0005930187180638313,-0.000290966359898448
1783169551602224600,4.574224609375,0.001014647539705038,0.0015515470877289772,-0.00006940611638128757
1783169551612294400,4.58429443359375,0.0004175667418166995,-0.0014572925865650177,-0.00016421452164649963
1783169551622363600,4.59436376953125,-0.0005281713092699647,-0.001315769273787737,0.0020414870232343674
1783169551632432400,4.604432373046875,-0.0006677209166809916,-0.00007340405136346817,-0.00015668594278395176
1783169551642502700,4.614502685546875,0.00023959088139235973,0.0006344295106828213,-0.0007277261465787888
1783169551652571400,4.6245712890625,-0.0002520285779610276,-0.000283561646938324,-0.00027445610612630844
1783169551662640600,4.634640625,-0.00020382110960781574,-0.0011941241100430489,0.00024050893262028694
1783169551672710400,4.64471044921875,0.000711773638613522,0.0007933932356536388,0.0004029618576169014
1783169551682779600,4.654779541015625,-0.00021671934518963099,-0.0017700400203466415,0.001439474057406187
1783169551692848400,4.664848388671875,0.00043442356400191784,0.0003501023165881634,0.000386193860322237
1783169551702918700,4.674918701171875,-0.0030588400550186634,-0.0007592053152620792,0.0008658776059746742
1783169551712987400,4.6849873046875,-0.0013951630098745227,-0.0007189917378127575,0.0008288596291095018
1783169551723056600,4.695056640625,-0.00016451545525342226,-0.00032419804483652115,0.0009369151666760445
1783169551733126700,4.705126708984375,-0.0010042102076113224,0.0034457724541425705,0.0018083014292642474
1783169551743195600,4.715195556640625,-0.002323112916201353,0.001790525857359171,0.00042282557114958763
1783169551753264400,4.725264404296875,-0.00075477734208107,-0.0005112444050610065,-0.0018837382085621357
1783169551763334400,4.73533447265625,0.0000543445348739624,0.0007321047596633434,0.0022806909400969744
1783169551773403600,4.745403564453125,0.0003912343527190387,0.0009888336062431335,-0.0006860706489533186
1783169551783472600,4.75547265625,-0.0019861641339957714,-0.00037313904613256454,0.0030493163503706455
1783169551793542700,4.765542724609375,0.00007751933299005032,-0.0007611624896526337,0.00394946476444602
1783169551803611400,4.775611328125,0.0015361728146672249,0.00020317500457167625,0.00009388290345668793
1783169551813680400,4.785680419921875,-0.00016611977480351925,-0.0009521041065454483,0.0004153265617787838
1783169551823750400,4.79575048828125,-0.0010380373569205403,-0.0013332311064004898,-0.003011006396263838
1783169551833819600,4.805819580078125,0.000011248048394918442,0.0009365808218717575,-0.0010109725408256054
1783169551843888600,4.815888671875,-0.0013809887459501624,0.0003370530903339386,-0.00011273170821368694
1783169551853958700,4.825958740234375,-0.00031359377317130566,-0.00014204951003193855,-0.0013737387489527464
1783169551864027400,4.83602734375,-0.0007575781783089042,0.001758139580488205,-0.00040866085328161716
1783169551874096600,4.8460966796875,0.000373732706066221,0.0004989970475435257,-0.0023903187830001116
1783169551884166400,4.85616650390625,-0.0011985350865870714,0.0007104054093360901,-0.001424828777089715
1783169551894235600,4.866235595703125,-0.0008416716009378433,0.0006377012468874454,0.00009237416088581085
1783169551904305400,4.876305419921875,-0.0014535904629155993,-0.0003050854429602623,0.0005157310515642166
1783169551914374700,4.886374755859375,-0.0011028520530089736,-0.0025954032316803932,-0.000959394033998251
1783169551924443400,4.896443359375,-0.0004673203220590949,0.0013700174167752266,0.00042070052586495876
1783169551934513700,4.906513671875,0.001603287411853671,-0.0030148769728839397,0.0024159408640116453
1783169551944582400,4.91658251953125,-0.0010744916507974267,0.00038937386125326157,0.0020328559912741184
1783169551954651600,4.926651611328125,-0.00019351800438016653,-0.0023582098074257374,-0.004339289851486683
1783169551964721400,4.936721435546875,-0.0007573008770123124,0.0006472733803093433,0.002229157369583845
1783169551974790700,4.946790771484375,-0.0011005824198946357,-0.0035101878456771374,-0.0013290918432176113
1783169551984859400,4.956859375,0.00030909612542018294,-0.0006569074466824532,0.00348566472530365
1783169551994929700,4.9669296875,0.0012768888846039772,0.0014818767085671425,-0.00016659428365528584
1783169552004998400,4.976998291015625,0.00027373654302209616,0.0023830276913940907,0.0006627654656767845
1783169552015067600,4.987067626953125,-0.0005891276523470879,-0.0013219621032476425,0.0008619697764515877
1783169552025137400,4.997137451171875,-0.00010935880709439516,0.00019523408263921738,-0.0012702818494290113
1783169552035206700,5.00720654296875,-0.0003093621926382184,-0.00009531667456030846,-0.001346714561805129
1783169552045275400,5.017275390625,-0.0010201935656368732,0.0014339955523610115,0.0006515344139188528
1783169552055345400,5.027345458984375,0.0006320315296761692,0.0013056308962404728,0.003354110289365053
1783169552065414400,5.037414306640625,0.0008813028107397258,-0.002231200225651264,-0.004083922132849693
1783169552075483600,5.047483642578125,0.0015460278373211622,-0.0023941854014992714,-0.001819435739889741
1783169552085553700,5.0575537109375,-0.00034639646764844656,-0.003418159671127796,-0.0041266437619924545
1783169552095622700,5.06762255859375,-0.0006406757747754455,-0.0023294594138860703,0.0014020786620676517
1783169552105691400,5.07769140625,0.0008403309620916843,0.002358493860810995,-0.001896759495139122
1783169552115761400,5.087761474609375,-0.0014193612150847912,-0.0016727335751056671,-0.000816581305116415
1783169552125830400,5.097830322265625,0.00027690769638866186,-0.0007916223257780075,-0.00005514640361070633
1783169552135899600,5.107899658203125,0.0003085993230342865,0.0009591397829353809,0.000936614815145731
1783169552145969700,5.1179697265625,-0.0011733209248632193,-0.0023616845719516277,0.0014369040727615356
1783169552156038400,5.128038330078125,-0.002281994791701436,-0.002809095662087202,-0.00016365572810173035
1783169552166107400,5.138107421875,-0.0012408572947606444,-0.001180250197649002,-0.00012049567885696888
1783169552176177400,5.148177490234375,0.0013061899226158857,0.0006812992505729198,0.0003639331553131342
1783169552186246700,5.15824658203125,0.0015713160391896963,0.0016828225925564766,-0.001243025530129671
1783169552196316400,5.16831640625,0.002203816780820489,-0.0023116525262594223,-0.0005820291116833687
1783169552206385700,5.1783857421875,0.0003659430076368153,-0.0010130545124411583,0.0021422840654850006
1783169552216454400,5.188454345703125,0.0010112269083037972,-0.002887919545173645,0.0025074034929275513
1783169552226524700,5.198524658203125,0.0005317707546055317,-0.0000660535879433155,-0.0002946730237454176
1783169552236593400,5.208593505859375,-0.000010715215466916561,0.0006916159763932228,-0.0007071967702358961
1783169552246662700,5.21866259765625,-0.0025045452639460564,0.0003215041942894459,0.0010552064049988985
1783169552256732400,5.228732421875,-0.0012896111002191901,0.0015659993514418602,-0.0012452320661395788
1783169552266801700,5.2388017578125,0.0013786493800580502,0.0005197366699576378,-0.0005251637194305658
1783169552276870400,5.248870361328125,-0.0007902290672063828,0.000010007992386817932,-0.00023408024571835995
1783169552286940700,5.258940673828125,-0.001760425278916955,-0.0007125036790966988,0.0005951011553406715
1783169552297009400,5.269009521484375,-0.0013995668850839138,-0.0007322104647755623,-0.0019101344514638186
1783169552307078700,5.27907861328125,0.001539732562378049,-0.002217289060354233,-0.001274599926546216
1783169552317148400,5.2891484375,-0.0012683045351877809,-0.0013533597812056541,0.0006247665733098984
1783169552327217700,5.2992177734375,-0.00019807193893939257,-0.000913543626666069,-0.0009106157813221216
1783169552337286400,5.309286376953125,0.002803310751914978,0.0018007499165832996,-0.00046693324111402035
1783169552347356700,5.319356689453125,-0.00021958921570330858,-0.0008428446017205715,-0.0021402346901595592
1783169552357425400,5.32942529296875,0.002323463326320052,0.00015877000987529755,-0.002472064457833767
1783169552367494700,5.33949462890625,-0.0004732169909402728,-0.0017959242686629295,-9.5367431640625e-7
1783169552377564400,5.349564453125,0.0010463828220963478,0.0016571306623518467,0.00036150263622403145
1783169552387633700,5.359633544921875,-0.0011084657162427902,-0.00036132708191871643,0.0005845315754413605
1783169552397702400,5.369702392578125,-0.0022240637335926294,0.0015329793095588684,-0.00003092479892075062
1783169552407772400,5.3797724609375,0.0018651653081178665,0.0009743613190948963,-0.0025220566894859076
1783169552417841400,5.38984130859375,0.0018481211736798286,-0.0008573606610298157,0.001530475215986371
1783169552427910700,5.39991064453125,0.0013178752269595861,0.0026166182942688465,0.0014987774193286896
1783169552437980400,5.40998046875,0.0007487576804123819,0.0017937016673386097,-0.001787296961992979
1783169552448049700,5.420049560546875,0.001199369435198605,-0.0006268029101192951,-0.0015799840912222862
1783169552458118400,5.430118408203125,-0.0020126691088080406,0.002665663603693247,0.0003824993036687374
1783169552468188400,5.4401884765625,0.0016605466371402144,-0.0009477520361542702,-0.000978429103270173
1783169552478257400,5.45025732421875,-0.0006774425273761153,0.0008405605331063271,-0.002333977958187461
1783169552488326700,5.46032666015625,-0.00019548519048839808,-0.00039014918729662895,0.002290678909048438
1783169552498396700,5.470396728515625,-0.0014314582804217935,0.0005720504559576511,0.002482959069311619
1783169552508465400,5.48046533203125,-0.0028022867627441883,-0.0010949266143143177,-0.0008087174501270056
1783169552518535700,5.49053564453125,-0.0013537936611101031,-0.0005902578122913837,0.00029702717438340187
1783169552528604400,5.5006044921875,0.0009788247989490628,-0.0014926423318684101,0.0004478120245039463
1783169552538673700,5.510673583984375,0.0014411495067179203,0.0002607833594083786,-0.0003657834604382515
1783169552548743400,5.520743408203125,-0.0001037440961226821,-0.0007956232875585556,-0.0011025411076843739
1783169552558812700,5.530812744140625,-0.000054475502111017704,0.0013175951316952705,-0.0006889523938298225
1783169552568881400,5.54088134765625,0.001473195618018508,0.001531639602035284,0.0009205404203385115
1783169552578951700,5.55095166015625,0.0009549445239827037,0.0008208421058952808,-0.0009689724538475275
1783169552589020200,5.561020263671875,0.00021465832833200693,-0.0016850647516548634,0.00117148132994771
1783169552599089200,5.571089111328125,0.00001971493475139141,-0.0010078228078782558,0.002763252705335617
1783169552609159200,5.5811591796875,0.0016459139296784997,0.000710564199835062,-0.00015818211250007153
1783169552619228200,5.591228271484375,-0.001399677130393684,0.00017446978017687798,0.00011638971045613289
1783169552629297200,5.601297119140625,-0.001861926750279963,-0.0010307780466973782,-0.00224582408554852
1783169552639367200,5.6113671875,-0.0019332993542775512,-0.0023037693463265896,-0.0006455306429415941
1783169552649436200,5.621436279296875,0.000581291620619595,0.0004420308396220207,0.0021530105732381344
1783169552659505200,5.631505126953125,0.001566128572449088,0.0006462954916059971,-0.0015951222740113735
1783169552669575200,5.6415751953125,-0.0005117431282997131,-0.001002493780106306,0.0007215659134089947
1783169552679644200,5.65164404296875,-0.0001620701514184475,0.000034541357308626175,-0.0017993825022131205
1783169552689713200,5.661713134765625,-0.0002540884306654334,0.0049009304493665695,0.0010732803493738174
1783169552699783200,5.671783203125,-0.0019294830271974206,-0.0004163370467722416,0.0009691505692899227
1783169552709852200,5.68185205078125,-0.0013439679751172662,-0.00070554343983531,0.00023179431445896626
1783169552719921200,5.691921142578125,-0.0009881696896627545,-0.0013225977309048176,0.0011449921876192093
1783169552729991200,5.7019912109375,-0.00022273673675954342,0.0007291794754564762,-0.0005869872402399778
1783169552740060200,5.71206005859375,0.000305101799312979,-0.0025060283951461315,0.0012623118236660957
1783169552750129200,5.722129150390625,0.0015223512891680002,-0.00230232160538435,0.0003644195385277271
1783169552760199200,5.73219921875,0.0011662866454571486,0.0018788413144648075,-0.0004305338952690363
1783169552770268200,5.74226806640625,-0.002608854789286852,-0.003378885332494974,0.00022175698541104794
1783169552780337200,5.752337158203125,-0.0012623604852706194,-0.00169789744541049,-0.0008416434284299612
1783169552790407200,5.7624072265625,-0.00017652567476034164,-0.00009681284427642822,0.0035690930671989918
1783169552800476200,5.77247607421875,0.0009542525513097644,0.0003809579648077488,-0.00009941123425960541
1783169552810545200,5.782545166015625,0.0009462794405408204,-0.0013661151751875877,0.0020533548668026924
1783169552820615200,5.792615234375,0.0014088705647736788,-0.0022995537146925926,0.0010626588482409716
1783169552830684200,5.80268408203125,0.002107136184349656,0.000285543967038393,0.0015703721437603235
1783169552840754200,5.812754150390625,0.0009151052217930555,0.0009675794281065464,-0.001465631416067481
1783169552850823200,5.8228232421875,-0.0006045456975698471,-0.001125025562942028,-0.00023227394558489323
1783169552860892200,5.83289208984375,-0.0023481170646846294,-0.0015793601050972939,-0.0021276455372571945
1783169552870962200,5.842962158203125,-0.000404528109356761,-0.0014347601681947708,-0.0009309498127549887
1783169552881031000,5.853031005859375,-0.0008697822922840714,0.0008185403421521187,0.0006299286615103483
1783169552891100200,5.86310009765625,-0.0017720720497891307,-0.0027435612864792347,0.0011918165255337954
1783169552901170200,5.873170166015625,0.00046924420166760683,-0.0017912141047418118,0.001148406881839037
1783169552911239200,5.8832392578125,-0.00006887572817504406,0.0019692983478307724,0.00011343206278979778
1783169552921308200,5.89330810546875,0.0028238496743142605,0.00048085767775774,0.001113448990508914
1783169552931378200,5.903378173828125,-0.0025051129050552845,0.0009684148244559765,-0.004405382089316845
1783169552941447200,5.913447265625,-0.0006132031558081508,-0.00018073897808790207,0.0005520919803529978
1783169552951516200,5.92351611328125,-0.00005477189552038908,0.00004097260534763336,0.0003428442869335413
1783169552961586200,5.933586181640625,-0.001075295265763998,0.0018077134154736996,-0.001445201924070716
1783169552971655200,5.9436552734375,0.0019470001570880413,-0.0006372975185513496,0.001953995320945978
1783169552981724200,5.95372412109375,0.000027660047635436058,0.002132656518369913,-0.00022819871082901955
1783169552991794200,5.963794189453125,-0.00001545168925076723,0.0004946067929267883,-0.00119459955021739
1783169553001863200,5.97386328125,-0.00032704148907214403,-0.00005107466131448746,-0.0006728866137564182
1783169553011932200,5.98393212890625,-0.00014890276361256838,0.0023400820791721344,0.00004337215796113014
1783169553022002200,5.994002197265625,-0.0002727396786212921,0.002720913849771023,0.0013339398428797722
1783169553032071200,6.0040712890625,-0.00012836407404392958,0.00004478497430682182,-0.00023429328575730324
1783169553042140200,6.01414013671875,0.0007257116958498955,0.0014442759566009045,-0.0010580087546259165
1783169553052210200,6.024210205078125,-0.0008285321528092027,-0.0007868940010666847,0.0016472686547785997
1783169553062279200,6.034279052734375,0.0025518182665109634,0.0012102103792130947,-0.0017511909827589989
1783169553072348200,6.04434814453125,-0.00013749010395258665,0.0014047762379050255,0.00009660283103585243
1783169553082418200,6.054418212890625,-0.0012727956054732203,0.0015451246872544289,-0.00032337778247892857
1783169553092487200,6.064487060546875,-0.00005118176341056824,0.0004038098268210888,0.002955278381705284
1783169553102556200,6.07455615234375,0.0006119454046711326,-0.0002009943127632141,-0.0021832911297678947
1783169553112626200,6.084626220703125,-0.0025410442613065243,0.0016737072728574276,0.0004835203289985657
1783169553122695200,6.094695068359375,-0.002442507306113839,-0.0007638838142156601,0.0007796639110893011
1783169553132764200,6.10476416015625,-0.0006923808250576258,0.0005356501787900925,-0.0007928393315523863
1783169553142834200,6.114834228515625,0.0013087184634059668,0.00013804063200950623,-0.00046473811380565166
1783169553152903200,6.124903076171875,0.00003491458483040333,0.0013191108591854572,-0.0008200795855373144
1783169553162973200,6.13497314453125,-0.0011190332006663084,-0.001333930529654026,0.00004598032683134079
1783169553173042200,6.145042236328125,-0.003317433875054121,-0.0013870475813746452,0.00042372546158730984
1783169553183111200,6.155111083984375,0.0013590767048299313,-0.00018436461687088013,-0.0003874734975397587
1783169553193181000,6.165180908203125,-0.000777093693614006,-0.0014452440664172173,-0.0001650191843509674
1783169553203250200,6.175250244140625,0.0034245753195136786,-0.0011158110573887825,0.001484809210523963
1783169553213319200,6.185319091796875,-0.0012951656244695187,0.000029989518225193024,0.0021897773258388042
1783169553223389200,6.19538916015625,0.0001224350417032838,-0.0000965106301009655,-0.0010217283852398396
1783169553233458000,6.2054580078125,-0.0010099532082676888,0.0021176887676119804,0.002909003756940365
1783169553243527200,6.215527099609375,0.0038931926246732473,-0.0001798206940293312,0.00040856190025806427
1783169553253597200,6.22559716796875,0.0006155827431939542,0.000671672634780407,0.0007881235796958208
1783169553263666200,6.235666259765625,-0.0034721032716333866,-0.002022114582359791,0.00017213448882102966
1783169553273735200,6.245735107421875,-0.001075969310477376,-0.0020765187218785286,-0.0011808641720563173
1783169553283805200,6.25580517578125,0.0002726553939282894,0.0005914359353482723,0.0005555169191211462
1783169553293874200,6.265874267578125,-0.0003795158118009567,0.0022083031944930553,-0.00022957776673138142
1783169553303943200,6.275943115234375,0.00013074581511318684,-0.001166188158094883,-0.0018924558535218239
1783169553314013200,6.28601318359375,-0.00019843748304992914,-0.00047823600471019745,0.002321007661521435
1783169553324082200,6.296082275390625,-0.000853042583912611,0.0018062237650156021,0.0007489435374736786
1783169553334151200,6.306151123046875,0.0003038649447262287,-0.0013602273538708687,0.000557781895622611
1783169553344221200,6.31622119140625,0.0001917458139359951,0.002097087912261486,0.0015639241319149733
1783169553354290200,6.326290283203125,-0.0007366519421339035,0.00017388537526130676,-0.0002991771325469017
1783169553364359200,6.336359130859375,-0.001158763188868761,-0.0005028238520026207,0.0018547874642536044
1783169553374429200,6.34642919921875,-0.0000660894438624382,-0.0013122470118105412,0.0005074606742709875
1783169553384498200,6.356498291015625,0.0010186161380261183,-0.001322366762906313,-0.0010145355481654406
1783169553394567200,6.366567138671875,0.0010509142884984612,0.0013875490985810757,0.00018526543863117695
1783169553404637200,6.37663720703125,0.0002607543719932437,0.00004691397771239281,0.002107535023242235
1783169553414706200,6.3867060546875,-0.00123315688688308,-0.001317076850682497,0.001525126164779067
1783169553424775200,6.396775146484375,0.001144513371400535,-0.0009053521789610386,0.0019602866377681494
1783169553434845200,6.40684521484375,0.0008727407548576593,-0.00010274071246385574,0.00031065940856933594
1783169553444914200,6.4169140625,-0.0024980222806334496,0.00044081034138798714,0.0004488774575293064
1783169553454984200,6.426984130859375,-0.0008918648818507791,0.00046528642997145653,-0.0007926782127469778
1783169553465053200,6.43705322265625,-0.0011166358599439263,-0.00009930366650223732,0.0011708703823387623
1783169553475122200,6.4471220703125,-0.000915384036488831,-0.0010791686363518238,0.0030315876938402653
1783169553485192000,6.45719189453125,0.0016716106329113245,0.0006686635315418243,0.00003792811185121536
1783169553495261200,6.46726123046875,0.0006124546634964645,0.0005864975973963737,-0.0010838641319423914
1783169553505330200,6.477330078125,-0.0008376365294679999,-0.00109022855758667,0.0031977002508938313
1783169553515400200,6.487400146484375,-0.0006275003543123603,-0.002089656423777342,-0.0006232208106666803
1783169553525469200,6.49746923828125,0.00018476368859410286,-0.00009095342829823494,-0.000025074928998947144
1783169553535538200,6.5075380859375,0.0012058245483785868,-0.001959369517862797,-0.0006093124393373728
1783169553545608000,6.51760791015625,0.0006422995938919485,0.0007448042742908001,-0.0017856305930763483
1783169553555677200,6.52767724609375,0.0006120785837993026,0.0012723556719720364,0.002807775977998972
1783169553565746200,6.53774609375,-0.00006356544326990843,0.001134936697781086,-0.0006298325024545193
1783169553575816200,6.547816162109375,-0.0011228217044845223,0.00020952941849827766,0.0004919031634926796
1783169553585885000,6.557885009765625,0.0015544540947303176,0.0005474849604070187,-0.0017504787538200617
1783169553595954200,6.5679541015625,-0.00038742145989090204,-0.001945578958839178,-0.0011127134785056114
1783169553606024200,6.578024169921875,0.0016339176800101995,0.0006379531696438789,-0.001273835077881813
1783169553616093400,6.588093505859375,0.0015240206848829985,-0.0009354273788630962,0.00045103440061211586
1783169553626162200,6.598162109375,0.000508024706505239,-0.0015503517352044582,0.00030749011784791946
1783169553636232400,6.608232421875,0.0005832082824781537,-0.0016819494776427746,-0.0007102172821760178
1783169553646301200,6.61830126953125,0.0013736344408243895,0.001345532014966011,-0.0016172900795936584
1783169553656370200,6.6283701171875,-0.0019700611010193825,-0.0006962111219763756,-0.003943524323403835
1783169553666440200,6.638440185546875,0.0010640781838446856,-0.00030206330120563507,0.0000565436203032732
1783169553676509400,6.648509521484375,-0.0019805601332336664,-0.0007638861425220966,-0.000870855525135994
1783169553686578200,6.658578125,0.0006791386986151338,-0.0005873185582458973,-0.002035189885646105
1783169553696648400,6.6686484375,0.0001479381462559104,-0.001257813535630703,0.0021147748921066523
1783169553706717200,6.67871728515625,-0.0021330593153834343,-0.0034099137410521507,0.00030089588835835457
1783169553716786400,6.688786376953125,-0.00003513449337333441,-0.0017305104993283749,-0.0005263539496809244
1783169553726856200,6.698856201171875,-0.00010570825543254614,-0.000024755485355854034,0.0005583513993769884
1783169553736925400,6.708925537109375,-0.0010604753624647856,-0.0017026434652507305,-0.0007872579153627157
1783169553746994200,6.718994140625,0.002700973302125931,0.0012691779993474483,-0.003087430028244853
1783169553757064400,6.729064453125,0.0014925271971151233,-0.0022007147781550884,-0.0004697144031524658
1783169553767133200,6.73913330078125,0.0015583073254674673,0.0007580574601888657,-0.0032756212167441845
1783169553777202400,6.749202392578125,0.00027068809140473604,-0.0025062207132577896,0.0012043542228639126
1783169553787272200,6.759272216796875,-0.001957046100869775,-0.0004545208066701889,0.0007548127323389053
1783169553797341400,6.769341552734375,-0.0025333911180496216,-0.0005812374874949455,0.0002875411882996559
1783169553807410200,6.77941015625,-0.0006952774710953236,0.00009280815720558167,-0.002924763597548008
1783169553817480400,6.78948046875,0.0012814776273444295,0.001342171337455511,0.00010079890489578247
1783169553827549200,6.799549072265625,0.00018185842782258987,-0.003405712079256773,0.0006097289733588696
1783169553837619200,6.809619140625,0.0015619092155247927,0.0027507739141583443,-0.00039709126576781273
1783169553847688200,6.819688232421875,0.00269668223336339,0.001451683696359396,0.0005659076850861311
1783169553857757400,6.82975732421875,0.0007985076517798007,-0.0003309706225991249,-0.001905672950670123
1783169553867827200,6.8398271484375,0.001563900150358677,-0.0015214039012789726,0.0002264541108161211
1783169553877896200,6.849896240234375,-0.002129248110577464,0.0014414489269256592,-0.0007865529041737318
1783169553887965200,6.859965087890625,0.0001149976160377264,0.0013181446120142937,0.0005114718805998564
1783169553898035200,6.87003515625,0.0004231431521475315,-0.0021368800662457943,-0.001255989307537675
1783169553908104200,6.880104248046875,0.0012479241704568267,-0.0011810711584985256,-0.0019191161263734102
1783169553918173400,6.89017333984375,-0.0014741088962182403,0.0017514238134026527,-0.0016046976670622826
1783169553928243200,6.9002431640625,0.0021930639632046223,0.0027644899673759937,-0.001225197222083807
1783169553938312200,6.910312255859375,-0.0009344189893454313,-0.0006607561372220516,-0.0006340451072901487
1783169553948381200,6.920381103515625,-0.0021235202439129353,0.0021171867847442627,0.0012299015652388334
1783169553958451200,6.930451171875,-0.0018376795342192054,0.00007681688293814659,0.0006186997052282095
1783169553968520200,6.940520263671875,0.00007473642472177744,-0.0004331781528890133,-0.0004108783323317766
1783169553978589200,6.950589111328125,-0.0015066607156768441,-0.0017488040030002594,-0.0016939726192504168
1783169553988659500,6.960659423828125,0.00016660348046571016,0.00018864590674638748,0.0001939423382282257
1783169553998728200,6.970728271484375,0.0008776196045801044,-0.000030145514756441116,0.0012389619369059801
1783169554008797200,6.980797119140625,0.0024030781351029873,-0.0003499910235404968,0.0007294993847608566
1783169554018867200,6.9908671875,-0.0010373947443440557,-0.0020746858790516853,0.000041467370465397835
1783169554028936400,7.0009365234375,-0.0007321963785216212,-0.0022816136479377747,-0.00008902745321393013
1783169554039005200,7.011005126953125,0.0012987185036763549,0.0021071741357445717,-0.0018502871971577406
1783169554049075500,7.021075439453125,0.00046248588478192687,-0.0007163090631365776,-0.0021296527702361345
1783169554059144200,7.031144287109375,-0.00011037313379347324,-0.002361651510000229,-0.00007887743413448334
1783169554069213400,7.04121337890625,-0.0003191650612279773,-0.001591998152434826,0.0003602779470384121
1783169554079283200,7.051283203125,-0.0006284374976530671,-0.00042404886335134506,-0.0011441530659794807
1783169554089352400,7.0613525390625,-0.0012745202984660864,-0.001285581849515438,0.0007677299436181784
1783169554099421200,7.071421142578125,0.00014556071255356073,-0.0013956660404801369,-0.0007285578176379204
1783169554109491500,7.081491455078125,-0.0011766988318413496,0.0009753461927175522,0.0007111472077667713
1783169554119560200,7.091560302734375,-0.0006772716296836734,-0.0005467240698635578,0.0007253475487232208
1783169554129629400,7.10162939453125,-0.0013246859889477491,0.0009486405178904533,-0.0012280812952667475
1783169554139699200,7.11169921875,-0.001280885306186974,0.0016576163470745087,-0.00002376595512032509
1783169554149768400,7.1217685546875,0.0003678775974549353,0.00018515437841415405,0.001291302964091301
1783169554159837200,7.131837158203125,-0.0007794281700626016,0.0010411711409687996,-0.00041516334749758244
1783169554169907500,7.141907470703125,-0.001310462481342256,0.00034821638837456703,-0.001019434304907918
1783169554179976200,7.15197607421875,0.0008436092175543308,0.000692552886903286,-0.0013169420417398214
1783169554190045400,7.16204541015625,0.00033814128255471587,-0.0006137271411716938,-0.0015960412565618753
1783169554200115200,7.172115234375,0.00037020305171608925,-0.0014468883164227009,-0.000633306335657835
1783169554210184400,7.182184326171875,0.000402427336666733,0.0025542452931404114,-0.0012021572329103947
1783169554220254200,7.192254150390625,-0.001336288987658918,-0.0009914729744195938,-0.0016337188426405191
1783169554230323200,7.2023232421875,-0.0006073819240555167,-0.0015747053548693657,-0.0010717918630689383
1783169554240392200,7.21239208984375,-0.002295036567375064,0.001373243983834982,-0.0011035199277102947
1783169554250462200,7.222462158203125,0.0017162167932838202,-0.0005168011412024498,-0.0016510658897459507
1783169554260531200,7.23253125,0.0007485504611395299,-0.0005341018550097942,-0.0005054713692516088
1783169554270600200,7.24260009765625,0.00010406551882624626,0.0027983118779957294,0.001535575371235609
1783169554280670200,7.252670166015625,-0.0011349113192409277,-0.0012084031477570534,0.00014686351642012596
1783169554290739200,7.2627392578125,-0.0011293187271803617,-0.0006976090371608734,0.0036297456827014685
1783169554300808200,7.27280810546875,-0.0024922206066548824,0.00006091548129916191,-0.00030842749401926994
1783169554310878200,7.282878173828125,0.0010569742880761623,0.0013288464397192001,0.0011808120179921389
1783169554320947200,7.292947265625,0.000023931963369250298,-0.0010555777698755264,0.0007348065264523029
1783169554331016200,7.30301611328125,0.0009507120121270418,0.0005625588819384575,-0.001250846078619361
1783169554341086500,7.31308642578125,-0.0006558524910360575,0.0003318549133837223,0.0019522418733686209
1783169554351155200,7.3231552734375,0.0006408405606634915,-0.00014431821182370186,-0.00030958070419728756
1783169554361224200,7.33322412109375,0.001458469545468688,-0.0017029810696840286,-0.0001277145929634571
1783169554371294200,7.343294189453125,-0.0012153440620750189,-0.0013277418911457062,-0.0019794104155153036
1783169554381363500,7.353363525390625,0.00006878480780869722,0.0016088099218904972,-0.0014419152867048979
1783169554391432200,7.36343212890625,0.0005926286103203893,-0.0011076140217483044,0.0019083411898463964
1783169554401502500,7.37350244140625,0.0011531272903084755,-0.00018934765830636024,0.001489429734647274
1783169554411571200,7.3835712890625,0.0017267721705138683,-0.00002476433292031288,-0.002166291233152151
1783169554421640400,7.393640380859375,-0.001796529395505786,-0.0009746192954480648,0.0007050370331853628
1783169554431710200,7.403710205078125,0.000988071784377098,0.0006315335631370544,0.0009050404187291861
1783169554441779500,7.413779541015625,-0.00016448111273348331,-0.0009400933049619198,-0.0006942139007151127
1783169554451848200,7.42384814453125,-0.0003495707642287016,-0.0009499466978013515,0.0012464318424463272
1783169554461918500,7.43391845703125,-0.0013953328598290682,-0.0012254752218723297,0.00004788837395608425
1783169554471987200,7.4439873046875,-0.00014338083565235138,0.000627818051725626,-0.00029113213531672955
1783169554482056400,7.454056396484375,0.0014127673348411918,0.0014254702255129814,0.0018527733627706766
1783169554492126200,7.464126220703125,0.0013645641738548875,-0.0003537870943546295,0.003705001901835203
1783169554502195500,7.474195556640625,-0.0008396940538659692,0.0006635948084294796,0.0025506047531962395
1783169554512264200,7.48426416015625,-0.00001731002703309059,-0.0018661417998373508,-0.0003876611590385437
1783169554522334500,7.49433447265625,0.0006678283680230379,0.0006821802817285061,0.0019675653893500566
1783169554532403200,7.5044033203125,-0.0011178210843354464,-0.002306153066456318,0.0012860624119639397
1783169554542472400,7.514472412109375,0.0015642670914530754,-0.0007745730690658092,-0.0012101205065846443
1783169554552542200,7.524542236328125,-0.0004243152216076851,0.0021804706193506718,-0.0005440637469291687
1783169554562611500,7.534611572265625,-0.0009327400475740433,-0.0012687272392213345,-0.0008083160500973463
1783169554572681200,7.54468115234375,-0.0004539036890491843,0.0007448890246450901,0.0007056912872940302
1783169554582750200,7.554750244140625,-0.001445298781618476,0.0004612114280462265,-0.0010709709022194147
1783169554592819200,7.564819091796875,0.0010689914925023913,0.0010060938075184822,0.0026161756832152605
1783169554602889200,7.57488916015625,0.0002117814146913588,-0.0020395233295857906,-0.0003955806605517864
1783169554612958500,7.58495849609375,0.001054405584000051,0.0014353692531585693,0.0025307005271315575
1783169554623027200,7.595027099609375,0.0010344595648348331,-0.00018484098836779594,0.000932775205001235
1783169554633097500,7.605097412109375,-0.0002760819625109434,0.0014822972007095814,-0.0028680881951004267
1783169554643166200,7.615166259765625,-0.0014814723981544375,-0.0006469055078923702,0.0005948448088020086
1783169554653235500,7.6252353515625,-0.0015531113604083657,-0.0009936490096151829,0.00029151071794331074
1783169554663305200,7.63530517578125,0.00047274614917114377,-0.0005478477105498314,0.0010421865154057741
1783169554673374500,7.64537451171875,-0.0009717523353174329,0.0004244726151227951,0.002192671876400709
1783169554683443200,7.655443115234375,-0.0015585231594741344,-0.0005844645202159882,-0.0008785489480942488
1783169554693513500,7.665513427734375,-0.001545740058645606,0.00007200473919510841,0.0008873934857547283
1783169554703582200,7.675582275390625,0.00016979745123535395,0.0017095515504479408,0.0006082511972635984
1783169554713651500,7.6856513671875,0.001312293577939272,0.0019412464462220669,-0.002183806849643588
1783169554723721200,7.69572119140625,0.0002623501350171864,-0.0025193272158503532,0.0005855986382812262
1783169554733790500,7.70579052734375,0.0006373232463374734,-0.0013006646186113358,0.0008125000167638063
1783169554743859200,7.715859130859375,-0.001331523060798645,-0.00174750667065382,-0.000034054508432745934
1783169554753929500,7.725929443359375,-0.0009557509329169989,-0.00048330333083868027,-0.00176537549123168
1783169554763998200,7.735998291015625,0.0003391194622963667,0.00020213518291711807,-0.0005103787407279015
1783169554774067500,7.7460673828125,-0.002099270699545741,-0.001341699156910181,0.0001932282466441393
1783169554784137200,7.75613720703125,0.0014425967819988728,0.0006316928192973137,-0.0002126549370586872
1783169554794206500,7.76620654296875,-0.001332683372311294,0.0013163918629288673,-0.00047897128388285637
1783169554804275200,7.776275146484375,-0.0025734486989676952,-0.0020294329151511192,-0.000538636464625597
1783169554814345500,7.786345458984375,-0.002595552708953619,0.002342678140848875,0.002060608472675085
1783169554824414200,7.796414306640625,0.0012388592585921288,-0.001549623440951109,0.00003747246228158474
1783169554834483500,7.8064833984375,-0.001837091869674623,0.000324176624417305,0.00048301927745342255
1783169554844553200,7.81655322265625,-0.0020221471786499023,0.00042556505650281906,0.0015971222892403603
1783169554854622500,7.82662255859375,-0.0004958896897733212,0.002831198275089264,-0.0009038520511239767
1783169554864691200,7.836691162109375,-0.0022775446996092796,0.0018788212910294533,-0.00044712936505675316
1783169554874761200,7.84676123046875,-0.0025878029409796,-0.0011057830415666103,0.00013264082372188568
1783169554884830200,7.856830322265625,-0.0010240687988698483,0.0005774032324552536,-0.0001478970516473055
1783169554894899500,7.8668994140625,0.00030404957942664623,-0.000288922805339098,-0.001193986739963293
1783169554904969200,7.87696923828125,0.0004307568888179958,-0.0012356205843389034,-0.0011359103955328465
1783169554915038500,7.88703857421875,-0.0014765990199521184,-0.00013546831905841827,0.0020151417702436447
1783169554925107200,7.897107177734375,-0.0014666089555248618,-0.001638814341276884,0.0008384184911847115
1783169554935177200,7.90717724609375,-0.0010985602857545018,-0.0008031143806874752,-0.001670811790972948
1783169554945246200,7.91724609375,-0.00044911797158420086,-0.002100917510688305,0.0019104849779978395
1783169554955315500,7.9273154296875,0.002633491065353155,0.0012818295508623123,-0.0009462879970669746
1783169554965385500,7.937385498046875,-0.0003608553670346737,0.000841628760099411,0.0008643323089927435
1783169554975454200,7.9474541015625,0.0003877592389471829,0.0006195208989083767,-0.00028615305200219154
1783169554985523200,7.957523193359375,0.00004091113805770874,-0.00029335543513298035,0.0031169347930699587
1783169554995593200,7.96759326171875,-0.00009730691090226173,0.0004166434518992901,0.00025749881751835346
1783169555005662200,7.977662109375,-0.0010450509143993258,0.000013781245797872543,0.0009145890362560749
1783169555015732200,7.987732177734375,-0.00023118883837014437,-0.00007570115849375725,-0.0022074347361922264
1783169555025801500,7.997801513671875,-0.002307889284566045,-0.0006601177155971527,-0.0009047358762472868
1783169555035870200,8.0078701171875,-0.0014282471965998411,0.00018330523744225502,-0.0015561447944492102
1783169555045940500,8.0179404296875,-0.001448282040655613,0.0017531034536659718,-0.0021341806277632713
1783169555056009200,8.02800927734375,0.00015520735178142786,-0.0013308366760611534,0.0003316404763609171
1783169555066078500,8.038078369140624,-0.0017840248765423894,-0.00036756880581378937,0.0016856747679412365
1783169555076148200,8.048148193359374,-0.00007587322033941746,0.000590902753174305,-0.0028925654478371143
1783169555086217500,8.058217529296876,0.0002653591218404472,0.002238868735730648,-0.0008610228542238474
1783169555096286200,8.0682861328125,0.0013098508352413774,-0.000986219383776188,0.0007608423475176096
1783169555106356500,8.0783564453125,-0.0011014974443241954,-0.0007995357736945152,-0.001640788046643138
1783169555116425200,8.08842529296875,0.0008029290474951267,-0.00033241696655750275,-0.0006990942638367414
1783169555126494500,8.098494384765624,-0.00022093311417847872,0.0007468243129551411,-0.0009179546032100916
1783169555136564200,8.108564208984374,-0.0004510302096605301,0.000758009497076273,0.0013004587963223457
1783169555146633500,8.118633544921876,-0.0006213501328602433,-0.0004489310085773468,-0.0019523324444890022
1783169555156702200,8.1287021484375,-0.0015241617802530527,-0.000518173910677433,0.00019577308557927608
1783169555166772500,8.1387724609375,0.00012582959607243538,0.0016813380643725395,-0.0020531003829091787
1783169555176841200,8.14884130859375,-0.0007950915023684502,-0.0012260349467396736,-0.001199823571369052
1783169555186910500,8.158910400390624,-0.0005141457077115774,0.0003622053191065788,0.00028323871083557606
1783169555196980200,8.168980224609374,-0.0010044337250292301,-0.0016793743707239628,-0.0009535332210361958
1783169555207049500,8.179049560546876,0.0014243893092498183,0.0016827178187668324,0.00008588028140366077
1783169555217118200,8.1891181640625,-0.00044994347263127565,0.00037830136716365814,-0.0011455656494945288
1783169555227188200,8.199188232421875,0.0012496786657720804,0.0008901990950107574,0.0021359396632760763
1783169555237257200,8.20925732421875,-0.0014624844770878553,-0.0017010564915835857,0.00036440487019717693
1783169555247326500,8.219326416015624,-0.000699378433637321,-0.0010230517946183681,0.002962549449875951
1783169555257396200,8.229396240234376,0.0008993170922622085,-0.0012520835734903812,-0.0017549742478877306
1783169555267465500,8.239465576171876,0.00016663968563079834,0.0004797419533133507,-0.001446358859539032
1783169555277534200,8.2495341796875,-0.0005148631753399968,-0.003170653246343136,0.004022442735731602
1783169555287604200,8.259604248046875,0.0012466722400858998,-0.0011662314645946026,-0.0006839814595878124
1783169555297673200,8.269673095703125,-0.001968029420822859,0.0008045076392591,0.0012132544070482254
1783169555307742500,8.279742431640624,-0.0006136037409305573,-0.00047933729365468025,0.0027778716757893562
1783169555317812200,8.289812255859376,0.0002748268307186663,-0.0007256795652210712,-0.0007827747613191605
1783169555327881200,8.299881103515625,0.0020493906922638416,0.00006137043237686157,-0.0000637308694422245
1783169555337950200,8.3099501953125,-0.00021562783513218164,-0.0022609056904911995,0.0010249693877995014
1783169555348020200,8.320020263671875,-0.0022758510895073414,-0.002181262243539095,0.0018959674052894115
1783169555358089200,8.330089111328125,0.0007734681712463498,-0.0012928317300975323,0.001489568967372179
1783169555368158500,8.340158447265624,-0.001405939576216042,-0.0018602232448756695,-0.0005373088642954826
1783169555378228500,8.350228515625,0.0008561494760215282,0.0034850072115659714,-0.0010566255077719688
1783169555388297200,8.360297119140625,0.000857971899677068,-0.0011937790550291538,-0.00034621567465364933
1783169555398366200,8.3703662109375,-0.000177465146407485,-0.0006989636458456516,0.0025108237750828266
1783169555408436200,8.380436279296875,-0.00031474640127271414,-0.00003311503678560257,-0.0018291587475687265
1783169555418505500,8.39050537109375,-0.0011254126438871026,-0.0032957540825009346,0.0015301527455449104
1783169555428574200,8.40057421875,0.0023593585938215256,-0.00017583416774868965,0.00018519512377679348
1783169555438644500,8.41064453125,0.0001518643693998456,0.0017807907424867153,-0.00004783156327903271
1783169555448713200,8.420713134765625,0.0005305713857524097,-0.0006846711039543152,-0.0007747164927423
1783169555458782500,8.430782470703125,0.00011218874715268612,0.0025601242668926716,-0.0003467462956905365
1783169555468852200,8.440852294921875,0.0015653755981475115,-0.00021422002464532852,-0.0014227349311113358
1783169555478921500,8.45092138671875,0.0013272890355437994,0.0013093743473291397,0.0005314925219863653
1783169555488990200,8.460990234375,-0.0015720996307209134,-0.0012449747882783413,-0.00024485494941473007
1783169555499060500,8.471060546875,0.001112633035518229,-0.0008617457933723927,0.0008845916017889977
1783169555509129200,8.481129150390625,-0.0009438119595870376,-0.00040634721517562866,-0.001693808939307928
1783169555519199500,8.491199462890625,-0.00021357322111725807,0.0028216703794896603,0.0008377917110919952
1783169555529268200,8.501268310546875,-0.0023261660244315863,-0.0021591782569885254,0.0027563467156141996
1783169555539337500,8.51133740234375,0.0006776132504455745,-0.001235860399901867,0.0004431251436471939
1783169555549407200,8.5214072265625,0.0014273080741986632,-0.0009929733350872993,-0.0017372253350913525
1783169555559476500,8.5314765625,-0.0017604955937713385,0.001292285043746233,0.0005413752514868975
1783169555569545200,8.541545166015625,-0.0011580304708331823,-0.0018516038544476032,0.00019046012312173843
1783169555579615200,8.551615234375,-0.0005407097050920129,0.00017825746908783913,-0.0001525550615042448
1783169555589684200,8.561684326171875,0.0004830985562875867,0.0006173192523419857,-0.001914329594001174
1783169555599753000,8.5717529296875,-0.00014460855163633823,-0.0012218598276376724,-0.0001912643201649189
1783169555609822700,8.58182275390625,0.0007067738333716989,0.00011081341654062271,-0.00034134858287870884
1783169555619892000,8.59189208984375,-0.001214430551044643,-0.0019025364890694618,0.00002590147778391838
1783169555629960700,8.601960693359375,-0.0006019489374011755,-0.0016081230714917183,0.00037613813765347004
1783169555640031000,8.612031005859375,0.0004782291944138706,-0.0014488659799098969,0.0011868043802678585
1783169555650099700,8.622099609375,-0.0008801233489066362,-0.0012800460681319237,0.002566192764788866
1783169555660169000,8.6321689453125,0.0007278933771885931,-0.0001348867081105709,-0.0006093604024499655
1783169555670238700,8.64223876953125,0.00020553066860884428,0.0008802092634141445,0.0008202982135117054
1783169555680308000,8.652307861328126,0.00020553066860884428,0.00027567148208618164,0.0004812777042388916
1783169555690376700,8.662376708984375,-0.0002206836361438036,-0.0014487914741039276,0.0016036925371736288
1783169555700446700,8.67244677734375,0.0000440345611423254,0.0004913215525448322,-0.0006629237905144691
1783169555710515700,8.682515625,0.0004213251522742212,0.03488723188638687,0.015710096806287766
1783169555720585000,8.6925849609375,0.0006857770495116711,0.19780796766281128,0.0934741348028183
1783169555730654700,8.70265478515625,-0.001653603627346456,0.21983271837234497,0.11095171421766281
1783169555740724000,8.712723876953126,-0.0029721343889832497,0.05800758674740791,0.02550499327480793
1783169555750792700,8.722792724609375,-0.0020725796930491924,-0.26324525475502014,-0.13000808656215668
1783169555760862700,8.73286279296875,-0.0006392665673047304,-0.18501651287078857,-0.08427947759628296
1783169555770931700,8.742931640625,-0.0024993412662297487,0.0304313562810421,0.014814616180956364
1783169555781001000,8.7530009765625,0.002185158897191286,-0.07868847250938416,-0.03375238925218582
1783169555791071000,8.763071044921874,0.0003069760277867317,0.020619608461856842,0.007020025979727507
1783169555801139700,8.7731396484375,0.001858001109212637,-0.022938787937164307,-0.006301638670265675
