time,seconds_elapsed,z,y,x
1783174133319159600,0.07215966796875,0.004368132081627845,-0.0018635653821751474,0.01018054468743503
1783174133329228300,0.082228271484375,0.048078094470500946,-0.006023014016030356,0.014171687549678609
1783174133339296300,0.092296142578125,0.00693944387435913,-0.011704429786466061,0.003910515374084935
1783174133349365500,0.102365478515625,-0.0669762716859579,0.00010911379712633788,0.01371692038634792
1783174133359433500,0.11243359375,-0.03883738791644573,-0.016467406404577195,0.013134024198167026
1783174133369502500,0.12250244140625,0.02537058809995651,-0.006174852710030973,0.016118382904352618
1783174133379570400,0.1325703125,0.014428338325023651,-0.013707796364976092,0.003643872927688062
1783174133389639400,0.142639404296875,-0.02848842785954475,-0.010701454155845566,-0.0061726972855627536
1783174133399707600,0.152707763671875,-0.07278992640078068,-0.002973106659809127,-0.019950234418502077
1783174133409776400,0.1627763671875,-0.0014046061009168624,-0.007422487284103408,0.00464383461731486
1783174133419845400,0.172845458984375,0.031219314128160473,-0.006469716603914276,0.001556572659080848
1783174133429913600,0.18291357421875,0.0006996727019548416,0.009714470678800716,-0.027300451050838455
1783174133439982300,0.192982421875,-0.033685411980748176,0.008742410776251926,-0.01066931458506733
1783174133450050300,0.20305029296875,-0.04533785585165023,0.008601805862318724,-0.01288764822166413
1783174133460119600,0.21311962890625,0.009009235885739326,0.013904159187292679,-0.021460273655271155
1783174133470187500,0.2231875,-0.0014747487276792525,0.002922454184805974,-0.022756980668613685
1783174133480256500,0.233256591796875,-0.036841245663166045,-0.005632936986209825,-0.005549213358666747
1783174133490324500,0.243324462890625,-0.04984627318680286,0.0057459049745462835,-0.008717303734458982
1783174133500393500,0.2533935546875,-0.010482815569639205,0.006654178925883025,-0.008769307916332035
1783174133510461400,0.26346142578125,-0.0027548516660928723,0.0025946378693915903,-0.005865521899377927
1783174133520530400,0.273530517578125,-0.02806114235818386,-0.007579175683157518,0.02242984020663425
1783174133530599400,0.283599365234375,-0.04139876283705234,0.0024915884868707506,0.030132879731478168
1783174133540667600,0.293667724609375,-0.024824060133099554,0.012544104614155366,0.012847571939602493
1783174133550736400,0.303736328125,-0.01287117201089859,-0.015593546179495751,0.02132378779402934
1783174133560804400,0.313804443359375,0.0049503158837556835,-0.00045866702031344174,0.004429442947963253
1783174133570873600,0.32387353515625,-0.018249357917904854,-0.010262368618836625,-0.00179644582956098
1783174133580941300,0.33394140625,-0.035171266624331475,0.011571213594544678,-0.0031622725563589483
1783174133591010300,0.34401025390625,-0.026494623693823813,0.008503861913178116,0.007546524655725807
1783174133601078500,0.35407861328125,0.001855272477865219,0.0038133020773064344,-0.01182748991055414
1783174133611147500,0.3641474609375,-0.018135960671305656,0.013302877959050238,-0.008774760409584269
1783174133621216500,0.374216552734375,-0.03715104226469993,-0.015329250953812152,-0.0069737297364510595
1783174133631284500,0.384284423828125,-0.02122574338018894,0.024433225051453334,0.0005758179934229701
1783174133641353500,0.394353515625,0.0007622165441513061,0.004922532827686518,-0.00859485553172417
1783174133651421400,0.40442138671875,-0.002237549793720245,0.003774550102651119,-0.014170180579181759
1783174133661490400,0.414490478515625,-0.02532499539256096,-0.02440709509635344,0.002098808043310419
1783174133671558400,0.424558349609375,-0.02054828251004219,0.006557723680930212,-0.014315434268768875
1783174133681627400,0.43462744140625,-0.02147416518330574,0.009518053057556972,-0.01170961741823703
1783174133691695400,0.4446953125,-0.0032388357907533645,0.008728765843389556,-0.023086459218151865
1783174133701764400,0.454764404296875,-0.007114215919375419,-0.0005632416396401822,-0.000628379297722131
1783174133711832600,0.46483251953125,-0.019847440764307975,-0.004032452120166272,0.0017376100481022148
1783174133721901300,0.4749013671875,-0.026287118422985076,0.0028096962590236215,-0.006746113259345292
1783174133731970600,0.484970458984375,-0.01761632071137428,0.012896708310954273,0.008042948136851191
1783174133742038500,0.49503857421875,-0.018940262791514395,0.012411856536613777,0.0006099942576605826
1783174133752107300,0.505107177734375,-0.023893501284718514,-0.0004090831243898719,-0.01703854822288267
1783174133762175500,0.515175537109375,-0.016427987709641455,-0.0029197416379116476,-0.004035831387341022
1783174133772244500,0.525244384765625,-0.021839491364359854,0.00922623963728547,-0.008037395178899169
1783174133782312400,0.5353125,-0.023482582396268843,-0.002182239409908652,0.018954793640365824
1783174133792381400,0.54538134765625,-0.016590484794974325,-0.013063333582133053,0.010819673708034678
1783174133802449400,0.555449462890625,-0.02452712301313877,-0.016170514950389042,0.0174490378530696
1783174133812518400,0.565518310546875,-0.01764379324018955,-0.0027879045523237435,-0.011491992612183094
1783174133822586600,0.575586669921875,0.00988835680782795,0.01602469500522129,-0.007752669086540117
1783174133832655400,0.5856552734375,-0.008675473886728286,0.022499206515261903,-0.00717193745598197
1783174133842724600,0.595724609375,-0.0267827929854393,0.0003381915789563209,-0.017023469384759665
1783174133852792600,0.60579248046875,-0.025295184776186943,0.010130056609213352,-0.009990812535304575
1783174133862861300,0.615861328125,-0.017352116817235946,0.011722020242083816,-0.01218173757516779
1783174133872929300,0.62592919921875,-0.015395722052454947,-0.009858135199500247,-0.0029174218166619537
1783174133882998500,0.63599853515625,-0.020015783068537712,0.0013283807932399213,0.00025566439465619624
1783174133893066500,0.64606640625,-0.013287351596355437,0.004210703897057101,-0.009337253130553289
1783174133903135500,0.656135498046875,-0.016289456021785734,-0.005055137098254636,0.001890782182663679
1783174133913203500,0.666203369140625,-0.02497837391197681,-0.0007457859991583973,0.013198960926849395
1783174133923272400,0.6762724609375,-0.02797697120606899,-0.0031511027083732184,-0.0051017527189571405
1783174133933340700,0.686340576171875,-0.026937691286206242,-0.012340709262853487,-0.0013837003102060406
1783174133943409400,0.696409423828125,-0.014226678273081779,-0.0017908198063727467,0.011617874881019815
1783174133953478400,0.706478515625,-0.013178046002984046,-0.00265819549174048,0.014658192424988373
1783174133963546600,0.716546630859375,-0.0064472764432430265,-0.0004305186380632221,0.009043695277767255
1783174133973615400,0.726615478515625,-0.010939911687374114,-0.009517842995002865,-0.009211854918906465
1783174133983683300,0.736683349609375,-0.03188391551673412,-0.005891989781195297,0.011949992912216111
1783174133993752600,0.746752685546875,-0.014819383469223976,0.004803290362190455,-0.001729563738964498
1783174134003820500,0.756820556640625,-0.02170505132973194,-0.005063028143765405,0.006176816338254138
1783174134013889500,0.7668896484375,-0.02439385202229023,0.004814414544403553,-0.0013020681750494985
1783174134023957500,0.77695751953125,-0.02319032145142555,0.0031737255321349946,-0.017908645588299257
1783174134034026500,0.787026611328125,-0.016298223850131036,-0.0007353468035347759,-0.0178216705577448
1783174134044095500,0.797095458984375,-0.01659457644820213,-0.0057489919807761905,-0.008390619930205866
1783174134054163500,0.80716357421875,-0.010459434694051742,0.009633039473043755,-0.011051728898240253
1783174134064232400,0.817232421875,-0.0071603931486606594,-0.009310593452490865,0.006288067293539643
1783174134074300400,0.827300537109375,-0.019281039053201676,-0.0022002591237891465,-0.0024166874866001307
1783174134084369400,0.837369384765625,-0.01568622943162918,-0.008678707023430616,-0.004123363540321588
1783174134094437400,0.847437255859375,-0.016883330261707304,0.009904193697776644,0.0007123038546647876
1783174134104506400,0.85750634765625,-0.016586977663636208,0.008480782431690021,0.0034044746812433003
1783174134114574300,0.86757421875,-0.00132803373336792,0.008333766043279319,-0.006347578928433358
1783174134124643300,0.877643310546875,-0.017635609933733937,0.00817009078101255,-0.018887281362107024
1783174134134712600,0.887712646484375,-0.01075578729212284,0.004592762017203495,0.011112573973694816
1783174134144780300,0.8977802734375,-0.01030570543706417,-0.020841045778384432,0.0033779793999623507
1783174134154849500,0.907849609375,-0.007612813091278076,-0.013984238686179741,0.003405287531996146
1783174134164917500,0.91791748046875,-0.027063948014378544,0.005131134077068418,-0.007614502724865451
1783174134174986200,0.927986328125,-0.011802665996551514,0.0033202121975831685,0.002723634543921798
1783174134185054500,0.938054443359375,-0.00850888514816761,-0.0019946261496283113,-0.002538779496308416
1783174134195123500,0.94812353515625,-0.011506313398480414,0.00028727424247190357,0.012224754732986912
1783174134205191400,0.95819140625,-0.005375263297557831,-0.00892538439403288,-0.010664145219605415
1783174134215260400,0.968260498046875,-0.00597089110314846,-0.004714881426375359,-0.012653994729416444
1783174134225329400,0.978329345703125,-0.021527941197156904,-0.005613437701296061,-0.007591870767949148
1783174134235397400,0.9883974609375,-0.02018003371953964,0.0034943083891645073,-0.002328442947566509
1783174134245466400,0.99846630859375,-0.020181202763319014,0.004776840746682137,0.005895971836568787
1783174134255534300,1.008534423828125,-0.020777999612689016,0.003791081112343818,0.016195503261173142
1783174134265603600,1.018603515625,-0.00791150377690792,0.012535300253191961,0.005798210550518706
1783174134275671600,1.028671630859375,-0.013294950380921364,0.010251911156903952,-0.008516931457305326
1783174134285740300,1.038740234375,-0.02257131277024746,0.007508539866050705,-0.014112723904056474
1783174134295808500,1.04880859375,-0.007010755544900894,0.008223519734991714,-0.0007344517543911934
1783174134305877500,1.05887744140625,-0.014193360525369644,0.005816184598626569,-0.0005271017471794038
1783174134315946200,1.0689462890625,-0.034846272453665735,0.005065777223277837,0.005356522064469754
1783174134326014500,1.079014404296875,-0.01988075851202011,-0.004360843824315816,0.007329639635188505
1783174134336083500,1.08908349609375,-0.0195762226074934,-0.0044909912763163445,-0.030593218119069933
1783174134346151400,1.0991513671875,-0.011796820777654647,0.01050614164629951,-0.019175176659086718
1783174134356220400,1.109220458984375,-0.019579145216941832,-0.0017878971969243138,0.007523737435182556
1783174134366288400,1.119288330078125,-0.00820785637497902,0.0027998050526715813,-0.002595642516389489
1783174134376357600,1.129357666015625,-0.011350246053934096,-0.0005015106481965631,-0.002586144035682082
1783174134386425600,1.139425537109375,-0.020328502279520034,-0.016189721974357963,0.007171855257591233
1783174134396494300,1.149494384765625,-0.010153145223855973,-0.005764171283598989,0.010716058069933206
1783174134406563600,1.1595634765625,-0.0119470429033041,0.006355332976626232,-0.0017055892083328217
1783174134416631600,1.169631591796875,-0.008060556858778,0.006353698141966015,0.017530039800563828
1783174134426700300,1.1797001953125,-0.010156652355194092,0.0006803743464406579,-0.001668070209538564
1783174134436768500,1.1897685546875,-0.0029758009403944015,0.008039112211950123,-0.0067120191934984174
1783174134446837500,1.19983740234375,-0.0014794249027967451,-0.004648976583313196,-0.010208282077731563
1783174134456905500,1.209905517578125,-0.009559855505824088,0.014609476178744807,0.003230771215306595
1783174134466974500,1.219974365234375,-0.015393968486785889,0.009963111677626148,0.012976760410377755
1783174134477042400,1.23004248046875,-0.013745032235980033,0.006160385793261229,-0.005256979813287034
1783174134487111400,1.240111328125,-0.01419569861292839,0.004945137385139241,-0.011456099314894526
1783174134497180400,1.250180419921875,-0.005065466696023941,0.0035172234738711267,-0.011382248627394438
1783174134507248400,1.260248291015625,-0.021823709273338317,0.004662712847720831,-0.007624603993771597
1783174134517317600,1.270317626953125,-0.00985737714767456,0.027881922466913237,0.017720009414711965
1783174134527385600,1.280385498046875,-0.006717325556278228,-0.007785804171161726,0.002827131451014429
1783174134537454300,1.290454345703125,-0.008510054191946982,0.0012147460846230387,0.0071478898601140825
1783174134547522600,1.3005224609375,-0.014343582651019095,0.005488359150057658,0.020858891962328926
1783174134557591600,1.310591552734375,-0.009856208103895188,0.01187424252857454,0.005666976253129541
1783174134567659300,1.3206591796875,-0.024670915398001668,-0.0038200149458833036,-0.0062295146398711945
1783174134577728500,1.330728515625,-0.015547697743773459,0.004046973835863173,-0.0016412370015401391
1783174134587797500,1.340797607421875,-0.017346856120228765,-0.004085817142063752,0.004997863086219877
1783174134597865200,1.350865234375,-0.015253683233261107,0.005588111463794484,0.000971776774758473
1783174134607934500,1.3609345703125,-0.0041787469893693925,-0.002493387718312442,0.007410221457574516
1783174134618002400,1.37100244140625,-0.013304302731156348,0.0018384126746095715,-0.006813114080950617
1783174134628071400,1.381071533203125,-0.014347089782357216,0.006048449851386249,-0.02000268612494692
1783174134638139400,1.391139404296875,-0.014793079984188079,0.009933593322196975,-0.0149694229317829
1783174134648208400,1.40120849609375,-0.017639701586961744,-0.007016719494806602,0.004101361771067604
1783174134658276600,1.411276611328125,-0.017640286108851433,0.013274227253301069,-0.01331093340134248
1783174134668345300,1.421345458984375,-0.010607318732142448,0.005859420952154323,0.018806863936502487
1783174134678414300,1.431414306640625,-0.019287468793988228,0.015988509446987882,0.004929072166327386
1783174134688482600,1.441482666015625,-0.014348843348026274,-0.0011412881227675824,-0.0015960826855618505
1783174134698551300,1.45155126953125,-0.012857728007435797,0.0005954268761910498,-0.008561738713411614
1783174134708619300,1.461619384765625,-0.010166004705429077,-0.007569859865540638,-0.004622326038405299
1783174134718688500,1.4716884765625,-0.029473347243666646,-0.0012178148245438932,0.012505188242718577
1783174134728756500,1.481756591796875,-0.015105214673280715,-0.0059836044542491435,0.003183105281833559
1783174134738825500,1.491825439453125,-0.02393500233888626,0.0002763327233493328,0.013139257495710625
1783174134748894500,1.50189453125,-0.01375730719566345,0.003217473342316225,0.009455189554952085
1783174134758962400,1.51196240234375,-0.015253098711371421,0.005986380933225155,-0.003936736660730094
1783174134769031400,1.522031494140625,-0.03231237006187439,-0.005699243688071147,-0.004658694259729236
1783174134779099400,1.532099365234375,-0.013608838635683058,-0.0220710168316029,0.013114022589754313
1783174134789168400,1.54216845703125,-0.02213935109376907,-0.008648658945038913,0.008986795725068077
1783174134799236600,1.552236572265625,-0.018996961414813995,0.008640548703819513,0.000399456779519096
1783174134809305300,1.562305419921875,-0.017051088044047355,-0.0006574227291159332,0.0016603526939637959
1783174134819373300,1.572373291015625,-0.027076807495951653,-0.002067563521675765,-0.004655826449207962
1783174134829442600,1.582442626953125,-0.02258767938315868,0.0027691724523901937,-0.0055030361293815075
1783174134839511300,1.59251123046875,-0.018097382226586342,0.0046514151355717325,-0.020789900113036854
1783174134849579300,1.602579345703125,-0.0046294133663177485,-0.0012304185777902603,-0.014156827907264231
1783174134859648500,1.6126484375,-0.023030746975541114,0.005476696111727505,0.005054141584411263
1783174134869716500,1.622716552734375,-0.018387305083870886,0.011384878975898027,-0.005535486227413639
1783174134879785500,1.632785400390625,-0.018235329392552374,0.011603672825731336,-0.004739833204541355
1783174134889853400,1.642853515625,-0.010602642557024955,-0.01103342605656944,-0.00037475159652531145
1783174134899922400,1.65292236328125,-0.020780337700247762,-0.0035849184152204542,0.005304307820042595
1783174134909991400,1.662991455078125,-0.015395137530565262,0.010833455638214945,-0.005061174113396555
1783174134920059400,1.673059326171875,-0.0127051677942276,0.00737642878582701,0.017605963714141398
1783174134930128400,1.68312841796875,-0.00836859989464283,0.013135421570809557,0.004524436888191849
1783174134940196600,1.693196533203125,-0.029915245792269705,0.008531243110448122,0.0010431797768454998
1783174134950265300,1.703265380859375,-0.01584755747318268,0.0056305532328784465,0.01729666030295193
1783174134960333300,1.713333251953125,-0.018543372428417203,0.0004456979408860206,0.0013849972181487827
1783174134970402600,1.723402587890625,-0.026620880421996115,-0.0059251339989714324,0.004785526376636698
1783174134980470500,1.733470458984375,-0.012402969977259636,-0.003614117110241204,0.003478855091705918
1783174134990539500,1.74353955078125,-0.023475568133592604,0.004840170040167868,0.00921695121913217
1783174135000608500,1.7536083984375,-0.017938976794481275,-0.0061114229518454515,0.001422552749561146
1783174135010676500,1.763676513671875,0.0022597616255283356,0.002401480784313753,0.023994833634188396
1783174135020745500,1.773745361328125,-0.007168576455116271,-0.007382283137878403,0.0030856636561919
1783174135030813400,1.7838134765625,-0.01659340740442276,0.006348492243885994,-0.000413174777617678
1783174135040882400,1.79388232421875,-0.009110358172655104,0.01444446747591719,0.002156273851590231
1783174135050950400,1.803950439453125,-0.0221294142216444,-0.004813656492577865,0.01784316087034531
1783174135061019400,1.814019287109375,-0.017042320215702057,-0.0009137355777435004,-0.007115375830000266
1783174135071088600,1.824088623046875,-0.008812252008914946,0.002072367560956627,0.0008236644078046083
1783174135081156600,1.834156494140625,-0.009562193593382834,0.006610184520529583,0.0027812008169014004
1783174135091225600,1.8442255859375,-0.01644260075688362,-0.005758983651828021,0.010392863130709156
1783174135101293600,1.85429345703125,0.0009147767573595046,0.010935007183393464,0.004062363201240077
1783174135111362600,1.864362548828125,-0.007762450695037841,-0.000827409001160413,0.004576212741201743
1783174135121430500,1.874430419921875,-0.02227671373784542,0.003059314505383372,-0.001747218126663938
1783174135131499500,1.88449951171875,-0.024070611417293546,0.0025032241257373243,0.007119156955974176
1783174135141568800,1.89456884765625,-0.009257073166966438,-0.007062047340720892,-0.002379296351969242
1783174135151636500,1.904636474609375,-0.015392799443006514,0.003685803240118548,-0.006706822428572922
1783174135161705500,1.91470556640625,-0.014944471153616905,0.003871681201038882,-0.010446173353679478
1783174135171773700,1.924773681640625,-0.04023381071090698,-0.004607146735582501,0.006094152156636118
1783174135181842700,1.9348427734375,-0.026018238353729246,0.010930367540894076,0.0060902979654259976
1783174135191910400,1.944910400390625,0.0006195932030677795,-0.013413635723991318,0.008502007882809266
1783174135201979600,1.954979736328125,-0.004016834425926208,0.016594046725239602,0.028447913186065852
1783174135212047600,1.965047607421875,-0.00610942279100418,0.006015944954426959,0.010249399539409204
1783174135222116400,1.975116455078125,-0.009849778363108635,-0.015175265968497841,-0.0035416546622291205
1783174135232185600,1.985185546875,-0.008203180199861526,-0.002999784604180604,-0.009091087216604501
1783174135242253600,1.995253662109375,-0.014938041412830352,0.008719112099055201,0.012937597443768753
1783174135252322600,2.005322509765625,-0.0028150574207305907,-0.0024662257167510685,0.012024601651541887
1783174135262390500,2.015390625,-0.026906711626052855,-0.0019340733351185916,0.008967963160434737
1783174135272459500,2.02545947265625,-0.019573884519934654,-0.0007978358468040824,0.01077293935632333
1783174135282527700,2.03552783203125,-0.028853754040598867,0.002487012776453048,-0.004819940102891996
1783174135292596500,2.045596435546875,-0.015235563054680823,-0.002562827092176303,-0.00037955563580617307
1783174135302665500,2.05566552734375,-0.014337152910232543,-0.011077219532523304,-0.013630027554184198
1783174135312733700,2.065733642578125,-0.01703296786546707,0.0007977171157952398,0.024007683982606977
1783174135322802400,2.075802490234375,-0.0249614227771759,-0.007417445782804861,0.027880835621524602
1783174135332870400,2.085870361328125,-0.03004968582689762,-0.008786670043086633,0.008248261450603605
1783174135342939600,2.095939697265625,-0.00012274959683418273,0.01889702643798664,-0.007145834900345653
1783174135353007600,2.106007568359375,0.0010749357551336288,0.004294564521918073,0.009657068802602588
1783174135363076600,2.11607666015625,-0.031247371178865432,0.0008309161324985324,0.00012927980232052503
1783174135373145600,2.1261455078125,-0.00850537801682949,0.0005752243383787572,0.03137311645038426
1783174135383213600,2.136213623046875,-0.009404372683167458,0.002352152616716921,-0.015154488041950388
1783174135393282600,2.146282470703125,-0.011796820777654647,-0.001984470081795007,0.008250060682045295
1783174135403350500,2.1563505859375,-0.023766660034656523,0.011491417223447932,0.00006263517374172806
1783174135413419500,2.16641943359375,0.0009247136294841766,0.010771587649453431,0.0018233155701775103
1783174135423487700,2.17648779296875,-0.01912789431810379,0.011362630611471832,0.004132122235512361
1783174135433556500,2.186556396484375,-0.02182137118577957,0.0036614085843786597,0.01079878618363291
1783174135443625500,2.19662548828125,-0.02092296104133129,-0.009648547569429502,0.005075732361711561
1783174135453693700,2.206693603515625,-0.02017185041308403,-0.009221746125258504,0.005485938864108175
1783174135463762400,2.216762451171875,-0.013140052080154419,0.002269689364498481,0.007339430376840755
1783174135473830400,2.226830322265625,-0.02421381928026676,-0.008741588792344554,0.00636625622943975
1783174135483899600,2.236899658203125,-0.02601239313483238,0.009768721616687253,-0.0007595131304115057
1783174135493967600,2.246967529296875,-0.018231822261214257,0.0023711039123591035,0.0023613223038613795
1783174135504036600,2.25703662109375,-0.03139817782640457,0.017513910649670287,0.0013661829198244957
1783174135514105600,2.267105712890625,-0.020622516790032387,-0.004972399851400405,0.0037745135700330136
1783174135524173600,2.277173583984375,-0.011792144602537155,0.017601013544388113,-0.006233359697926789
1783174135534242600,2.28724267578125,-0.013736264407634735,0.014765735319536179,0.01822755707805045
1783174135544310500,2.297310546875,-0.020918869388103483,0.0027724877874832597,0.0037133853667881338
1783174135554379500,2.307379638671875,-0.011640168911218643,-0.00040495493854396044,0.005502542939037084
1783174135564447700,2.31744775390625,-0.003707622346282005,-0.0015550930880475788,0.00016153810410760342
1783174135574516500,2.3275166015625,-0.01837152299284935,-0.00870095538785681,0.007344983334792777
1783174135584585700,2.337585693359375,0.002727379137277603,0.009519203835027292,-0.007499434110987931
1783174135594653700,2.34765380859375,-0.018370353949069974,0.0021329021091572938,-0.0018229411108419298
1783174135604722400,2.357722412109375,-0.00400455946624279,-0.009015345966117456,-0.007181152808899059
1783174135614790700,2.367790771484375,-0.01956394764780998,0.0021267646293155846,-0.004772648628754541
1783174135624859600,2.377859619140625,-0.009688450321555138,0.014909061913518235,-0.0031973986686673014
1783174135634927600,2.387927734375,-0.014924012887477875,0.011618760797008871,-0.007264209716161712
1783174135644996600,2.39799658203125,-0.023001520881056784,-0.003122461135778576,-0.0021581826808862387
1783174135655065600,2.408065673828125,-0.012226444366574286,0.01073820596965961,-0.0007037004231009631
1783174135665133600,2.418133544921875,-0.009233107769489287,0.010759513619169592,-0.0003982420699670911
1783174135675202600,2.42820263671875,-0.018513561812043187,-0.005168899671034887,0.002012244004709646
1783174135685270500,2.4382705078125,-0.011329203265905379,-0.010549323200900107,-0.01333202185514383
1783174135695339800,2.44833984375,-0.012077391284704208,0.007044374686712399,-0.00439924873909913
1783174135705407700,2.45840771484375,-0.019259411743283272,0.011706859205570071,-0.002645820067357272
1783174135715476500,2.4684765625,-0.02539455349743366,-0.005107333076372743,-0.014787362629454582
1783174135725545700,2.478545654296875,-0.018810498932003972,0.00425613220767118,-0.007526212520059198
1783174135735613700,2.48861376953125,-0.030331425377726554,0.014875022646598518,-0.004157247543614358
1783174135745682400,2.498682373046875,-0.018360417076945305,-0.004897325321193784,-0.004639761230396107
1783174135755750700,2.508750732421875,-0.0012999766826629637,-0.00705626605390571,-0.005285557453799992
1783174135765819600,2.518819580078125,-0.013569675669074058,-0.0028386483588721603,0.0014140497826971112
1783174135775887600,2.5288876953125,-0.010728314763307571,-0.005496350660268217,-0.000038980303518474097
1783174135785956600,2.53895654296875,-0.012974047863483428,0.0060608252757694565,0.004442622089944779
1783174135796025600,2.549025634765625,-0.00818856715261936,0.0012258428673725574,0.014507367511140182
1783174135806093600,2.559093505859375,-0.024500819528102874,-0.0009474551842547953,0.018051442459318785
1783174135816162600,2.56916259765625,-0.02465045713186264,0.0002929641977418214,0.00833336418448016
1783174135826230500,2.57923046875,-0.01357961254119873,0.006674518461013213,-0.01085064423503354
1783174135836299800,2.5892998046875,-0.023905191722512244,0.010247152783395722,-0.0023731680052820592
1783174135846367500,2.599367431640625,-0.0023550386935472485,0.021476055746292695,-0.004170399286132305
1783174135856436500,2.6094365234375,-0.019713585251569746,0.004843932899832725,-0.0043140546736773104
1783174135866505700,2.619505615234375,-0.028843232646584508,0.007420395791716873,0.00898378178407438
1783174135876573400,2.629573486328125,-0.008192658805847167,-0.004323123896121979,0.0127466871147044
1783174135886642400,2.639642333984375,-0.025251345634460447,-0.007641071071382612,-0.0010305120915174483
1783174135896710700,2.649710693359375,-0.001609188762307167,0.0037790436146780846,-0.005586010838253423
1783174135906779600,2.659779541015625,-0.004751578441262245,0.001727362648723647,-0.004548402285668999
1783174135916847400,2.669847412109375,-0.0059463411837816236,-0.01018891065698117,-0.00048554589408449826
1783174135926916600,2.67991650390625,-0.011036942321062088,0.0042061738524120295,0.00516328278100118
1783174135936985600,2.689985595703125,-0.023308979395031928,0.004819063320057466,0.010691891743056476
1783174135947053600,2.700053466796875,-0.012982815691828726,0.0037905513893812894,0.007162201513256877
1783174135957122600,2.71012255859375,-0.020164251628518103,0.002171389222331345,-0.003347602528007701
1783174135967190500,2.7201904296875,-0.031087796702980994,-0.004924733917927369,-0.016277911714464424
1783174135977259500,2.730259521484375,-0.02944353662729263,0.0031617154339328405,-0.010440163738001138
1783174135987327500,2.740327392578125,-0.0005634791016578674,-0.007510640491591766,0.019457993922149763
1783174135997396500,2.750396484375,0.006770517048239708,0.008582005183305591,0.0055430119467433535
1783174136007465700,2.7604658203125,-0.010737667113542557,0.004902284624101594,-0.002288585861213505
1783174136017533400,2.770533447265625,-0.019713585251569746,-0.0011946348783560096,0.010174224544502794
1783174136027602700,2.780602783203125,-0.009984802919626235,-0.005423166693048551,0.0038467750886455178
1783174136037670700,2.790670654296875,-0.023604162949323652,0.01279306527338922,0.002607387753110379
1783174136047739400,2.800739501953125,-0.021510405540466307,-0.006099412853643298,-0.008229812478460372
1783174136057807600,2.8108076171875,-0.0005617255359888076,0.016295191642828284,-0.015118896138761191
1783174136067876600,2.820876708984375,-0.015524316868185997,0.0008477394031360745,0.0001313621615525335
1783174136077945900,2.83094580078125,-0.025846973440051078,0.006629528541816398,-0.0011640662101563065
1783174136088013800,2.841013916015625,-0.026293548163771628,0.009548466462129727,-0.0031988508402369916
1783174136098082800,2.851082763671875,-0.018959552013874052,0.013572086821869014,-0.012360747403884306
1783174136108151000,2.861151123046875,-0.02494622520804405,-0.008422759500984102,-0.018242371054692192
1783174136118219800,2.8712197265625,-0.02344868012666702,0.005183777579758316,-0.01584649802725762
1783174136128288800,2.881288818359375,-0.009978957700729369,0.004316657622717321,0.0009057897333055734
1783174136138357000,2.89135693359375,-0.005939326921105385,-0.0028635453381109983,0.009450485980371013
1783174136148425700,2.90142578125,-0.019857962158322334,-0.004958097331412136,-0.011887704798346384
1783174136158493700,2.91149365234375,-0.014319617253541946,-0.001903130207583308,-0.011641959009505808
1783174136168563000,2.92156298828125,-0.03063128510713577,0.009755798203032464,0.003113766372669488
1783174136178631000,2.931630859375,-0.012674772655963897,0.012264255626313388,-0.0007890588853042572
1783174136188700000,2.941699951171875,-0.003996376159787178,-0.005027125713322311,-0.014720370941003784
1783174136198769000,2.951768798828125,-0.012824410259723662,0.005848196305241435,-0.003776833391282707
1783174136208836900,2.9618369140625,-0.025841712743043897,0.019582040426926687,-0.001945855104457587
1783174136218905900,2.97190576171875,-0.009831073662638664,-0.0006843655349686741,-0.01137645820742473
1783174136228973800,2.981973876953125,-0.018957798448204992,0.014277275949157774,0.003363813877291977
1783174136239042800,2.992042724609375,-0.02225099477469921,0.00538042352986522,0.01088620873875916
1783174136249111000,3.002111083984375,-0.025691490617394445,-0.0015539605768863111,-0.0037641383064910766
1783174136259179800,3.0121796875,-0.016710311782360075,-0.0009634473378304392,0.016556125867646185
1783174136269249000,3.0222490234375,-0.02404313888847828,0.013272546752868219,0.010999003197159617
1783174136279317000,3.03231689453125,-0.03017594255506992,0.005697563187638297,0.0029568770442157982
1783174136289385700,3.0423857421875,-0.011771686336398125,0.0065029612863901996,0.00161656835116446
1783174136299454000,3.052453857421875,-0.022996844705939292,0.012538953515002503,0.026705654362309723
1783174136309523000,3.06252294921875,-0.003394318613409996,0.012694125810405238,-0.011314772881753742
1783174136319591700,3.072591796875,-0.014467501291632651,0.008445245327427983,-0.0071505841406993564
1783174136329660000,3.082659912109375,-0.022097850039601324,-0.01580615688371472,0.010668730063177645
1783174136339729000,3.09272900390625,-0.027033552876114843,0.0033943916786462066,-0.013999143994366749
1783174136349796900,3.102796875,-0.013265139764547348,0.006109230994759127,0.011777303226431831
1783174136359865900,3.112865966796875,0.00035538930892944334,0.0053233778466936195,0.013150399944232775
1783174136369933800,3.122933837890625,-0.030469372543692586,0.004444603984476998,-0.0027734650350175797
1783174136380003000,3.133003173828125,-0.01490589270889759,0.015140258587198332,-0.007483898615138605
1783174136390071800,3.14307177734375,-0.019996493846178055,-0.013516283247712998,-0.004939493095641956
1783174136400139800,3.153139892578125,-0.008475567400455474,0.00028181261606514453,-0.00587803432107903
1783174136410209000,3.163208984375,-0.012965864557027817,0.018084614076558498,0.004954909860482439
1783174136420277000,3.173277099609375,-0.014016834914684294,-0.0011055500891059636,-0.01276063344166614
1783174136430345700,3.183345703125,-0.023444003951549528,0.005595006995461881,0.001312279041809961
1783174136440415000,3.1934150390625,-0.028829204121232032,0.010476477160397917,-0.007154429198754951
1783174136450483000,3.20348291015625,-0.00922609350681305,0.00712340387282893,-0.016824311817158013
1783174136460552000,3.213552001953125,-0.013864859223365783,-0.003336889337748289,0.002531820032559335
1783174136470620000,3.223619873046875,0.006337970849871635,0.0024557865211274474,0.0077159264058806
1783174136480689000,3.23368896484375,-0.02224398051202297,0.007685357737680897,-0.0025518581735901533
1783174136490756900,3.2437568359375,-0.016706804651021957,-0.005474102295842022,-0.006367196944355964
1783174136500825900,3.253825927734375,-0.023591303467750548,-0.005778300273651257,-0.016171884923567994
1783174136510894800,3.263894775390625,-0.033467385315895076,-0.01434134502816014,0.00014598434194922446
1783174136520963000,3.273963134765625,-0.01147299565076828,-0.006997896063327789,-0.006678098657587543
1783174136531031800,3.28403173828125,-0.01461655437350273,0.006413173244241625,-0.0008120013694744557
1783174136541099800,3.294099853515625,-0.03377016765475273,0.008396538214338943,-0.0016996069921180604
1783174136551169000,3.3041689453125,-0.02329319730401039,0.00003358260919339955,-0.005562008908158168
1783174136561237800,3.31423779296875,-0.024491467177867886,0.00027261552945710715,-0.007029852971015498
1783174136571305700,3.3243056640625,-0.01760813740491867,0.0005035199421923607,-0.013716481994930654
1783174136581375000,3.334375,-0.017907412612438202,-0.010071942346962168,0.0012572152531705797
1783174136591443000,3.34444287109375,-0.012669511958956717,-0.015068124932749196,-0.007705980400601401
1783174136601512000,3.354511962890625,-0.008478490009903908,0.004992949449084699,0.0038607670813798904
1783174136611580000,3.364579833984375,-0.024188684839010238,0.004130788794951513,0.00929628179934807
1783174136621649000,3.37464892578125,-0.015209844091534613,0.01593127196757123,-0.0048349641420878465
1783174136631718000,3.3847177734375,-0.028677812951803206,0.0004092292548622936,-0.0008106679289136082
1783174136641785900,3.394785888671875,-0.005333762243390083,0.007608803636441007,-0.004334147613635287
1783174136651854800,3.404854736328125,-0.033764322435855865,0.013599111826112493,-0.007835004474595189
1783174136661922800,3.4149228515625,-0.023141806134581566,0.011616459242068231,0.0007218480011448264
1783174136671991800,3.42499169921875,-0.004584405180811882,0.004262096157576889,0.005736552624311298
1783174136682061000,3.43506103515625,0.0009556932896375655,0.011882325370330363,0.003991827848833054
1783174136692129000,3.44512890625,-0.023137129959464073,-0.010127426260709761,0.004809245178941637
1783174136702197800,3.45519775390625,-0.003832710030674934,-0.004690879496280104,-0.017481268755393103
1783174136712266000,3.465265869140625,0.003949614408612251,-0.0040065322276204825,-0.009713548230193554
1783174136722335000,3.4753349609375,-0.021337387061119078,-0.002330817567743361,-0.000878189340326935
1783174136732403700,3.48540380859375,-0.01774666909277439,0.0016865648474544287,0.0012405929119326173
1783174136742472000,3.495471923828125,-0.015502689558267592,-0.006698182464390993,-0.0016664536411873994
1783174136752541000,3.505541015625,-0.01804652882218361,-0.008454204952018336,0.01841308797909878
1783174136762608600,3.515608642578125,-0.02941957122981548,0.010974973867600784,0.0006203603880479932
1783174136772678000,3.525677978515625,-0.013259879067540168,0.009633578329160808,0.006747282303124665
1783174136782745900,3.535745849609375,-0.016402268746495245,0.010132705224025994,-0.005794338092999532
1783174136792814800,3.54581494140625,-0.012957096728682517,0.0024760529910214245,-0.009856272035976872
1783174136802883800,3.5558837890625,-0.014003390911221504,-0.004171842324547469,-0.004311807917663828
1783174136812951800,3.565951904296875,-0.022982231658697127,0.006151362236589193,0.0006702913438435643
1783174136823021000,3.57602099609375,-0.006673486414551734,0.010907854314986616,-0.005215935416845605
1783174136833088800,3.5860888671875,-0.016547814697027204,-0.0006675696637947112,-0.008826253134803846
1783174136843157800,3.59615771484375,-0.012357961791753767,-0.0030544921997934576,-0.010608524308539926
1783174136853227000,3.60622705078125,-0.021937106519937515,0.012054083474352955,-0.0016073712645564228
1783174136863294700,3.616294677734375,-0.02059270617365837,0.0067634662529453635,-0.0032710940925404428
1783174136873364000,3.626364013671875,-0.009223755419254303,0.012938656889693811,-0.014372032427368685
1783174136883432000,3.636431884765625,-0.01969780316054821,0.008603924754168837,-0.005613035842496902
1783174136893501000,3.6465009765625,-0.019996493846178055,0.0012037132339552045,-0.004571527432929724
1783174136903568600,3.656568603515625,-0.02208966673314571,-0.008204239645786583,-0.004666996297193691
1783174136913638000,3.666637939453125,-0.014907061752676963,0.0004961677527986467,0.004049321056576446
1783174136923707000,3.676706787109375,-0.019542904859781263,0.0068838503627572205,-0.001773019288200885
1783174136933774800,3.68677490234375,-0.031814941933751104,0.008305672459956259,-0.020261017400724814
1783174136943843800,3.69684375,-0.03316284941136837,0.010034478147095068,0.0023133641094435003
1783174136953911800,3.706911865234375,-0.0072761284828186034,0.0009682787765748799,-0.0030887506624218074
1783174136963980800,3.716980712890625,-0.011615618991851807,0.0008367248187772929,0.002922655114205554
1783174136974049800,3.7270498046875,-0.019994155758619306,0.00367255103290081,-0.013546915847994386
1783174136984117800,3.73711767578125,-0.02058919904232025,0.009340522799873723,-0.005581371195754036
1783174136994186800,3.747186767578125,-0.0207394211679697,-0.00069486866267398,-0.014258361186133698
1783174137004254700,3.757254638671875,-0.005177694898843765,-0.016185529856430365,-0.0014060674056410789
1783174137014324000,3.767323974609375,-0.024184008663892746,-0.007369679384632036,0.003721331211226061
1783174137024393000,3.77739306640625,-0.027923779714107512,0.00004727320782840252,-0.01106210416178219
1783174137034460700,3.787460693359375,-0.011761164942383766,0.0066881542607210576,-0.00460657134684734
1783174137044530000,3.797530029296875,-0.02522854928076267,-0.012589158465433865,-0.010806567631289362
1783174137054598000,3.807597900390625,-0.008019055804610252,0.0017488072955515234,0.0008980539514217525
1783174137064666600,3.81766650390625,-0.02028992383480072,-0.0010991112151648849,-0.010282689887657761
1783174137074734300,3.827734375,-0.01250818391740322,0.00530852733743377,-0.019077771566063165
1783174137084803000,3.837802978515625,-0.01714578059017658,-0.0021565752456896006,-0.01015317262331955
1783174137094872000,3.8478720703125,-0.01639817709326744,0.009612654272140935,0.009139136742567644
1783174137104940300,3.857940185546875,-0.028070494708418846,0.008659847059333696,0.012692143915873021
1783174137115009000,3.868009033203125,-0.02208323699235916,-0.0006870506823994219,-0.0020151574810035526
1783174137125077000,3.878076904296875,-0.00637304216325283,0.003693904348183423,-0.005010512505238876
1783174137135146200,3.888146240234375,-0.022835516664385793,-0.0034506519105285405,0.0014868044916540384
1783174137145215000,3.898215087890625,-0.033759061738848684,-0.00420326950927265,-0.012564635945530608
1783174137155283200,3.908283203125,-0.014008651608228683,0.008338688813569023,-0.0115843562039081
1783174137165352200,3.918352294921875,-0.01984451815485954,0.0012900854763109237,-0.008599084182269871
1783174137175420200,3.928420166015625,-0.00727320587337017,0.006681916316179559,-0.0069140628379303955
1783174137185489200,3.9384892578125,-0.01655190635025501,0.02298161973734386,-0.005453141706204041
1783174137195558100,3.94855810546875,0.003797638717293739,0.006410067971702665,-0.0006821461784187704
1783174137205626000,3.958626220703125,-0.005482815325260162,-0.001969254246354103,-0.0007709569730330258
1783174137215695000,3.968695068359375,-0.028823358902335165,0.0035586514628026633,-0.018012224693782625
1783174137225763000,3.97876318359375,-0.027775311154127118,0.0007300495739094913,-0.008220578859234228
1783174137235832300,3.988832275390625,-0.021640753921866415,0.006237707079481333,-0.012841799785941839
1783174137245899300,3.998899169921875,-0.01745265458226204,-0.0029801209224853665,-0.009173395205195993
1783174137255967200,4.00896728515625,-0.013261632633209227,0.014878474979009479,0.002486912311753258
1783174137266036000,4.019035888671875,-0.028825112468004226,0.0036187841522041706,-0.03305954430052079
1783174137276105200,4.029105224609375,-0.018952537751197814,0.010158990442752838,-0.013050857693050056
1783174137286173200,4.039173095703125,-0.022094927430152893,0.011936028318945318,-0.0022737170856446027
1783174137296242000,4.049241943359375,-0.02583469848036766,0.004591967432759702,-0.00017390439533628523
1783174137306310100,4.05931005859375,-0.02239303359389305,0.0073055646398570385,0.005968945741234347
1783174137316379100,4.069379150390625,-0.014911737927794455,-0.00003508044653572142,0.00033732392927631735
1783174137326448000,4.0794482421875,-0.014162380865216255,0.0020192491342313585,0.009509376560756936
1783174137336516000,4.08951611328125,-0.02149637701511383,0.006313813656149431,0.008711367184016853
1783174137346585000,4.099585205078125,-0.02927811693251133,-0.007474957256857305,0.0007800809944048524
1783174137356653300,4.1096533203125,-0.009973697003722191,-0.018403635164164007,-0.00753166501331143
1783174137366722000,4.11972216796875,-0.005935235267877578,-0.015617657707445323,0.005254696524655446
1783174137376791000,4.129791015625,-0.02030161427259445,-0.003701667529530823,0.006895860460959374
1783174137386859300,4.139859375,-0.016414543706178664,0.006366922949720174,0.006013095410214737
1783174137396928000,4.149927978515625,-0.025395722541213035,0.00258960550124757,0.015389511507377027
1783174137406996000,4.159995849609375,-0.01163023203909397,0.005856407011160626,0.010491875658929348
1783174137417065200,4.170065185546875,-0.010586860466003418,-0.005578539917850867,0.006569523716578259
1783174137427133200,4.18013330078125,-0.0158247611194849,0.007229786856751888,-0.01035799274672754
1783174137437202200,4.1902021484375,-0.021215221986174582,-0.006446006934763863,0.017637683159811422
1783174137447271200,4.200271240234375,-0.013881225836277006,-0.013713641583872959,0.002820811308082193
1783174137457339100,4.210339111328125,-0.019418986219167707,0.0009262023336719721,-0.011202170219598337
1783174137467408100,4.220408203125,-0.021065584382414817,0.0031349918237887323,-0.019729120747419074
1783174137477476000,4.23047607421875,-0.024954408514499662,0.011810420044744387,0.0079920399335213
1783174137487545000,4.240545166015625,-0.02375847672820091,0.008377550386078654,-0.007433392270607873
1783174137497614000,4.250614013671875,-0.00834463449716568,0.009316128144133835,-0.012854019946698098
1783174137507682000,4.26068212890625,-0.003705868780612945,-0.0010924988112878053,0.0014208905154373497
1783174137517751300,4.270751220703125,-0.021065584382414817,-0.0020314418955240396,-0.0005746306833345442
1783174137527819300,4.2808193359375,-0.01492985810637474,0.0003522201043087989,-0.00007274557580240071
1783174137537888000,4.290887939453125,-0.016128127980232238,-0.00035542584154754875,0.005730917467968538
1783174137547957200,4.300957275390625,-0.008797054439783096,0.0008507259446661919,-0.02038493604133837
1783174137558025200,4.311025146484375,-0.022563129463791846,0.006228939251136034,-0.014143100776011124
1783174137568094000,4.321093994140625,-0.025253683722019193,-0.000749530592514202,-0.0012800116068683563
1783174137578162200,4.331162109375,-0.023307225829362867,0.0017512823804281652,-0.013658029805961995
1783174137588231200,4.341231201171875,-0.007445639830827713,-0.002250454941065982,-0.00012545301057398318
1783174137598300200,4.351300048828125,-0.013580781584978103,0.002087565130088478,0.006948257368477061
1783174137608368000,4.3613681640625,-0.02420388240814209,0.00711601515081711,0.009471218241145834
1783174137618437000,4.37143701171875,-0.029143092375993728,-0.003196311823278665,0.022460290143825112
1783174137628506000,4.381506103515625,-0.02884673977792263,0.006341487114364281,0.023807430436462163
1783174137638575000,4.3915751953125,-0.017625673061609268,-0.006216636891989037,0.002739316170243546
1783174137648643000,4.40164306640625,-0.01852525224983692,-0.012910490241134538,-0.013539180066110566
1783174137658712000,4.411712158203125,-0.018375614646077156,-0.003933622255036607,0.0010290873194113374
1783174137668780000,4.421780029296875,-0.014039046746492385,0.009068391327606513,0.0007635773841757327
1783174137678849300,4.431849365234375,-0.02346563126146793,0.009861404868820681,0.013165844108536839
1783174137688918000,4.44191796875,-0.003264554753899574,-0.01121991593884304,-0.005054735239455476
1783174137698986000,4.451986083984375,-0.0037140520870685575,0.008446450903825462,-0.0050507166514638805
1783174137709055200,4.46205517578125,-0.00865092396736145,0.005145756257465109,-0.0178252050885465
1783174137719123200,4.472123291015625,-0.004312017980217933,0.005286863494897261,-0.011208316832594573
1783174137729192000,4.48219189453125,0.0013747954845428467,0.010917754654493182,0.013713732915418221
1783174137739260200,4.49226025390625,-0.013137713992595671,0.002922061459161341,-0.006942530880589038
1783174137749329200,4.5023291015625,-0.012088497200608252,-0.01991839624182321,-0.0012042612232267857
1783174137759398100,4.512398193359375,-0.028249942928552627,-0.004329115245491266,-0.00038349202540703117
1783174137769466000,4.522466064453125,-0.016128127980232238,-0.001352857647370547,-0.005548199578514323
1783174137779535000,4.53253515625,-0.011786883905529975,0.01149898860855028,-0.003767672837292775
1783174137789604000,4.54260400390625,-0.011935936987400054,-0.012889803646132349,0.002579960890067741
1783174137799672000,4.552672119140625,-0.021514497193694113,0.00685059654712677,0.0043187491151038555
1783174137809741000,4.562740966796875,-0.008047697377204895,0.004987022031797096,-0.00534501428976655
1783174137819809300,4.572809326171875,-0.011187748968601226,0.0043042730651795865,0.00022285810359753668
1783174137829878000,4.5828779296875,-0.012535071924328803,0.005533166406163945,0.012199437628639861
1783174137839946000,4.592946044921875,-0.017771803534030912,0.006501143788639456,0.008346598125388845
1783174137850015200,4.60301513671875,-0.0032563714474439617,0.00630620573842898,-0.0009042918959632515
1783174137860084000,4.613083984375,-0.01193476794362068,0.01461307464162819,0.008884312598127872
1783174137870152000,4.62315185546875,-0.00639700756072998,-0.0031371289819478987,-0.002999163549672812
1783174137880221200,4.63322119140625,-0.023303718698024747,-0.006275974996946752,-0.006881831935606896
1783174137890289200,4.6432890625,-0.023751462465524672,0.010061932409601286,-0.009538675720477476
1783174137900358100,4.653358154296875,-0.005645896932482719,-0.0005302526854909956,-0.017457001963816582
1783174137910427100,4.66342724609375,-0.0038490766435861586,-0.013259806002303956,-0.00030052644968964155
1783174137920495000,4.6734951171875,-0.023001520881056784,-0.0010254888565279542,0.007493022636510431
1783174137930564000,4.683564208984375,-0.02479775664806366,0.001775037715351209,0.00005746580827981233
1783174137940632000,4.693632080078125,-0.017016601252555847,-0.007679494252474978,-0.010595125970849767
1783174137950701000,4.703701171875,-0.005192307946085929,-0.0023568927239160983,0.01658767178338021
1783174137960770000,4.71377001953125,-0.009679097971320152,0.006467469847900793,0.005816549924807623
1783174137970838000,4.723838134765625,0.0009422492861747741,0.009236971093853935,0.0016019827033858746
1783174137980907300,4.7339072265625,-0.008784779480099678,-0.0001308781043626368,0.005277054486935958
1783174137990975200,4.743975341796875,-0.02344926464855671,-0.0057541156804654745,-0.0000415193204768002
1783174138001044000,4.7540439453125,-0.025992519390583037,0.013601303783198817,-0.0029073205477558074
1783174138011113200,4.76411328125,-0.0026478841602802275,0.006232099322602152,-0.011111779389251022
1783174138021181200,4.77418115234375,-0.025244915893673895,-0.017993730055866762,-0.015308080301620066
1783174138031250000,4.78425,-0.028836802905797956,-0.001988662199722603,-0.005699426351161673
1783174138041319200,4.794319091796875,-0.007587678650021553,0.011510213255463168,-0.0017982085283845663
1783174138051387100,4.80438720703125,-0.008636310920119286,0.00979101564688608,-0.005067868715664371
1783174138061456100,4.8144560546875,-0.01163023203909397,-0.007486054039606824,-0.0035659305869601664
1783174138071524000,4.824524169921875,-0.021955226698517797,-0.006797057995293289,-0.002397151669068262
1783174138081594400,4.834594482421875,-0.0215063138872385,-0.0022780553340446203,0.005854799575963988
1783174138091663400,4.844663330078125,-0.0215063138872385,0.000025846827309578655,0.005306307980883866
1783174138101731600,4.854731689453125,-0.007439794611930847,0.004236687721684575,0.0018491532643325626
1783174138111800300,4.86480029296875,-0.010582768812775612,0.0017877145338337868,0.0036261546079069374
1783174138121868300,4.874868408203125,-0.005195815077424049,0.0019510518693830817,0.015663195615913717
1783174138131937500,4.8849375,-0.01821545564830303,-0.0016489271176513283,-0.0035741412928793578
1783174138142006300,4.89500634765625,-0.01806640256643295,0.0011634634219575672,-0.005514516504621133
1783174138152074200,4.90507421875,-0.025400983238220213,0.0035730270480271425,0.01515763898026198
1783174138162143500,4.9151435546875,-0.01597322967946529,0.0011545859957579523,-0.007918170979712157
1783174138172211500,4.92521142578125,-0.012086159113049506,-0.0044117611608002335,-0.0009516016364097595
1783174138182280400,4.935280517578125,-0.008494856622815131,0.014132981240795924,-0.006198206186154857
1783174138192349400,4.945349365234375,0.0003314239114522934,0.005889587761554867,0.0032761903927661477
1783174138202417400,4.95541748046875,-0.025557635104656216,0.003476580936228856,-0.0031534499290864913
1783174138212486400,4.965486328125,-0.013436404678225516,-0.014230724260536953,-0.006208316588215529
1783174138222554400,4.975554443359375,0.003321837899088859,-0.002805385410087183,-0.010153793677827342
1783174138232623400,4.985623291015625,-0.004607201534509659,-0.0010259089816361665,-0.0006832604232709854
1783174138242692400,4.9956923828125,-0.019271686702966688,0.005688676628284156,-0.013024472009623422
1783174138252760300,5.00576025390625,-0.014032617005705832,-0.0006035097179468721,-0.0040696879911702125
1783174138262829600,5.01582958984375,-0.032738486519455906,0.0010458557911217211,-0.007884688835218548
1783174138272897500,5.0258974609375,-0.010443652603030203,0.004195095335971564,-0.01197431450271979
1783174138282966300,5.03596630859375,-0.021817279532551765,0.006582812456414103,-0.0036660116942599415
1783174138293035500,5.046035400390625,-0.027505262041091917,-0.00024608371555805207,0.0062569963018409905
1783174138303103500,5.056103515625,-0.013590718457102774,-0.0038771610937546937,-0.002469513652380556
1783174138313172200,5.066172119140625,-0.014639350727200507,0.008855004305252805,0.005715153643256053
1783174138323240400,5.076240478515625,-0.009854454538226127,0.0007326799224130809,0.01555560705559328
1783174138333309400,5.086309326171875,-0.024667992788553236,0.010141719647543504,0.008477531028678641
1783174138343378400,5.09637841796875,-0.028556816920638082,-0.01163697230713442,0.0010097432981245218
1783174138353446400,5.1064462890625,-0.026762919241189956,0.004441571777174249,0.011544526517018676
1783174138363515400,5.116515380859375,-0.014790741896629333,0.00022051088288426398,-0.005140139367431402
1783174138373583600,5.12658349609375,-0.013296119424700737,-0.0077546875136904414,0.0021657631991431115
1783174138383652400,5.13665234375,-0.015543021568655967,-0.009443599581858142,-0.004461043662624433
1783174138393721300,5.146721435546875,-0.012400047367811202,0.013275341498153284,-0.0066135729208588595
1783174138403789600,5.15678955078125,-0.003121346890926361,0.01783686812687665,-0.010504205417539924
1783174138413858300,5.1668583984375,-0.022127076134085655,-0.004942972827516496,0.001396806386951357
1783174138423926300,5.17692626953125,-0.0005786766707897186,-0.01597303788322024,-0.005050826249318197
1783174138433995500,5.18699560546875,-0.004471592456102371,-0.000008365969546139239,-0.010872636871132999
1783174138444064300,5.197064208984375,-0.018387305083870886,0.0009002915742807089,0.011681660832231863
1783174138454132500,5.207132568359375,-0.030208091259002683,-0.005541377112083136,-0.005563278416637331
1783174138464201500,5.217201416015625,-0.016890344524383545,-0.008901455529173836,0.006346008025854825
1783174138474269400,5.22726953125,-0.02811024219691753,-0.008899838960822672,-0.006693734618136659
1783174138484338400,5.23733837890625,-0.012548515927791595,-0.00965353427180089,-0.006334637248469516
1783174138494407400,5.247407470703125,-0.015843465819954872,0.013112771347584202,-0.011446281173778697
1783174138504475400,5.257475341796875,-0.014796002593636512,0.005451013681199401,0.001848075552098453
1783174138514544400,5.26754443359375,-0.02182955449223518,-0.0021418800000566987,-0.006789276547636836
1783174138524612400,5.2776123046875,-0.029907062485814092,0.008742556906724349,0.012269835983728989
1783174138534681600,5.287681640625,-0.003869534909725189,0.003842519038636237,0.006876087181409821
1783174138544750300,5.297750244140625,-0.004319032242894172,0.013441574043687432,0.0004761570112314075
1783174138554818300,5.307818359375,-0.023622867649793624,0.004440512331249192,0.0033507078005466607
1783174138564887600,5.317887451171875,-0.008359247544407844,0.0036169666544534265,-0.0029445564187597483
1783174138574956500,5.32795654296875,-0.012400047367811202,-0.006421237819688394,-0.022935186779731883
1783174138585024300,5.338024169921875,-0.01883504885137081,0.001455450372165069,-0.017564197798492387
1783174138595093500,5.348093505859375,-0.027817396730184553,0.010784456264181062,0.009733723368542268
1783174138605161500,5.358161376953125,-0.03320259689986706,-0.003742145670391619,0.006478584896959364
1783174138615230500,5.36823046875,-0.025720716711878776,0.002235805361205712,-0.011661558759119362
1783174138625299500,5.378299560546875,-0.017489479461312293,-0.010089112677471711,-0.004297441465593874
1783174138635367400,5.388367431640625,-0.012100187638401984,0.013022782376036048,-0.015765075954655185
1783174138645436400,5.3984365234375,-0.015988427248597146,-0.00005318235880695283,0.009860162759805098
1783174138655504400,5.40850439453125,-0.011501637223362922,0.0033946748064365238,-0.010616113959951325
1783174138665573400,5.418573486328125,-0.01584521938562393,-0.002577705000899732,-0.002937925748573616
1783174138675642400,5.428642333984375,-0.015846388429403304,-0.0015750581638421862,-0.014269476235192268
1783174138685710300,5.43871044921875,-0.0218330616235733,0.005604368478851393,-0.02003488962780684
1783174138695779600,5.448779541015625,-0.005823007065057754,0.0035943712301552294,0.0024608097561169416
1783174138705847600,5.45884765625,-0.01570142700076103,0.010351700003258883,0.0055964226344134655
1783174138715916300,5.468916259765625,-0.027974048596620556,0.01262578241508454,-0.01258173321080394
1783174138725985500,5.478985595703125,-0.010467618000507354,0.011421347661921754,0.0021842121712863445
1783174138736053500,5.489053466796875,-0.010318564918637274,-0.0038156949637923386,0.0032725645304191855
1783174138746122200,5.499122314453125,-0.01824818887412548,0.005672227816982195,-0.0037666407908312975
1783174138756190500,5.5091904296875,-0.018546879559755324,0.002031999017950147,-0.011032348344335332
1783174138766259500,5.519259521484375,-0.011813187390565872,0.005455114467581733,0.014279248710535465
1783174138776328400,5.529328369140625,-0.015555296528339386,-0.01005173067599535,-0.006079091584822163
1783174138786396400,5.539396484375,-0.015556465572118759,0.002294531544810161,-0.0032538506967946883
1783174138796465400,5.54946533203125,-0.0020890812337398526,0.0028318167592864484,-0.0009389796168543398
1783174138806533400,5.559533447265625,-0.02258767938315868,0.013266938995989038,0.0033493286942131817
1783174138816602400,5.569602294921875,-0.025282325294613838,0.004325790777243673,0.006339897945476696
1783174138826671400,5.57967138671875,-0.00582885228395462,-0.011198288628924637,0.009464432307332753
1783174138836739600,5.589739501953125,-0.013309563428163527,-0.007243066463433205,0.003703868619771674
1783174138846808300,5.599808349609375,-0.027974048596620556,-0.009670330142974854,0.006781842159852385
1783174138856877300,5.609877197265625,-0.019448212313652038,-0.00972249872162938,0.014678942952072248
1783174138866945500,5.619945556640625,-0.01421089618206024,0.006391838195268064,0.006081018680427223
1783174138877014300,5.63001416015625,-0.013463877207040786,-0.010586148079950362,0.0018906086527276783
1783174138887082200,5.640082275390625,-0.023940847557783126,-0.001236026334669441,0.006351898910524323
1783174138897151500,5.6501513671875,-0.025887889972329138,0.015615383551968261,-0.006295620412332937
1783174138907220500,5.660220458984375,-0.014364625439047813,-0.006645538961701095,-0.0050064665177837015
1783174138917288400,5.670288330078125,-0.020202245551347732,0.0023855251633562147,0.00911029424057342
1783174138927357400,5.680357421875,-0.02154781494140625,0.007031232077348977,0.006931644160393625
1783174138937425400,5.69042529296875,-0.022592355558276177,-0.0027549247313290834,0.005267236345820128
1783174138947494400,5.700494384765625,-0.014960253244638443,0.0023519973530899733,-0.004915975222736597
1783174138957563400,5.7105634765625,-0.024240122765302657,0.008805776602355762,0.003220761277945712
1783174138967631400,5.72063134765625,0.006286532923579216,-0.007067655097600072,-0.025863632313907144
1783174138977700400,5.730700439453125,-0.020800211444497108,-0.004730298191215843,0.0029862675354816017
1783174138987768300,5.740768310546875,-0.021845921105146406,0.001987219161307439,-0.0056592678707093
1783174138997837600,5.750837646484375,-0.01885550711750984,0.01225505853970535,0.012846594692068173
1783174139007906600,5.760906494140625,-0.029181670820713042,0.0006381426399108023,0.011208992686029522
1783174139017974300,5.770974365234375,-0.021997896796464918,0.008890285681188105,0.01535023894291371
1783174139028043500,5.78104345703125,-0.024541736060380934,-0.006701141606457531,0.013622848894726484
1783174139038111500,5.791111572265625,-0.01945288848876953,0.003934791298815981,0.00010682137534022331
1783174139048180200,5.80118017578125,-0.005985504150390624,0.0054747598829679184,0.011680637918924913
1783174139058249500,5.81124951171875,-0.01930441992878914,-0.004751304446626454,-0.0033703258164692667
1783174139068317400,5.8213173828125,-0.011971008300781249,0.00021172478822991251,-0.01406460131285712
1783174139078385400,5.831385498046875,-0.018853753551840782,0.004630829005269333,0.002559018566738814
1783174139088454100,5.8414541015625,-0.021845921105146406,-0.008532202091673389,0.013297197136934846
1783174139098522000,5.851522216796875,-0.010023965886235237,-0.02174897266984917,0.002206898927129805
1783174139108591400,5.86159130859375,-0.012116554251313208,-0.0036961693705059584,-0.005835583418840542
1783174139118659300,5.871659423828125,-0.01810088935792446,-0.011378869360219687,-0.0016048596470616757
1783174139128728000,5.88172802734375,-0.02363748069703579,-0.01597947675716132,0.005362960938410833
1783174139138797300,5.89179736328125,-0.018697101685404775,0.00419017256568186,0.0015405622391961515
1783174139148865300,5.901865234375,-0.016754735445976256,0.008378299304749816,0.0031048158812336623
1783174139158934000,5.91193408203125,-0.0200467627286911,-0.002818683283077553,0.009410007839510216
1783174139169002200,5.922002197265625,-0.014510171389579772,0.010153784544672816,0.0015749668322969227
1783174139179071200,5.9320712890625,-0.009123802176117897,-0.004536163858603686,-0.002172658730810508
1783174139189140200,5.94214013671875,-0.007924947780370712,0.0033105219206307082,-0.010159675429342313
1783174139199208200,5.952208251953125,-0.0062777650952339165,-0.008114807796664536,-0.005942331728944554
1783174139209277200,5.962277099609375,-0.0185480486035347,-0.00022008162462152538,0.029786532245529813
1783174139219345400,5.972345458984375,-0.01959668087363243,0.0025318382988683877,-0.005332803262164816
1783174139229414100,5.9824140625,-0.019746318477392194,-0.003221254468290135,0.008684022519364953
1783174139239483100,5.992483154296875,-0.006129881057143211,0.005333396917209029,0.0096144443704281
1783174139249551400,6.00255126953125,-0.017953005319833754,0.006294944558897986,-0.0005904767064377665
1783174139259620000,6.0126201171875,-0.013614099332690238,-0.005522590213222429,-0.012631198375718668
1783174139269689300,6.022689453125,-0.01930208184123039,0.0019370964092668146,-0.012245724455779417
1783174139279757300,6.03275732421875,-0.012419921112060545,0.0045274416960310185,-0.009156033078441397
1783174139289826000,6.042825927734375,-0.006435001483559608,0.006055043988954276,-0.0012490593461785464
1783174139299894300,6.052894287109375,-0.026189503267407415,0.0013960483351256698,-0.005304399151587858
1783174139309963300,6.06296337890625,-0.01676291875243187,0.01339650192609988,-0.016904363916581497
1783174139320032000,6.073031982421875,-0.01332300743162632,-0.0005122147053014486,-0.010770217676274478
1783174139330100200,6.083100341796875,-0.007189034721255302,-0.01117181161395274,-0.009208685714285821
1783174139340169200,6.093169189453125,-0.010332593443989754,-0.004497521481802687,0.013265788218518718
1783174139350237200,6.1032373046875,-0.02215864031612873,-0.027551293139904735,-0.00839138711518608
1783174139360306200,6.11330615234375,-0.03068915277421474,-0.009967778719589114,-0.009093525768863037
1783174139370375200,6.123375244140625,-0.007646130838990211,0.0001430708656553179,-0.0037049189325422047
1783174139380443400,6.133443359375,-0.012435118681192398,-0.00586834404412657,-0.018226643762597812
1783174139390512000,6.14351220703125,-0.018721651604771614,-0.004896695133531466,-0.0012954375048633664
1783174139400581000,6.1535810546875,-0.02021978120803833,-0.01984803441935219,-0.004623266753321514
1783174139410649300,6.1636494140625,-0.016630232283473014,-0.011405063247401266,0.002954886016529053
1783174139420718000,6.173718017578125,-0.028451602980494498,0.0008315280538517981,-0.006346820876607671
1783174139430786000,6.1837861328125,-0.014085223975777625,0.015564913740055634,0.00017012326936237512
1783174139440855300,6.193855224609375,-0.0031616789013147353,0.006566637639747932,-0.0008575484110973775
1783174139450924000,6.203924072265625,-0.02411094342768192,-0.008656714387331158,0.020098063657665623
1783174139460992300,6.2139921875,-0.005855740290880203,0.004657232955005019,0.0036854196476284414
1783174139471061200,6.224061279296875,-0.00570727173089981,0.0021600641107186675,0.002503324590437114
1783174139481129200,6.234129150390625,0.0022246903121471403,-0.00034150691404938695,0.002686745732789859
1783174139491198200,6.2441982421875,-0.006903788039088248,0.0012980587202124298,0.013211235886532812
1783174139501267200,6.25426708984375,-0.009448211824893952,-0.007469824424013495,0.0004259155281819403
1783174139511335200,6.264335205078125,-0.012440963900089263,0.0015592212738934903,0.008239721951121463
1783174139521404200,6.274404052734375,-0.018724574214220045,0.011513775185728445,0.003334514717571437
1783174139531472100,6.28447216796875,-0.020218612164258954,0.003689611765556037,0.007627006013412028
1783174139541541400,6.294541259765625,-0.017227613654732705,-0.00277286224681884,0.0071239153294824055
1783174139551610000,6.304610107421875,-0.023663784182071684,-0.011789295058324932,-0.004621156994625925
1783174139561678000,6.314677978515625,-0.01992342860996723,0.0022766853608656673,0.014600269958982243
1783174139571747300,6.324747314453125,-0.019326631760597228,0.012901987274270504,0.007397663370100781
1783174139581816300,6.33481640625,-0.026505729609727857,0.00454263926516287,0.003841496125329286
1783174139591884000,6.344884033203125,-0.017076807007193565,-0.011891230195993557,-0.0015247436155565082
1783174139601953300,6.354953369140625,-0.013934417328238486,0.0028988815129734574,0.002362345217168331
1783174139612021200,6.365021240234375,-0.012584756284952163,0.0037741573770064857,-0.0035693737862166016
1783174139622090200,6.37509033203125,-0.0012122983992099762,-0.02176179561880417,-0.007284202191419899
1783174139632159200,6.3851591796875,-0.0022597616255283356,-0.0030645295366179197,-0.006719636244373396
1783174139642227200,6.395227294921875,-0.011239186894893645,0.004979286249913275,0.00769371457407251
1783174139652296200,6.405296142578125,-0.025157237610220907,-0.0029472415661904957,0.00755805982989259
1783174139662364200,6.4153642578125,-0.018722820648550985,-0.0036160624721553176,0.0031316125566139817
1783174139672433200,6.42543310546875,-0.01243453415930271,0.009175294901337474,-0.007520814825734123
1783174139682502100,6.435502197265625,-0.01108779572546482,0.00803393371333368,0.007811450069071724
1783174139692570000,6.445570068359375,-0.011838321831822395,-0.012450699842814356,-0.0078492521956563
1783174139702639400,6.455639404296875,-0.01707914509475231,-0.0047592776905279605,0.013008635119674726
1783174139712708400,6.465708251953125,-0.005406827479600906,0.007207200565608218,0.004101891494030133
1783174139722776000,6.475776123046875,-0.017825579547882078,-0.0008051149709615856,0.0003274053234606981
1783174139732845300,6.48584521484375,-0.0175239662528038,0.005096546820877119,-0.0023823468255810437
1783174139742913300,6.495913330078125,-0.017671850290894506,-0.0048322607283480465,0.005054077652329579
1783174139752982000,6.50598193359375,-0.02649871534705162,-0.01238825646531768,-0.0032297574351541694
1783174139763051300,6.51605126953125,-0.009288637349009513,0.019195470528444274,-0.011925945316348224
1783174139773119200,6.526119140625,-0.018565584260225296,-0.005640800632257015,-0.01162780261998996
1783174139783188200,6.536188232421875,-0.012732055801153183,-0.002103940876154229,-0.016470730872824788
1783174139793256200,6.546256103515625,-0.013181553134322165,-0.0031863475516904142,-0.007335603585094213
1783174139803325200,6.5563251953125,-0.021861118674278257,0.004843330111633986,-0.0010238905544858426
1783174139813394400,6.56639453125,-0.01752221268713474,0.013790095220413058,-0.015420792561629787
1783174139823462100,6.576462158203125,-0.012733224844932556,0.010247974767303094,-0.0001546608387492597
1783174139833531100,6.58653125,-0.018569091391563413,0.0040433845061343164,0.0004943867876660078
1783174139843600400,6.596600341796875,-0.018272154271602628,-0.0013638996311929076,0.004843677171505988
1783174139853668000,6.606668212890625,-0.041615620458126064,0.0025396288796793666,0.0022670590159948913
1783174139863737300,6.6167373046875,-0.017078560572862625,0.0008184493765700608,0.0018715112266130744
1783174139873805300,6.626805419921875,-0.021567104163765907,-0.012337256930442526,-0.0003859305776655674
1783174139883874300,6.636874267578125,-0.017078560572862625,-0.015060590080264955,-0.0003992832495830953
1783174139893943300,6.646943359375,-0.015281155762076377,-0.0061075504943262785,0.011911724994750694
1783174139904011300,6.65701123046875,-0.019470424145460127,0.00020355974808335304,-0.0053394887312781065
1783174139914080300,6.667080322265625,-0.030692659905552862,-0.0013697174506261945,-0.005163456310937181
1783174139924149200,6.677149169921875,-0.020365911680459974,-0.00425971240424551,0.0021382724040187894
1783174139934217200,6.68721728515625,-0.009290975436568259,-0.020911809459654613,-0.002872596294246614
1783174139944286500,6.697286376953125,-0.013031331008672714,-0.005838606492988765,-0.0032275106791406867
1783174139954354200,6.707354248046875,-0.019614801052212714,0.00645142289539799,-0.011944120293855666
1783174139964423200,6.717423095703125,-0.007943067958950997,0.009620947176450862,-0.007720721312006935
1783174139974492400,6.727492431640625,-0.020365911680459974,-0.004559663465199992,0.01229705278421752
1783174139984560000,6.73756005859375,-0.007947744134068489,-0.008408612244622781,0.003604298969125375
1783174139994629000,6.747629150390625,-0.019168226328492164,0.006712978174723684,-0.014090923064202069
1783174140004697300,6.757697265625,-0.01602466760575771,-0.005469992376305162,0.010438053979305549
1783174140014766300,6.767766357421875,-0.01722293747961521,-0.007273708196869119,0.008871708844881504
1783174140024835300,6.77783544921875,-0.026200024661421774,0.006633373599871993,0.02699865509266965
1783174140034903300,6.7879033203125,-0.01782324146032333,0.0036255244202446192,0.012506841343687847
1783174140044972300,6.79797216796875,-0.015430208843946455,-0.004872136081010103,0.0032107513405848294
1783174140055041300,6.808041259765625,-0.006452537140250206,0.012320579790277406,0.002610703088203445
1783174140065109200,6.818109130859375,-0.02890168483555317,-0.0020120704747736452,0.007568535558134317
1783174140075178500,6.828178466796875,-0.035633038917183876,0.0010632544504944235,-0.010532673460198566
1783174140085246500,6.83824658203125,-0.005557049605250358,0.011045143893826753,0.0065864931176882234
1783174140095315500,6.8483154296875,0.0014735796838998795,-0.0007903831927105784,0.002288202268723398
1783174140105384700,6.858384765625,-0.008850245931744575,0.004607804322708398,-0.001826101182308048
1783174140115452400,6.868452392578125,-0.011395254239439963,0.005332374003902077,0.0035117070485372096
1783174140125521700,6.878521728515625,-0.01468845056593418,-0.011890015486441552,0.011353597921645269
1783174140135589600,6.888589599609375,-0.02755611544549465,-0.0022169819297268986,0.004211480215191841
1783174140145658400,6.898658447265625,-0.03758183489739895,0.0011090206878259777,0.000471252507250756
1783174140155727600,6.9087275390625,-0.017081483182311057,-0.01027718259547837,0.006903714973852038
1783174140165795600,6.918795654296875,-0.010347791013121605,0.0095055863016285,-0.00022167992666363714
1783174140175864600,6.928864501953125,-0.014089315629005431,-0.005799032534426078,-0.014856610207073389
1783174140185933600,6.93893359375,-0.016933014622330666,0.0016276651339139788,-0.0003341181920375675
1783174140196001500,6.94900146484375,-0.006906126126646995,0.004550758639536798,0.018778834285261108
1783174140206070800,6.95907080078125,-0.003013210341334343,0.0059706353748217224,0.00402862532841973
1783174140216138500,6.969138427734375,-0.008700023806095122,0.0048636331141460685,-0.008444505541911349
1783174140226207500,6.97920751953125,-0.024113281515240666,-0.00524081412977539,-0.01375422932258807
1783174140236276700,6.98927685546875,-0.01992342860996723,0.009642620152141899,-0.011718960635317488
1783174140246344400,6.999344482421875,-0.011844751572608947,-0.00697164737721905,-0.007405061225267127
1783174140256413400,7.009413330078125,-0.010948679515719413,-0.0065214102585334326,-0.004319224039139226
1783174140266482700,7.019482666015625,-0.031000702941417692,-0.005473526907106861,0.007975097931874916
1783174140276550700,7.029550537109375,-0.01947860745191574,-0.005885295178927481,-0.0053190578646026545
1783174140286619600,7.03961962890625,-0.01678454606235027,0.003325345030426979,-0.011982972733210771
1783174140296687600,7.0496875,-0.01424362940788269,0.009860436754440888,0.01061054273569025
1783174140306756600,7.059756591796875,-0.017537410256266595,-0.009526775220129638,0.009340422335173935
1783174140316825600,7.06982568359375,-0.013645663514733314,-0.007499287980515509,0.00916761391838081
1783174140326893600,7.0798935546875,-0.0176852942943573,-0.00015660620066337285,0.008837541713798419
1783174140336962600,7.089962646484375,-0.031153263154625892,-0.0011854743243660778,0.003205125317396596
1783174140347031600,7.100031494140625,-0.015293430721759795,0.009166243945201859,0.0017271891187876462
1783174140357099500,7.110099609375,-0.02442074002921581,-0.007727123653329908,0.00948311874149367
1783174140367168800,7.120168701171875,-0.02262567330598831,-0.005467690821364521,-0.005590212089335546
1783174140377236500,7.130236572265625,-0.023223639199137686,0.0027703323630150407,0.00006648023179732263
1783174140387305500,7.140305419921875,-0.022473113092780113,-0.004736910595092922,-0.0032818346822634336
1783174140397374700,7.150374755859375,-0.021724340552091596,-0.003831203060178086,-0.005725693303579464
1783174140407442700,7.160442626953125,-0.030553543695807456,-0.004671462409757078,-0.0032127241019625215
1783174140417511400,7.170511474609375,-0.03474339660108089,-0.004977532684244215,0.006086114980652928
1783174140427579600,7.18057958984375,-0.017833178332448005,0.009613558454439043,0.004536940176738426
1783174140437648600,7.190648681640625,-0.02052431711256504,-0.003329884208226576,-0.0015543167699128388
1783174140447717600,7.200717529296875,-0.01648410181105137,-0.013027942608343437,-0.0019816205375827846
1783174140457785600,7.21078564453125,-0.01079495025873184,-0.0045219618033152074,0.009164042854961007
1783174140467854600,7.2208544921875,-0.022017186018824575,-0.005444867068203166,0.01644087459067814
1783174140477923600,7.230923583984375,-0.020970307314395902,-0.0023900552080012858,-0.00916841763597913
1783174140487991600,7.240991455078125,-0.022763620471954345,-0.011598357329796999,0.009430758366594091
1783174140498060500,7.251060546875,-0.019020926812291145,-0.002996524068014696,0.01686917387219146
1783174140508128800,7.261128662109375,-0.030544775867462157,-0.001979812172986567,0.004595090971607715
1783174140518197500,7.271197509765625,-0.013185644787549971,0.00434666003533639,0.025190390961151568
1783174140528266800,7.281266845703125,-0.02216390101313591,0.00890229577939026,0.004159293370228261
1783174140538334700,7.291334716796875,-0.018571429479122162,0.01171434839228168,-0.001395125886518508
1783174140548403500,7.301403564453125,-0.03024316257238388,-0.003019895810447633,-0.0029408574911765754
1783174140558471700,7.3114716796875,-0.004503741160035133,-0.004832918315473943,0.0158051796361804
1783174140568540700,7.321540771484375,-0.003456277933716774,-0.003884312353748828,0.004447143001435325
1783174140578609400,7.331609375,-0.02171206559240818,0.0016565624348353594,0.018665455304970963
1783174140588677600,7.341677734375,-0.003456277933716774,0.011993548926152288,0.0033997528403531757
1783174140598746600,7.35174658203125,-0.017222352957725524,0.00926771329198964,0.003067981869028881
1783174140608815600,7.361815673828125,-0.02141103681921959,0.006823708540201187,0.00468129881718196
1783174140618883600,7.371883544921875,-0.011088964769244194,-0.004876355598401278,0.0007033990290015935
1783174140628952600,7.38195263671875,-0.016029343780875206,-0.0014397322132252157,-0.002268648184882477
1783174140639020800,7.392020751953125,-0.027401217144727704,-0.004962243783567101,0.0009448157025966793
1783174140649089500,7.402089599609375,-0.035928806993365286,-0.003113117918698117,-0.00849005258353427
1783174140659158500,7.412158447265625,-0.013034253618121147,-0.004545918067637831,0.0035452987908851353
1783174140669226800,7.422226806640625,-0.010941080731153487,-0.0004288381376303732,0.00494100919929333
1783174140679295500,7.43229541015625,-0.02635433844029903,-0.002946803174773231,0.004460541339125484
1783174140689364700,7.44236474609375,-0.017526888862252236,0.007868422687007114,0.003807009333837777
1783174140699432700,7.4524326171875,-0.019619477227330206,-0.0021838011793326585,-0.00218151789070107
1783174140709501400,7.46250146484375,-0.012886954101920128,-0.0007238024962134659,-0.00496176885953173
1783174140719569700,7.472569580078125,-0.014831073907017708,0.01691867556972429,0.013817668213928118
1783174140729638700,7.482638671875,-0.019771452918648718,0.0013279150023590772,0.009165047501958906
1783174140739707400,7.492707275390625,-0.011094225466251372,0.0012108005618676543,-0.015026879606908187
1783174140749775600,7.502775634765625,-0.031895021432638164,-0.0007148794042412191,0.004039566847542301
1783174140759844600,7.5128447265625,-0.026958149552345274,0.00012443009726703167,-0.010131399182928725
1783174140769913600,7.52291357421875,-0.013042436924576758,0.004156526024406776,0.007414788034837693
1783174140779981600,7.532981689453125,-0.019178163200616834,0.009133921711333096,0.008227319127274677
1783174140790050600,7.543050537109375,-0.018881226080656052,0.004060481771407649,-0.005642846458870917
1783174140800118800,7.553118896484375,-0.023221885633468626,0.009219736831262707,0.0011304014025721699
1783174140810187500,7.5631875,-0.02067979993522167,0.005978270692005753,0.0026903807282913474
1783174140820256500,7.573256591796875,-0.013947861331701278,-0.0044105738507118075,0.008416448491206392
1783174140830324700,7.58332470703125,-0.016941782450675964,0.00035145291932858525,0.031239900258462874
1783174140840393500,7.5933935546875,-0.02367664366364479,-0.0028932920224033296,0.0056552766821812836
1783174140850462700,7.603462646484375,-0.020232056167721748,0.005359015415655448,0.007084642765019088
1783174140860530700,7.61353076171875,-0.014245967495441436,-0.00901182970162481,0.015819637419795616
1783174140870599400,7.623599365234375,-0.04028349507153034,-0.0009276088394690304,0.003896039324160665
1783174140880667600,7.633667724609375,-0.014845102432370185,-0.001826932299369946,-0.0020931272211950273
1783174140890736600,7.643736572265625,-0.02068038445711136,-0.0057866571100428695,0.018870174963679164
1783174140900805400,7.653805419921875,-0.008857260194420813,0.0023164785151369867,0.006901395152602344
1783174140910873600,7.66387353515625,-0.015738836401700974,0.019034827473480252,0.006736651311255991
1783174140920942600,7.673942626953125,-0.02097615253329277,0.008449172583874315,0.001048568338016048
1783174140931011600,7.684011474609375,-0.017234627917408943,0.0019608882768079637,0.007386210394324734
1783174140941079600,7.69407958984375,-0.003617605975270271,0.006789815403753891,0.0070352780648041515
1783174140951148500,7.7041484375,-0.016635492980480192,0.004193862360110506,-0.004695153812598437
1783174140961216500,7.714216552734375,-0.009001637101173401,0.00035466778972186144,0.004297331867739558
1783174140971285500,7.724285400390625,-0.014237199667096138,0.008432696373108775,0.003555445725563913
1783174140981354500,7.7343544921875,-0.017681202641129493,0.005736351694911718,0.005228730966337025
1783174140991422700,7.744422607421875,-0.01783259381055832,0.00023480426971800623,-0.0010174242810811846
1783174141001491500,7.754491455078125,-0.012595277678966522,0.003902167670847848,0.001441531444666907
1783174141011560700,7.764560791015625,-0.019328969848155974,0.010488176731346175,-0.003957541986741126
1783174141021628700,7.774628662109375,-0.010201660540699958,0.015237864609621465,0.005778610800905153
1783174141031697400,7.784697509765625,-0.019478022930026054,0.00389472414990887,0.01036896166531369
1783174141041765400,7.794765380859375,-0.015288170024752615,0.002860549663426354,-0.002795284141181037
1783174141051834600,7.804834716796875,-0.018577859219908715,0.0025865002287086096,-0.0002778579601552337
1783174141061903400,7.8149033203125,-0.0063064066678285595,0.009917993894265963,0.007369606319395825
1783174141071971600,7.8249716796875,-0.011992051088809966,0.0071360898244660345,0.0019953294025268405
1783174141082041000,7.835041015625,-0.01678162345290184,0.006976597546972334,0.005949793516192585
1783174141092109800,7.84510986328125,-0.018724574214220045,0.008245795498881488,0.005424436201527714
1783174141102178000,7.855177978515625,-0.012588263416290282,-0.001638460522564128,-0.002346992384409532
1783174141112247000,7.8652470703125,0.0019259996265172958,-0.013499304713448509,-0.00352440213332884
1783174141122315000,7.87531494140625,-0.012590016981959343,-0.005858334106765687,-0.0004576441070064902
1783174141132384000,7.885384033203125,-0.01692892296910286,0.005448218935914338,-0.003563702097255736
1783174141142453000,7.895452880859375,-0.007052841120958328,0.013137549595814197,0.01028787751942873
1783174141152521000,7.90552099609375,-0.010645897176861763,-0.007004608931904658,0.007777145940670743
1783174141162590000,7.91558984375,-0.024265841728448867,-0.007646149105299264,-0.006555011134035885
1783174141172659000,7.925658935546875,-0.013942600634694099,0.007080852505890652,-0.01472999728587456
1783174141182727200,7.93572705078125,-0.014241291320323942,0.008129703971697017,-0.0013161697656381875
1783174141192796000,7.9457958984375,-0.02516366735100746,0.009473099670978263,-0.006915789004135877
1783174141202863900,7.95586376953125,-0.026062662017345428,-0.00918775252411142,0.008198869350925087
1783174141212933000,7.96593310546875,-0.008855506628751755,0.012029387424513698,-0.0007846658379770815
1783174141223001900,7.976001953125,-0.02486789927482605,0.005747256681416183,-0.007602392161963507
1783174141233069800,7.98606982421875,-0.015143208596110343,0.0100345238128677,0.009445700207399203
1783174141243139000,7.99613916015625,-0.01948328362703323,0.009252095597749576,-0.013727679242379963
1783174141253207000,8.00620703125,-0.008709960678219796,0.0002755746715236455,-0.00831918952865526
1783174141263276000,8.016276123046875,-0.017836685463786126,0.0010777396335732191,-0.00759579802439548
1783174141273344000,8.026343994140625,-0.0057183776468038554,0.006818539174739271,0.010288169780373573
1783174141283413000,8.0364130859375,-0.012902151671051978,0.010481692191632464,0.0037316060100682077
1783174141293481000,8.04648095703125,-0.01230477029979229,-0.0031790866938419637,0.005415330446464941
1783174141303550000,8.056550048828125,-0.01215571721792221,0.0005401347586885094,-0.010850525504024698
1783174141313619000,8.066618896484375,-0.024724691411852837,-0.001950312083866447,0.015318364233616738
1783174141323687200,8.076687255859374,-0.014102759632468223,0.0006013634266331791,-0.0006436316657811403
1783174141333756000,8.086755859375,-0.013355740657448769,0.002311482679611072,0.00836897435397841
1783174141343825200,8.0968251953125,-0.019489713367819784,0.006614294440066441,0.01241447775196284
1783174141353893000,8.10689306640625,0.006547229686379432,0.0007808390462305397,-0.0068909194243606175
1783174141363961900,8.1169619140625,-0.008268062129616737,-0.014020113717159256,0.007741554037481546
1783174141374029800,8.12702978515625,-0.0036281273692846294,0.00591401894991286,0.0026557295400183646
1783174141384099000,8.13709912109375,-0.020837036323547362,0.002009056533779949,0.004416309471754357
1783174141394167800,8.147167724609375,-0.01739595595896244,-0.01025702572343871,0.009735175540111959
1783174141404236000,8.157236083984374,-0.024281039297580718,0.0018644695644732564,0.009753295718692243
1783174141414305000,8.167304931640626,-0.00782265644967556,-0.005310564030893147,0.008581621590815484
1783174141424374000,8.1773740234375,-0.015454174241423606,0.010752152296621352,0.0022320699010044335
1783174141434442000,8.18744189453125,-0.027427520629763603,0.012791722699673845,-0.010396242397883906
1783174141444511000,8.197510986328124,-0.015455927807092667,-0.010243115929095074,0.009474213915830478
1783174141454579000,8.207578857421876,-0.02054477537870407,-0.012835726238181813,0.01609756844518706
1783174141464648000,8.21764794921875,-0.02249064874947071,0.012073034769995137,0.01744857206218876
1783174141474717000,8.227717041015625,-0.015457681372761725,0.003901756678894162,0.012253368906117975
1783174141484785200,8.23778515625,-0.008425883039832115,-0.006806501677073538,-0.0007513846228830516
1783174141494854000,8.24785400390625,-0.012617489510774611,-0.0046682840719819065,0.00447890811287798
1783174141504923000,8.2579228515625,-0.019354688811302184,-0.001613253016071394,0.015579435455752536
1783174141514991000,8.2679912109375,-0.019356442376971244,0.0019889544606674463,0.017067893048375846
1783174141525059800,8.278059814453124,-0.019354688811302184,-0.008429947293596342,0.008462954514054582
1783174141535127800,8.2881279296875,-0.030577509093284605,-0.0009749642456881702,0.019665928451251237
1783174141545197000,8.298197021484375,-0.027585926061868667,0.003471941293729469,0.010415495087625458
1783174141555265800,8.308265869140625,-0.012473112604022025,0.0056541076384019106,0.001929990815045312
1783174141565334000,8.318333984375,-0.0028957214415073393,0.004226458588615059,0.013618264051154256
1783174141575403000,8.328403076171876,-0.027883447703719137,0.009526135899312794,0.011757283351710066
1783174141585471700,8.3384716796875,-0.0326736045897007,0.014482032140484078,0.008779409185238183
1783174141595540000,8.3485400390625,-0.026090134546160697,-0.0033633480864111334,-0.012301802024571224
1783174141605609000,8.35860888671875,-0.004391512957215309,-0.0019014588403049855,-0.006030028278706595
1783174141615678000,8.368677978515626,-0.017108955711126327,-0.00363994567124173,0.0002052950474433601
1783174141625748000,8.378748046875,-0.01097322943508625,0.010715528346970676,0.002970668107550591
1783174141635816200,8.388816162109375,-0.016660627421736716,0.013529097063513473,-0.0063950530656613404
1783174141645885000,8.398885009765625,-0.010674538749456406,0.0022268183371517807,0.0016000921403989195
1783174141655954000,8.408953857421874,-0.01591243940293789,0.0002048109902534634,0.007384739956445991
1783174141666022100,8.419022216796876,-0.014117957201600074,-0.0023815339748281985,-0.0035106476026121524
1783174141676091000,8.4290908203125,-0.023546879804134366,-0.0022377141905017195,-0.01283040160909295
1783174141686160100,8.43916015625,-0.011878069320321082,0.006793139872001483,0.0179850444259122
1783174141696228000,8.44922802734375,-0.023252865293622017,-0.002170128847006708,-0.001020100295357406
1783174141706296800,8.459296875,-0.004697217905521392,-0.006911103695863857,0.00459029606548138
1783174141716366000,8.469365966796875,-0.01637070456445217,-0.00521006279848516,0.002811449824692681
1783174141726434000,8.47943408203125,-0.010533668974041939,0.0012956475674174726,-0.001249205476650968
1783174141736502800,8.489502685546874,-0.022055179941654204,0.00018639855072833595,-0.011686464871512725
1783174141746571000,8.499571044921876,-0.035222704550623894,0.009229536706069484,-0.008537572386534884
1783174141756640000,8.509639892578125,-0.015172434690594672,0.0065323791771195825,-0.0005209368678741157
1783174141766709000,8.519708984375,-0.02804009957015514,-0.009598096023825928,-0.005661852553440257
1783174141776777000,8.52977685546875,-0.015770985105633736,-0.002964457562472671,0.011794199562305584
1783174141786846000,8.539845947265626,-0.012032383099198341,-0.002590747145563364,-0.0026368330433033404
1783174141796915000,8.5499150390625,-0.012332242828607558,0.007625581241305917,-0.0002678206233307719
1783174141806983000,8.55998291015625,-0.007995674929022789,-0.007878953214176,-0.003372819167654961
1783174141817052000,8.570052001953124,-0.018322423154115676,-0.002484035368077457,-0.012644943773280829
1783174141827120000,8.5801201171875,-0.018026070556044577,-0.003156591734243557,0.023292037393385544
1783174141837188900,8.59018896484375,-0.01144376955628395,-0.00034740693187341093,0.0061902786080259824
1783174141847258000,8.600258056640625,-0.024314357045292855,0.0023306714372709394,-0.00021569771044887602
1783174141857326000,8.610326171875,-0.006809095492959022,-0.007584801706345751,-0.0022184797670692204
1783174141867394800,8.620394775390626,-0.02012742674946785,0.008177790030278265,-0.026032257745927198
1783174141877464000,8.630464111328125,-0.016236849051713943,-0.005441633931500837,0.002406065627885982
1783174141887532000,8.640531982421875,-0.017881109127402303,-0.008571657319227233,0.01920403742738999
1783174141897600800,8.650600830078124,-0.029702479824423787,-0.002402613295475021,0.003416886638244614
1783174141907669000,8.6606689453125,-0.012846037569642066,0.0025881076639052477,-0.011310114972945302
1783174141917738000,8.670738037109375,-0.09904197351038456,0.01176693709604442,-0.09709236467941663
1783174141927807000,8.680806884765625,-0.10297522130608558,-0.06268542435793206,-0.01841672297460027
1783174141937875000,8.690875,0.42463527911305426,0.023031276698503644,0.2271424663858488
1783174141947944000,8.70094384765625,-0.5999082593888044,0.028149651758698744,-0.18553740385435522
1783174141958013200,8.71101318359375,0.4898761053085327,-0.015641741835931314,0.20995069122947752
1783174141968081000,8.721080810546875,-0.20059329949319363,0.031232283207587894,-0.09763334882147609
1783174141978150000,8.73114990234375,0.03157411891520023,0.007597441992210224,-0.006790957048069686
1783174141988219100,8.74121923828125,-0.03409749991297722,0.013731496900971979,-0.0014901015604380518
1783174141998286800,8.751286865234375,-0.06628712037801743,0.0011165281408466398,-0.04830643246681429
