time,seconds_elapsed,z,y,x
1783174133319159600,0.07215966796875,0.001340581919066608,0.0012885085307061672,0.0005472050979733467
1783174133329228300,0.082228271484375,-0.0013298154808580875,-0.0008631153032183647,0.002964100567623973
1783174133339296300,0.092296142578125,0.0002734074369072914,-0.0017816396430134773,-0.0003352896310389042
1783174133349365500,0.102365478515625,-0.002242465503513813,-0.002734343521296978,-0.001745052868500352
1783174133359433500,0.11243359375,-0.0012765369610860944,0.0007253694348037243,-0.0010172112379223108
1783174133369502500,0.12250244140625,0.0012674136087298393,0.0010866057127714157,0.00008891429752111435
1783174133379570400,0.1325703125,-0.001899084891192615,-0.0009879963472485542,0.0001605534926056862
1783174133389639400,0.142639404296875,0.00064560875762254,0.001335478387773037,-0.003037978895008564
1783174133399707600,0.152707763671875,-0.0003211187431588769,-0.0023825610987842083,-0.0011098505929112434
1783174133409776400,0.1627763671875,0.0003517993609420955,0.0005117203108966351,-0.0013903200160712004
1783174133419845400,0.172845458984375,0.0004713753005489707,0.0019431696273386478,0.001892825006507337
1783174133429913600,0.18291357421875,0.00106001493986696,-0.000258871354162693,-0.0009045572951436043
1783174133439982300,0.192982421875,0.00021739082876592875,-0.0006668679416179657,-0.00045847799628973007
1783174133450050300,0.20305029296875,-0.00064181158086285,0.000978110358119011,-0.0004863664507865906
1783174133460119600,0.21311962890625,-0.0013957524206489325,0.0007829009555280209,0.0019208648009225726
1783174133470187500,0.2231875,0.0019581662490963936,-0.000013174489140510559,0.005471200682222843
1783174133480256500,0.233256591796875,0.0031509960535913706,-0.0008286340162158012,-0.0017430363222956657
1783174133490324500,0.243324462890625,0.0014906558208167553,0.000533475074917078,-0.00002206140197813511
1783174133500393500,0.2533935546875,0.0019644321873784065,0.0022288430482149124,-0.0017121033743023872
1783174133510461400,0.26346142578125,0.0011570090427994728,0.0012038345448672771,0.0037668533623218536
1783174133520530400,0.273530517578125,-0.000052598712500184774,0.00029569678008556366,0.0015979750314727426
1783174133530599400,0.283599365234375,0.0009650317369960248,-0.0005410127341747284,-0.002257825341075659
1783174133540667600,0.293667724609375,0.0011128372279927135,0.0012662080116569996,0.00008522369898855686
1783174133550736400,0.303736328125,-0.0012220176868140697,0.00009462796151638031,-0.002003417583182454
1783174133560804400,0.313804443359375,-0.00038445350946858525,0.0006413748487830162,0.0004405651707202196
1783174133570873600,0.32387353515625,0.0022811980452388525,0.0016167364083230495,0.0010444184299558401
1783174133580941300,0.33394140625,0.0007757131825201213,0.0003139181062579155,-0.0006133993156254292
1783174133591010300,0.34401025390625,-0.00011282635387033224,-0.00032881414517760277,0.003955405205488205
1783174133601078500,0.35407861328125,-0.0004438572796061635,-0.001691287849098444,-0.00020631658844649792
1783174133611147500,0.3641474609375,-0.0006186871905811131,0.00007217330858111382,-0.000038606347516179085
1783174133621216500,0.374216552734375,0.001987748546525836,-0.0017763269133865833,0.00006179488264024258
1783174133631284500,0.384284423828125,-0.001788078574463725,0.0006343526765704155,0.0003117083106189966
1783174133641353500,0.394353515625,-0.001025881851091981,0.0007563256658613682,0.002805492375046015
1783174133651421400,0.40442138671875,-0.0005804746178910136,0.00014726771041750908,0.0008127265609800816
1783174133661490400,0.414490478515625,-0.0004555723862722516,-0.0009345081634819508,0.002083853352814913
1783174133671558400,0.424558349609375,0.0006215368630364537,-0.001108062919229269,0.0013286524917930365
1783174133681627400,0.43462744140625,-0.00022534839808940887,-0.0014492138288915157,0.0001331595703959465
1783174133691695400,0.4446953125,-0.0006144921062514186,0.0016330867074429989,0.002209589583799243
1783174133701764400,0.454764404296875,0.001240932266227901,-0.001125149428844452,-0.0010607722215354443
1783174133711832600,0.46483251953125,-0.00002416397910565138,0.00016983412206172943,0.001039015594869852
1783174133721901300,0.4749013671875,0.001752963406033814,0.000537350308150053,0.0020781811326742172
1783174133731970600,0.484970458984375,0.000014688586816191673,-0.00021966733038425446,0.0009241597726941109
1783174133742038500,0.49503857421875,0.00037927532684989274,-0.0004561562091112137,0.0012266949051991105
1783174133752107300,0.505107177734375,-0.0014545212034136057,-0.0011240202002227306,0.0008987844921648502
1783174133762175500,0.515175537109375,-0.002396214986220002,0.0018424750305712223,-0.0028370977379381657
1783174133772244500,0.525244384765625,0.0010391671676188707,-0.0041247159242630005,0.0016179888043552637
1783174133782312400,0.5353125,-0.0023150844499468803,0.00001809746026992798,0.0010408818488940597
1783174133792381400,0.54538134765625,0.0018174583092331886,0.0015186346136033535,-0.002011251635849476
1783174133802449400,0.555449462890625,0.001089616445824504,0.002219845075160265,-0.0015007234178483486
1783174133812518400,0.565518310546875,-0.0004043618100695312,0.00013475073501467705,0.0008782402146607637
1783174133822586600,0.575586669921875,0.00035863384255208075,0.001747028436511755,0.0005962115246802568
1783174133832655400,0.5856552734375,0.0009364953730255365,-0.0004327762871980667,-0.0022949937265366316
1783174133842724600,0.595724609375,-0.00018602702766656876,-0.00014648586511611938,0.00244569918140769
1783174133852792600,0.60579248046875,3.882450982928276e-8,-0.002021400723606348,-0.00012596230953931808
1783174133862861300,0.615861328125,-0.0008148883935064077,0.0024383291602134705,-0.0011150604113936424
1783174133872929300,0.62592919921875,0.001791290007531643,0.00025712233036756516,-0.0017443618271499872
1783174133882998500,0.63599853515625,-0.0003592126886360347,0.0017663356848061085,-0.0010729788336902857
1783174133893066500,0.64606640625,0.001440090243704617,0.002055755816400051,-0.002399651100859046
1783174133903135500,0.656135498046875,0.0006097166333347559,-0.0023230132646858692,0.0011511417105793953
1783174133913203500,0.666203369140625,-0.0016095112077891827,0.0007115770131349564,-0.00008320668712258339
1783174133923272400,0.6762724609375,0.0012832141947001219,0.000498523935675621,0.0007160080131143332
1783174133933340700,0.686340576171875,-0.00344738457351923,-0.0009378138929605484,0.002381343860179186
1783174133943409400,0.696409423828125,0.001979338936507702,0.001905643381178379,-0.002369202906265855
1783174133953478400,0.706478515625,-0.001207617693580687,-0.0024233530275523663,-0.0023607423063367605
1783174133963546600,0.716546630859375,-0.0038960790261626244,0.0004986673593521118,-0.003778609214350581
1783174133973615400,0.726615478515625,-0.0007328218198381364,-0.0015855217352509499,0.0007503458764404058
1783174133983683300,0.736683349609375,-0.0018327073194086552,-0.00026992056518793106,0.0009873671224340796
1783174133993752600,0.746752685546875,0.0007738685817457736,-0.0011721057817339897,-0.000472803832963109
1783174134003820500,0.756820556640625,0.00008863722905516624,-0.002412872388958931,0.003018866525962949
1783174134013889500,0.7668896484375,-0.0017289393581449986,0.0016560861840844154,0.0037194667384028435
1783174134023957500,0.77695751953125,-0.0007446350646205246,0.0027903267182409763,0.0005087598692625761
1783174134034026500,0.787026611328125,0.0022859543096274137,0.002174780238419771,-0.0005560105200856924
1783174134044095500,0.797095458984375,-0.0008656304562464356,-0.0030207810923457146,0.003562301630154252
1783174134054163500,0.80716357421875,-0.0007297410047613084,0.002383541315793991,-0.0014549328479915857
1783174134064232400,0.817232421875,0.00025722652208060026,-0.0000010533258318901062,0.0011845262488350272
1783174134074300400,0.827300537109375,-0.00153514149133116,-0.0007783160544931889,0.0036406535655260086
1783174134084369400,0.837369384765625,-0.0006642878288403153,0.0027879225090146065,0.0005569793283939362
1783174134094437400,0.847437255859375,0.0029639038257300854,0.0007686209864914417,0.0005241581238806248
1783174134104506400,0.85750634765625,-0.0013296445831656456,0.0021958090364933014,-0.0008305918890982866
1783174134114574300,0.86757421875,0.0004722820012830198,0.0009595951996743679,0.002340680453926325
1783174134124643300,0.877643310546875,0.0008989204070530832,0.00026051560416817665,0.0012043097522109747
1783174134134712600,0.887712646484375,0.0008926899754442275,0.00007399823516607285,0.0030263173393905163
1783174134144780300,0.8977802734375,-0.001063668169081211,-0.0013907402753829956,0.0003892551176249981
1783174134154849500,0.907849609375,0.0010821091709658504,-0.000006292015314102173,0.000269964337348938
1783174134164917500,0.91791748046875,-0.00203139241784811,-0.0015019229613244534,-0.0016922529321163893
1783174134174986200,0.927986328125,0.00003619148628786206,-0.0009226081892848015,0.0018476214027032256
1783174134185054500,0.938054443359375,-0.0016085767420008779,-0.00031727179884910583,0.0015490810619667172
1783174134195123500,0.94812353515625,0.001046476885676384,-0.0014130440540611744,0.0004391069523990154
1783174134205191400,0.95819140625,0.0013511425349861383,-0.0005416576750576496,0.0023430008441209793
1783174134215260400,0.968260498046875,-0.0006867495831102133,0.00038632284849882126,0.0008937807288020849
1783174134225329400,0.978329345703125,0.00035268213832750916,-0.00040490273386240005,-0.00023939437232911587
1783174134235397400,0.9883974609375,-0.001105814939364791,-0.003334526438266039,-0.0010518680792301893
1783174134245466400,0.99846630859375,-0.0007699902635067701,0.0016013761050999165,-0.0008137812837958336
1783174134255534300,1.008534423828125,0.00007248308975249529,0.0010835113935172558,-0.002798892790451646
1783174134265603600,1.018603515625,-0.0008556285174563527,-0.0008528735488653183,-0.0005000520031899214
1783174134275671600,1.028671630859375,0.001389864133670926,0.001644606702029705,0.0014030318707227707
1783174134285740300,1.038740234375,0.001201844890601933,0.0003074333071708679,0.0014264676719903946
1783174134295808500,1.04880859375,0.000464674667455256,-0.0011739321053028107,0.002273323480039835
1783174134305877500,1.05887744140625,0.00011420267401263118,-0.002720962278544903,0.0026717325672507286
1783174134315946200,1.0689462890625,-0.0019363347673788667,-0.0010572574101388454,-0.0000690945889800787
1783174134326014500,1.079014404296875,0.000645333610009402,0.0011973744258284569,-0.0011948125902563334
1783174134336083500,1.08908349609375,0.0006705733248963952,-0.00046309875324368477,0.0010996977798640728
1783174134346151400,1.0991513671875,-0.0019640917889773846,0.0012932559475302696,-0.0004803556948900223
1783174134356220400,1.109220458984375,0.0022221847902983427,0.00021339626982808113,0.0010373791446909308
1783174134366288400,1.119288330078125,-0.0017949274042621255,0.0012006303295493126,0.00040993839502334595
1783174134376357600,1.129357666015625,0.00021738477516919374,0.0006493157707154751,0.002647626446560025
1783174134386425600,1.139425537109375,-0.0008521407144144177,-0.0002364511601626873,0.003052160609513521
1783174134396494300,1.149494384765625,0.0019422743935137987,0.001139551866799593,0.00018579303286969662
1783174134406563600,1.1595634765625,-0.000954445858951658,-0.002547061536461115,0.0014798229094594717
1783174134416631600,1.169631591796875,0.0013004336506128311,0.0007193963974714279,0.0012171100825071335
1783174134426700300,1.1797001953125,-0.00041331048123538494,0.0036592595279216766,-0.001468155300244689
1783174134436768500,1.1897685546875,0.0005050445906817913,0.00020979437977075577,-0.0016937111504375935
1783174134446837500,1.19983740234375,-0.0012965839123353362,0.0016273949295282364,0.0005036632064729929
1783174134456905500,1.209905517578125,-0.0004658853285945952,0.00014192471280694008,-0.0028417701832950115
1783174134466974500,1.219974365234375,0.00007207319140434265,-0.00023651029914617538,-0.0009714323095977306
1783174134477042400,1.23004248046875,0.00032731459941715,0.0016922489739954472,0.0010426730150356889
1783174134487111400,1.240111328125,-0.00006124062929302454,-0.0012119277380406857,0.000841338187456131
1783174134497180400,1.250180419921875,-0.00004309124778956175,0.00005395710468292236,0.0014623741153627634
1783174134507248400,1.260248291015625,0.0006647770060226321,-0.0001146211288869381,-0.0005307355895638466
1783174134517317600,1.270317626953125,0.0013106247643008828,-0.002496139146387577,-0.0009748865850269794
1783174134527385600,1.280385498046875,-0.0004915363970212638,0.001235748641192913,0.0007649564649909735
1783174134537454300,1.290454345703125,0.0010194891365244985,0.0007661767303943634,0.0036210045218467712
1783174134547522600,1.3005224609375,0.0005680833128280938,0.001651677768677473,-0.00039424351416528225
1783174134557591600,1.310591552734375,0.000634162628557533,0.00023768609389662743,0.003349962178617716
1783174134567659300,1.3206591796875,-0.0010907667456194758,-0.00003368966281414032,0.001990684773772955
1783174134577728500,1.330728515625,-0.0012473936658352613,-0.001014679204672575,0.000010557007044553757
1783174134587797500,1.340797607421875,0.0008897931547835469,-0.0009638122282922268,-0.002836095867678523
1783174134597865200,1.350865234375,0.0020074183121323586,-0.001242225058376789,0.0005931376945227385
1783174134607934500,1.3609345703125,0.0014233870897442102,0.0018065618351101875,-0.0002667971421033144
1783174134618002400,1.37100244140625,0.0004142307734582573,0.0021373899653553963,0.0011332344729453325
1783174134628071400,1.381071533203125,0.0022723181173205376,0.002443653531372547,0.001575052854605019
1783174134638139400,1.391139404296875,-0.0003856202238239348,-0.00018313433974981308,-0.0005151140503585339
1783174134648208400,1.40120849609375,0.0013379775919020176,-0.001308586448431015,0.0004292428493499756
1783174134658276600,1.411276611328125,0.00001835532020777464,0.00015173014253377914,0.0007922688964754343
1783174134668345300,1.421345458984375,0.002084968378767371,0.000051062554121017456,-0.0013273409567773342
1783174134678414300,1.431414306640625,-0.0016254517249763012,0.000573994591832161,-0.0012696688063442707
1783174134688482600,1.441482666015625,0.0006318436353467405,-0.001587160862982273,-0.0018635541200637817
1783174134698551300,1.45155126953125,0.002753421664237976,-0.000668257474899292,-0.0005718022584915161
1783174134708619300,1.461619384765625,0.0032820592168718576,0.0012140651233494282,0.000448720995336771
1783174134718688500,1.4716884765625,-0.0016348888166248798,-0.0003747069276869297,-0.00015253014862537384
1783174134728756500,1.481756591796875,0.0009904553880915046,0.001037034671753645,-0.00021804380230605602
1783174134738825500,1.491825439453125,-0.001251816633157432,-0.0011663669720292091,0.0019550491124391556
1783174134748894500,1.50189453125,-0.0023999055847525597,-0.001676095649600029,0.0009843269363045692
1783174134758962400,1.51196240234375,0.0013907337561249733,0.00044606486335396767,-0.0009069018997251987
1783174134769031400,1.522031494140625,-0.0010159648954868317,-0.0009678076021373272,0.00021002767607569695
1783174134779099400,1.532099365234375,0.002153723733499646,-0.0011092699132859707,0.0013701618881896138
1783174134789168400,1.54216845703125,-0.0007736228872090578,-0.00015585822984576225,-0.0014426687266677618
1783174134799236600,1.552236572265625,-0.0013114447938278317,-0.0027063749730587006,-0.0010850883554667234
1783174134809305300,1.562305419921875,0.001377016305923462,0.00021324865520000458,-0.00202651578001678
1783174134819373300,1.572373291015625,-0.00001831771805882454,-0.0005197660066187382,0.0012466585030779243
1783174134829442600,1.582442626953125,-0.0000894240802153945,-0.00004918500781059265,0.0007502452936023474
1783174134839511300,1.59251123046875,-0.00005238677840679884,0.0024423780851066113,-0.00022993935272097588
1783174134849579300,1.602579345703125,-0.001513396855443716,-0.0018130871467292309,0.0015029795467853546
1783174134859648500,1.6126484375,-0.00014066713629290462,0.0008085216395556927,-0.000868113711476326
1783174134869716500,1.622716552734375,0.0010969038121402264,0.003414425067603588,-0.001632973551750183
1783174134879785500,1.632785400390625,0.0016158695798367262,-0.0006340499967336655,0.003395881736651063
1783174134889853400,1.642853515625,0.0018486297922208905,0.00009858561679720879,-0.0014257712755352259
1783174134899922400,1.65292236328125,0.0002690567634999752,0.0005185105837881565,-0.0032201367430388927
1783174134909991400,1.662991455078125,-0.0015070054214447737,-0.000045546796172857285,-0.002063259482383728
1783174134920059400,1.673059326171875,0.000790777790825814,-0.001042199321091175,0.002598376478999853
1783174134930128400,1.68312841796875,-0.00017594970995560288,0.0006076288409531116,0.0001482684165239334
1783174134940196600,1.693196533203125,0.0007744430331513286,0.0018590656109154224,0.0005528072360903025
1783174134950265300,1.703265380859375,0.001900427509099245,0.00016928976401686668,0.002979746088385582
1783174134960333300,1.713333251953125,0.00013968144776299596,-0.00113733671605587,0.0021536587737500668
1783174134970402600,1.723402587890625,0.0020715384744107723,-0.0011330759152770042,0.00017066881991922855
1783174134980470500,1.733470458984375,0.0019331984221935272,0.0008041881956160069,0.0004476304166018963
1783174134990539500,1.74353955078125,0.0012610165867954493,-0.00013377703726291656,-0.0003870041109621525
1783174135000608500,1.7536083984375,-0.00029968959279358387,-0.0022506285458803177,-0.0029410847928375006
1783174135010676500,1.763676513671875,-0.0010251346975564957,-0.0018626060336828232,0.0002949223853647709
1783174135020745500,1.773745361328125,0.00002528203185647726,0.002045106142759323,0.001148685347288847
1783174135030813400,1.7838134765625,-0.000377121614292264,-0.002706505823880434,0.004325303714722395
1783174135040882400,1.79388232421875,0.0003509334346745163,-0.00015022139996290207,-0.0007142839021980762
1783174135050950400,1.803950439453125,-0.0018728061113506556,-0.001071409322321415,-0.0007947112899273634
1783174135061019400,1.814019287109375,0.0006689148722216487,0.0005845446139574051,0.0007014526054263115
1783174135071088600,1.824088623046875,0.003100167028605938,-0.0019868584349751472,-0.0004608393646776676
1783174135081156600,1.834156494140625,-0.0013217132072895765,-0.0008074166253209114,0.00235764984972775
1783174135091225600,1.8442255859375,-0.0008119841222651303,0.0004064524546265602,0.0003682686947286129
1783174135101293600,1.85429345703125,0.0012653311714529991,-0.0008444217965006828,0.0017468063160777092
1783174135111362600,1.864362548828125,-0.0005346994148567319,0.0006597316823899746,0.0015009965281933546
1783174135121430500,1.874430419921875,-0.00045211141696199775,0.0002317754551768303,-0.001793106086552143
1783174135131499500,1.88449951171875,-0.0015895473770797253,-0.0012063318863511086,-0.0004929506685584784
1783174135141568800,1.89456884765625,0.004214086569845676,0.000915813259780407,-0.00036347145214676857
1783174135151636500,1.904636474609375,-0.0006333992350846529,0.001920890063047409,0.0018493491224944592
1783174135161705500,1.91470556640625,-0.0014878589427098632,-0.0023200619034469128,0.0018737504724413157
1783174135171773700,1.924773681640625,-0.00017145834863185883,-0.003129130695015192,0.0011477727675810456
1783174135181842700,1.9348427734375,-0.0024158358573913574,0.001749314833432436,0.001714057638309896
1783174135191910400,1.944910400390625,-0.002295461017638445,-0.000015828292816877365,-0.0017613673117011786
1783174135201979600,1.954979736328125,0.00015189568512141705,0.000981731340289116,-0.0005932580679655075
1783174135212047600,1.965047607421875,0.0005071613704785705,0.0008613565005362034,0.0010107638081535697
1783174135222116400,1.975116455078125,-0.001740016508847475,-0.00035259779542684555,-0.0006872687954455614
1783174135232185600,1.985185546875,0.0018310160376131535,0.0017566257156431675,-0.0013511946890503168
1783174135242253600,1.995253662109375,-0.0008352093282155693,-0.0005927612073719501,0.0011088605970144272
1783174135252322600,2.005322509765625,0.0006044955225661397,-0.000725120771676302,0.001101936330087483
1783174135262390500,2.015390625,0.0006951734540052712,0.00013265060260891914,-0.00018579838797450066
1783174135272459500,2.02545947265625,-0.0006132374983280897,-0.0015504672192037106,-0.00215307530015707
1783174135282527700,2.03552783203125,-0.0019552153535187244,-0.00202038511633873,-0.0005238724406808615
1783174135292596500,2.045596435546875,-0.0015703885583207011,-0.0003756163641810417,0.0004079677164554596
1783174135302665500,2.05566552734375,0.00021869537886232138,-0.00041015492752194405,-0.0003605217207223177
1783174135312733700,2.065733642578125,0.0014051336329430342,0.001401060726493597,-0.0007908884435892105
1783174135322802400,2.075802490234375,-0.00013556791236624122,-0.0015767714940011501,0.0027674848679453135
1783174135332870400,2.085870361328125,0.002631989074870944,-0.0002800780348479748,0.00039833690971136093
1783174135342939600,2.095939697265625,-0.0005438594380393624,0.0014648684300482273,-0.000048200832679867744
1783174135353007600,2.106007568359375,-0.002913273870944977,-0.0021578301675617695,0.0011811142321676016
1783174135363076600,2.11607666015625,-0.001949663390405476,0.0003010286018252373,-0.0020151245407760143
1783174135373145600,2.1261455078125,-0.0005552324000746012,-0.0007253531366586685,0.0005660110618919134
1783174135383213600,2.136213623046875,0.0003092147526331246,-0.00035904068499803543,0.001874182024039328
1783174135393282600,2.146282470703125,-0.0016167834401130676,-0.0020256470888853073,-0.000037701334804296494
1783174135403350500,2.1563505859375,-0.0005168056231923401,-0.001343038398772478,0.000017341459169983864
1783174135413419500,2.16641943359375,-0.0006720679230056703,0.002100961282849312,0.0012354713398963213
1783174135423487700,2.17648779296875,0.0010343007743358612,-0.0008394774049520493,-0.0008621071465313435
1783174135433556500,2.186556396484375,-0.001988386968150735,0.00041620293632149696,-0.0024685256648808718
1783174135443625500,2.19662548828125,-0.0008611807134002447,0.0003213374875485897,-0.0015772320330142975
1783174135453693700,2.206693603515625,0.0008823908283375204,0.0006502377800643444,-0.00032554659992456436
1783174135463762400,2.216762451171875,0.0005132262594997883,-0.002160928212106228,0.0004678773693740368
1783174135473830400,2.226830322265625,-0.0007144910050556064,-0.0007127011194825172,-0.0008423980325460434
1783174135483899600,2.236899658203125,0.0005899026291444898,-0.0005451655015349388,-0.0002850524615496397
1783174135493967600,2.246967529296875,-0.0014759113546460867,-0.0008690059185028076,0.0008819447830319405
1783174135504036600,2.25703662109375,0.0009623877704143524,0.002084428910166025,0.0008556121028959751
1783174135514105600,2.267105712890625,0.0006119157187640667,0.000542724970728159,-0.002047233749181032
1783174135524173600,2.277173583984375,0.0011867382563650608,-0.00030139973387122154,-0.0018189835827797651
1783174135534242600,2.28724267578125,-0.0013011868577450514,0.0013175355270504951,-0.000530546298250556
1783174135544310500,2.297310546875,-0.0008375569013878703,-0.0011684251949191093,0.0018549240194261074
1783174135554379500,2.307379638671875,0.0011635422706604004,0.0019868877716362476,0.00007912819273769855
1783174135564447700,2.31744775390625,0.000621611310634762,0.00045152148231863976,0.0018765685381367803
1783174135574516500,2.3275166015625,-0.002806409727782011,-0.0013405196368694305,0.0011210297234356403
1783174135584585700,2.337585693359375,-0.00020968052558600903,-0.0009091496467590332,0.00198894995264709
1783174135594653700,2.34765380859375,0.0006973921554163098,-0.0010830536484718323,0.0024581989273428917
1783174135604722400,2.357722412109375,0.00028628145810216665,0.0029317019507288933,0.00037249550223350525
1783174135614790700,2.367790771484375,-0.00016645592404529452,-0.0018816953524947166,-0.0005894382484257221
1783174135624859600,2.377859619140625,0.0012385925510898232,-0.0009332522749900818,0.0013814523117616773
1783174135634927600,2.387927734375,0.0004233989748172462,0.002083576750010252,0.0009119370952248573
1783174135644996600,2.39799658203125,0.0007485663518309593,-0.0002294657751917839,0.001789661357179284
1783174135655065600,2.408065673828125,0.0008175421971827745,0.0002195429988205433,0.0010839237365871668
1783174135665133600,2.418133544921875,-0.00010793196270242333,0.00006581982597708702,-0.002943269209936261
1783174135675202600,2.42820263671875,0.0007101911469362676,0.0008557131513953209,-0.0030703020747750998
1783174135685270500,2.4382705078125,0.00322091206908226,0.0005243564955890179,-0.0012373633217066526
1783174135695339800,2.44833984375,0.0004299191350582987,-0.0010021673515439034,0.00041566090658307076
1783174135705407700,2.45840771484375,0.0017095661023631692,0.0015434208326041698,0.0020424837712198496
1783174135715476500,2.4684765625,-0.00007448549149557948,-0.0004243887960910797,-0.0018843472935259342
1783174135725545700,2.478545654296875,0.0014003823744133115,0.0001705307513475418,-0.0017514689825475216
1783174135735613700,2.48861376953125,0.00009490083903074265,0.00036840373650193214,-0.0003133618738502264
1783174135745682400,2.498682373046875,0.00048787318519316614,0.0011897534132003784,-0.0004441321361809969
1783174135755750700,2.508750732421875,0.0005619090516120195,0.002092564944177866,0.0006080828607082367
1783174135765819600,2.518819580078125,0.00000416638795286417,0.0008247485384345055,-0.0014757041353732347
1783174135775887600,2.5288876953125,-0.0006539006717503071,0.0009467210620641708,-0.00016303197480738163
1783174135785956600,2.53895654296875,0.0018186750821769238,-0.0006847982294857502,0.0010207880986854434
1783174135796025600,2.549025634765625,-0.0005832298193126917,0.00013811839744448662,-0.001987784868106246
1783174135806093600,2.559093505859375,0.00007938302587717772,0.0009023775346577168,-0.0030845855362713337
1783174135816162600,2.56916259765625,-0.0004005186492577195,0.0008200858719646931,0.0016103009693324566
1783174135826230500,2.57923046875,-0.001147856586612761,-0.0022203526459634304,-0.003166839713230729
1783174135836299800,2.5892998046875,0.0014561823336407542,0.001614865381270647,-0.002010761061683297
1783174135846367500,2.599367431640625,0.0017492230981588364,0.00034579960629343987,0.0007300355937331915
1783174135856436500,2.6094365234375,0.0006890187505632639,0.0003495276905596256,-0.0047896322794258595
1783174135866505700,2.619505615234375,-0.002877984195947647,-0.0022433442063629627,0.000007704831659793854
1783174135876573400,2.629573486328125,-0.0007613037014380097,-0.0022430778481066227,0.0009525943314656615
1783174135886642400,2.639642333984375,0.0008530186605639756,-0.0015292968600988388,-0.003018026938661933
1783174135896710700,2.649710693359375,0.00019575050100684166,-0.0004091709852218628,0.0006462165620177984
1783174135906779600,2.659779541015625,0.0010464161168783903,-0.0014514843933284283,0.0043285381980240345
1783174135916847400,2.669847412109375,0.0007550662267021835,0.0014729327522218227,-0.0009796745143830776
1783174135926916600,2.67991650390625,-0.002771905856207013,-0.004335464909672737,-0.0010962863452732563
1783174135936985600,2.689985595703125,0.0016380223678424954,0.000963693019002676,0.0006286432035267353
1783174135947053600,2.700053466796875,-0.0011079548858106136,-0.0021309666335582733,0.0033097185660153627
1783174135957122600,2.71012255859375,0.0006097840378060937,0.0019649751484394073,-0.00199370039626956
1783174135967190500,2.7201904296875,-0.000008705712389200926,-0.0010681762360036373,-0.0007846362423151731
1783174135977259500,2.730259521484375,-0.00215707765892148,-0.0004508555866777897,0.00037517049349844456
1783174135987327500,2.740327392578125,0.0005315176676958799,0.0004586842842400074,-0.0009391200728714466
1783174135997396500,2.750396484375,-0.000759316491894424,-0.00011496059596538544,-0.0014850678853690624
1783174136007465700,2.7604658203125,0.00009595690062269568,-0.00008731521666049957,-0.0000018228311091661453
1783174136017533400,2.770533447265625,0.0013292668154463172,0.004004897549748421,0.0012922071618959308
1783174136027602700,2.780602783203125,-0.0002775178290903568,-0.0008904137648642063,0.0006645771209150553
1783174136037670700,2.790670654296875,-0.0005161369917914271,-0.001954080071300268,-0.0006118761375546455
1783174136047739400,2.800739501953125,-0.0026347015518695116,-0.00038971612229943275,0.0011217215796932578
1783174136057807600,2.8108076171875,-0.0025177886709570885,0.0004598326049745083,-0.0000444767065346241
1783174136067876600,2.820876708984375,-0.00012151175178587437,-0.00013904226943850517,-0.0010000658221542835
1783174136077945900,2.83094580078125,0.000038544239941984415,0.0004258141852915287,0.0020796137396246195
1783174136088013800,2.841013916015625,-0.0006514677661471069,0.0005882992409169674,0.0015577609883621335
1783174136098082800,2.851082763671875,0.0005112682702019811,0.0005821739323437214,-0.0016833061818033457
1783174136108151000,2.861151123046875,-0.002653012052178383,-0.0009238775819540024,0.0024356378708034754
1783174136118219800,2.8712197265625,0.0003286630380898714,-0.00003438210114836693,0.00398959219455719
1783174136128288800,2.881288818359375,0.0009837144752964377,0.00100333197042346,0.0014494105707854033
1783174136138357000,2.89135693359375,-0.002014205791056156,-0.0010339864529669285,0.001892027910798788
1783174136148425700,2.90142578125,-0.001949745463207364,-0.0014852522872388363,-0.0019733502995222807
1783174136158493700,2.91149365234375,0.00033071934012696147,-0.0011499603278934956,-0.0007453667931258678
1783174136168563000,2.92156298828125,0.000017429236322641373,0.000245862640440464,0.0009994576685130596
1783174136178631000,2.931630859375,-0.0013977745547890663,0.0018991529941558838,-0.002435487462207675
1783174136188700000,2.941699951171875,0.000991579843685031,0.0005495552904903889,-0.0012019844725728035
1783174136198769000,2.951768798828125,-0.00016662891721352935,0.0007407702505588531,0.002980243880301714
1783174136208836900,2.9618369140625,-0.0015379923861473799,-0.002085790503770113,0.000758220674470067
1783174136218905900,2.97190576171875,0.00028121296782046556,0.0015291846357285976,-0.0001019802875816822
1783174136228973800,2.981973876953125,-0.0005021705874241889,-0.00042859744280576706,-0.0019607082940638065
1783174136239042800,2.992042724609375,-0.0006331981276161969,0.0006103012710809708,-0.00041634123772382736
1783174136249111000,3.002111083984375,-0.000019891653209924698,0.0037105963565409184,-0.0007310893852263689
1783174136259179800,3.0121796875,0.0013439131435006857,-0.00020052166655659676,0.0015672186855226755
1783174136269249000,3.0222490234375,0.0011088803876191378,0.0016416269354522228,0.0009755344362929463
1783174136279317000,3.03231689453125,0.0028210266027599573,-0.00004734983667731285,-0.0010990682058036327
1783174136289385700,3.0423857421875,-0.0010148368310183287,-0.0014317282475531101,-0.0008028994780033827
1783174136299454000,3.052453857421875,-0.0010121737141162157,0.0004359469749033451,-0.0012686862610280514
1783174136309523000,3.06252294921875,-0.0013786484487354755,-0.0009768693707883358,0.0005159103311598301
1783174136319591700,3.072591796875,-0.0013400325551629066,0.0006407340988516808,-0.0014380509965121746
1783174136329660000,3.082659912109375,0.0002145838807336986,0.00277419900521636,0.0008438755758106709
1783174136339729000,3.09272900390625,-0.0017409753054380417,-0.00009881891310214996,0.00016290531493723392
1783174136349796900,3.102796875,0.00019349745707586408,-0.0006984667852520943,0.0022388403303921223
1783174136359865900,3.112865966796875,0.000529588432982564,0.0013534990139305592,0.003121145535260439
1783174136369933800,3.122933837890625,0.00214291806332767,0.0012012524530291557,-0.001925589283928275
1783174136380003000,3.133003173828125,-0.0005524673033505678,0.0006965836510062218,0.000805215910077095
1783174136390071800,3.14307177734375,0.0004953040042892098,0.00005693687126040459,-0.0009190412238240242
1783174136400139800,3.153139892578125,-0.00011163041926920414,0.00033656880259513855,-0.0009968054946511984
1783174136410209000,3.163208984375,0.0003603323712013662,-0.001179832499474287,-0.00006506731733679771
1783174136420277000,3.173277099609375,0.00012916995910927653,0.0007871785201132298,-0.0016259460244327784
1783174136430345700,3.183345703125,-0.0017931291367858648,-0.00014779111370444298,-0.0019211906474083662
1783174136440415000,3.1934150390625,0.001223167171701789,-0.00005671102553606033,0.0011949740583077073
1783174136450483000,3.20348291015625,0.0018122922629117966,0.00016593094915151596,0.0012621384812518954
1783174136460552000,3.213552001953125,-0.001131299533881247,0.0021364036947488785,-0.0007868977263569832
1783174136470620000,3.223619873046875,0.0022622430697083473,0.001170711126178503,0.0016781584126874804
1783174136480689000,3.23368896484375,-0.002486705780029297,-0.00000906921923160553,-0.0004292009398341179
1783174136490756900,3.2437568359375,0.0000679708318784833,0.0003247051499783993,0.0006650756113231182
1783174136500825900,3.253825927734375,-0.001307818340137601,0.0010938257910311222,0.001667223172262311
1783174136510894800,3.263894775390625,0.0013379281153902411,-0.0003565358929336071,-0.00039102230221033096
1783174136520963000,3.273963134765625,-0.001110848505049944,0.0007263058796525002,-0.0014797225594520569
1783174136531031800,3.28403173828125,-0.0008978241239674389,-0.0006056861020624638,0.0020746716763824224
1783174136541099800,3.294099853515625,-0.0006762490957044065,0.0024955649860203266,-0.00279971188865602
1783174136551169000,3.3041689453125,0.00043770577758550644,0.0010157912038266659,-0.0008070280309766531
1783174136561237800,3.31423779296875,-0.0019125337712466717,-0.000632439274340868,-0.002210513921454549
1783174136571305700,3.3243056640625,0.0008905403665266931,-0.0018060309812426567,0.0006012001540511847
1783174136581375000,3.334375,-0.0017438584472984076,0.0015767165459692478,0.000236080726608634
1783174136591443000,3.34444287109375,-0.0013775108382105827,-0.0005826149135828018,0.0009202881483361125
1783174136601512000,3.354511962890625,-0.0014965541195124388,-0.0008936719968914986,-0.0015023895539343357
1783174136611580000,3.364579833984375,-0.0008419174700975418,0.002529460471123457,0.00047116121277213097
1783174136621649000,3.37464892578125,0.0020739776082336903,0.0017403657548129559,-0.0006199360359460115
1783174136631718000,3.3847177734375,0.0008511974010616541,0.00003059115260839462,-0.0019399865996092558
1783174136641785900,3.394785888671875,-0.0015903885941952467,-0.0022794348187744617,0.002983399201184511
1783174136651854800,3.404854736328125,-0.0002509030164219439,-0.002159329131245613,0.002444368787109852
1783174136661922800,3.4149228515625,0.0017699035815894604,-0.00033825915306806564,0.0012579304166138172
1783174136671991800,3.42499169921875,0.0008877782966010273,0.002132586669176817,0.001036416389979422
1783174136682061000,3.43506103515625,0.0017690183594822884,0.0001487978734076023,-0.00007012696005403996
1783174136692129000,3.44512890625,-0.0007597934454679489,0.0011023893021047115,0.00007591303437948227
1783174136702197800,3.45519775390625,-0.0011379622155800462,-0.0010864627547562122,0.00006898888386785984
1783174136712266000,3.465265869140625,0.0011427542194724083,0.000367951113730669,0.0013997586211189628
1783174136722335000,3.4753349609375,-0.001613084925338626,0.0015514600090682507,0.000858870567753911
1783174136732403700,3.48540380859375,0.0013928667176514864,6.989575922489166e-7,-0.0030257152393460274
1783174136742472000,3.495471923828125,0.001772633520886302,-0.00046615349128842354,0.00016448530368506908
1783174136752541000,3.505541015625,-0.00033867754973471165,-0.001030773390084505,0.0029070142190903425
1783174136762608600,3.515608642578125,0.0009803861612454057,-0.0023013674654066563,-0.002044867491349578
1783174136772678000,3.525677978515625,-0.0016116928309202194,-0.0008240621536970139,0.000008824747055768967
1783174136782745900,3.535745849609375,0.00007914815796539187,0.0020545492880046368,0.0012264219112694263
1783174136792814800,3.54581494140625,0.002433125162497163,0.0011884779669344425,0.0006297226063907146
1783174136802883800,3.5558837890625,-0.0016838556621223688,-0.0013039745390415192,0.00052692461758852
1783174136812951800,3.565951904296875,-0.000965318875387311,0.0017876583151519299,-0.00253580161370337
1783174136823021000,3.57602099609375,0.0024877358227968216,0.0010265270248055458,-0.0002188514918088913
1783174136833088800,3.5860888671875,0.001390599412843585,-0.0006145532242953777,0.000702352961525321
1783174136843157800,3.59615771484375,-0.00037267955485731363,-0.00050722761079669,-0.0016414951533079147
1783174136853227000,3.60622705078125,-0.0007635643123649061,-0.0015937071293592453,-0.00212491350248456
1783174136863294700,3.616294677734375,0.002345409942790866,-0.0011681346222758293,0.00044636870734393597
1783174136873364000,3.626364013671875,-0.0005457357037812471,-0.0021999101154506207,0.001091896090656519
1783174136883432000,3.636431884765625,-0.0004386766813695431,0.0014129341579973698,0.0017755295848473907
1783174136893501000,3.6465009765625,-0.0019400333985686302,0.0015666796825826168,0.0010733548551797867
1783174136903568600,3.656568603515625,0.0006296508363448083,0.001543510239571333,-0.0005445154383778572
1783174136913638000,3.666637939453125,-0.0003077518776990473,0.0005380152724683285,0.0006554184947162867
1783174136923707000,3.676706787109375,-0.0007801965693943202,0.0007707756012678146,-0.00046896818093955517
1783174136933774800,3.68677490234375,0.0009793707868084311,-0.0002889889292418957,0.00015628873370587826
1783174136943843800,3.69684375,0.0012920259032398462,-0.0003510410897433758,0.0013890661066398025
1783174136953911800,3.706911865234375,0.0000016186968423426151,-0.000028726644814014435,-0.0005255416035652161
1783174136963980800,3.716980712890625,0.0009752704063430429,0.0002892548218369484,0.0003242730163037777
1783174136974049800,3.7270498046875,0.0003317698137834668,0.00020545395091176033,-0.0001389982644468546
1783174136984117800,3.73711767578125,0.0018660168861970305,-0.0003436896950006485,0.002171293832361698
1783174136994186800,3.747186767578125,0.0000725920544937253,-0.000008432194590568542,0.0017358084442093968
1783174137004254700,3.757254638671875,0.0011423839023336768,-0.0010619787499308586,-0.0008168313652276993
1783174137014324000,3.767323974609375,-0.0007321966113522649,0.0028174947947263718,-0.0005289670079946518
1783174137024393000,3.77739306640625,-0.001720495754852891,0.0004677879624068737,0.0014622786547988653
1783174137034460700,3.787460693359375,-0.00012915802653878927,-0.0004933290183544159,0.0013858029851689935
1783174137044530000,3.797530029296875,-0.00011557585094124079,0.0005591516382992268,0.0016851422842592
1783174137054598000,3.807597900390625,0.0023712250404059887,0.0007458669133484364,-0.0006873004604130983
1783174137064666600,3.81766650390625,-0.00041603943100199103,0.0006350795738399029,-0.00032963789999485016
1783174137074734300,3.827734375,-0.0006539123132824898,0.0008047064766287804,0.000309882452711463
1783174137084803000,3.837802978515625,0.0004459732153918594,0.0011711572296917439,-0.0005156972911208868
1783174137094872000,3.8478720703125,0.0006788138416595757,-0.0010899878107011318,-0.0012777571100741625
1783174137104940300,3.857940185546875,0.00045377673814073205,-0.0005344520322978497,0.0010687540052458644
1783174137115009000,3.868009033203125,-0.0016992193413898349,-0.000009636860340833664,-0.00021663657389581203
1783174137125077000,3.878076904296875,-0.000017965794540941715,-0.0021974234841763973,0.0012004313757643104
1783174137135146200,3.888146240234375,0.0007999498629942536,0.00021826382726430893,0.0009428327903151512
1783174137145215000,3.898215087890625,0.0012079461012035608,0.00039882585406303406,0.00075481366366148
1783174137155283200,3.908283203125,0.0010628451127558947,-0.00010867509990930557,0.0007473682053387165
1783174137165352200,3.918352294921875,-0.00013158260844647884,0.000501721166074276,-0.0011394815519452095
1783174137175420200,3.928420166015625,-0.000995313050225377,0.00256939185783267,0.0006388931069523096
1783174137185489200,3.9384892578125,-0.0010802680626511574,-0.0022946055978536606,-0.00009107938967645168
1783174137195558100,3.94855810546875,-0.00022179237566888332,-0.0012572328560054302,0.0005587891209870577
1783174137205626000,3.958626220703125,0.00043947045924142003,0.0016948808915913105,-0.0022444543428719044
1783174137215695000,3.968695068359375,-0.00027561612660065293,0.00010299123823642731,0.0009082785109058022
1783174137225763000,3.97876318359375,0.00275239790789783,-0.001160678919404745,0.0005833727773278952
1783174137235832300,3.988832275390625,0.001116627943702042,0.0013785874471068382,0.0009241929510608315
1783174137245899300,3.998899169921875,0.0020732353441417217,-0.0010901633650064468,-0.0025640155654400587
1783174137255967200,4.00896728515625,-0.000332506257109344,0.001600664108991623,-0.00010410393588244915
1783174137266036000,4.019035888671875,0.0009553984273225069,0.001269899308681488,-0.003176592756062746
1783174137276105200,4.029105224609375,0.0000189485726878047,-0.000738790724426508,0.0006858981214463711
1783174137286173200,4.039173095703125,-0.0017882725223898888,0.0012218290939927101,0.0004001408815383911
1783174137296242000,4.049241943359375,0.0005197428399696946,-0.00012011034414172173,0.0008193970425054431
1783174137306310100,4.05931005859375,-0.0008254197891801596,0.000251933466643095,0.0004755828995257616
1783174137316379100,4.069379150390625,0.0022381097078323364,0.001606880221515894,-0.0006957754958420992
1783174137326448000,4.0794482421875,0.0008540650014765561,-0.0020171497017145157,-0.0012715510092675686
1783174137336516000,4.08951611328125,-0.0018196566961705685,0.0001892782747745514,-0.00012944662012159824
1783174137346585000,4.099585205078125,0.0008903760462999344,0.0025224736891686916,-0.0018296088092029095
1783174137356653300,4.1096533203125,-0.0011728259269148111,0.0006468892097473145,-0.0008501387201249599
1783174137366722000,4.11972216796875,-0.002082827966660261,-0.00012675905600190163,0.001574136782437563
1783174137376791000,4.129791015625,-0.00047598377568647265,-0.0016668476164340973,-0.0009832046926021576
1783174137386859300,4.139859375,0.0006204396486282349,0.00039949873462319374,-0.0011890672612935305
1783174137396928000,4.149927978515625,0.00008681905455887318,-0.00022428901866078377,-0.0008533992804586887
1783174137406996000,4.159995849609375,-0.0007060039788484573,-0.002480252180248499,-0.0002797544002532959
1783174137417065200,4.170065185546875,0.00017454277258366346,-0.0005104891024529934,0.0009651139844208956
1783174137427133200,4.18013330078125,-0.0010577018838375807,-0.0031060059554874897,-0.0003978919703513384
1783174137437202200,4.1902021484375,-0.0009496135753579438,-0.0007180841639637947,-0.00046018045395612717
1783174137447271200,4.200271240234375,0.0022046342492103577,-0.0008674878627061844,-0.0022628740407526493
1783174137457339100,4.210339111328125,-0.001359771122224629,-0.0005830740556120872,0.0016840210882946849
1783174137467408100,4.220408203125,-0.0004316593986004591,-0.000007032416760921478,0.00236552394926548
1783174137477476000,4.23047607421875,0.0001535153714939952,-0.00013086944818496704,-0.001211024122312665
1783174137487545000,4.240545166015625,-0.0004166673752479255,-0.0020470134913921356,-0.0008416438940912485
1783174137497614000,4.250614013671875,-0.0008106187451630831,0.0022602342069149017,0.0007406256627291441
1783174137507682000,4.26068212890625,-0.0003948993980884552,-0.0005432753823697567,0.0008570058271288872
1783174137517751300,4.270751220703125,0.0002724035002756864,-0.0010215286165475845,-0.00001833820715546608
1783174137527819300,4.2808193359375,-0.0016368166543543339,-0.0012859804555773735,-0.0014151663053780794
1783174137537888000,4.290887939453125,-0.0004073033342137933,0.0013012201525270939,-0.0014029559679329395
1783174137547957200,4.300957275390625,-0.0009753556223586202,0.0005028042942285538,0.0001358184963464737
1783174137558025200,4.311025146484375,0.0016033563297241926,0.0005572088994085789,-0.0021029957570135593
1783174137568094000,4.321093994140625,0.00002037349622696638,0.0015415134839713573,-0.0007988458964973688
1783174137578162200,4.331162109375,-0.0020557623356580734,-0.0012014750391244888,-0.001166200265288353
1783174137588231200,4.341231201171875,-0.0009201903594657779,0.0007093432359397411,-0.00020053796470165253
1783174137598300200,4.351300048828125,-0.0007223071297630668,-0.00010702945291996002,-0.00017107650637626648
1783174137608368000,4.3613681640625,-0.0011297707678750157,0.00005329307168722153,-0.0004933190066367388
1783174137618437000,4.37143701171875,-0.002910071052610874,-0.0020702630281448364,0.0019020584877580404
1783174137628506000,4.381506103515625,0.002075898926705122,-0.00011230725795030594,-0.0003437851555645466
1783174137638575000,4.3915751953125,-0.0005358629859983921,0.00007384782657027245,-0.003918812610208988
1783174137648643000,4.40164306640625,-0.001488322508521378,0.0011952784843742847,-0.0015095316339284182
1783174137658712000,4.411712158203125,-0.0002575352555140853,-0.0016231373883783817,-0.0016920606140047312
1783174137668780000,4.421780029296875,-0.0003355658845975995,-0.0018865237943828106,0.0008177026174962521
1783174137678849300,4.431849365234375,0.00010450620902702212,0.001258981879800558,-0.0019375653937458992
1783174137688918000,4.44191796875,-0.0013043060898780823,-0.0006113564595580101,-0.0018347674049437046
1783174137698986000,4.451986083984375,0.0008719897596165538,0.0004930323921144009,-0.0016929155681282282
1783174137709055200,4.46205517578125,0.00047917349729686975,0.001012615393847227,-0.0021235488820821047
1783174137719123200,4.472123291015625,-0.0006095969583839178,0.0007850653491914272,-0.000004213303327560425
1783174137729192000,4.48219189453125,0.0021542315371334553,0.0010420605540275574,0.002150550251826644
1783174137739260200,4.49226025390625,0.0009675869951024652,-0.0007477197796106339,0.0006621880456805229
1783174137749329200,4.5023291015625,-0.0009240563958883286,0.0006807995960116386,0.0014816427137702703
1783174137759398100,4.512398193359375,-0.0008898062515072525,0.0020087561570107937,0.00025760335847735405
1783174137769466000,4.522466064453125,-0.00045517837861552835,0.00031498586758971214,-0.000926970737054944
1783174137779535000,4.53253515625,-0.00003803148865699768,0.00009633414447307587,0.0022164152469486
1783174137789604000,4.54260400390625,-0.001737927203066647,-0.002322082407772541,0.0020196076948195696
1783174137799672000,4.552672119140625,-0.0010851409751921892,0.0001827748492360115,-0.002061290666460991
1783174137809741000,4.562740966796875,0.0029269112274050713,0.0014544343575835228,-0.001541974488645792
1783174137819809300,4.572809326171875,-0.0015193080762401223,0.0006079352460801601,0.0012103485642001033
1783174137829878000,4.5828779296875,-0.003080985974520445,-0.0007103295065462589,0.0006247195415198803
1783174137839946000,4.592946044921875,-0.0006799445254728198,-0.0009628068655729294,0.0019033181015402079
1783174137850015200,4.60301513671875,0.00010462268255650997,0.0008100592531263828,-0.00004824623465538025
1783174137860084000,4.613083984375,0.0007695444510318339,0.0022159270010888577,0.002002859488129616
1783174137870152000,4.62315185546875,-0.001791617600247264,-0.00232822448015213,0.0006987096276134253
1783174137880221200,4.63322119140625,-0.0020207278430461884,-0.00007108040153980255,0.003070428501814604
1783174137890289200,4.6432890625,0.00011219771113246679,-0.0015810923650860786,0.001542306854389608
1783174137900358100,4.653358154296875,-0.0014228513464331627,-0.0012384075671434402,0.0006166230887174606
1783174137910427100,4.66342724609375,-0.0003069868544116616,-0.00016808323562145233,0.0019197077490389347
1783174137920495000,4.6734951171875,-0.0000705701531842351,0.0011483863927423954,-0.00033545936457812786
1783174137930564000,4.683564208984375,-0.000341147358994931,0.0006951163522899151,0.0009164925431832671
1783174137940632000,4.693632080078125,-0.0016443748027086258,0.0005511660128831863,-0.0006188969127833843
1783174137950701000,4.703701171875,-0.00036552478559315205,0.0029552015475928783,0.0021081799641251564
1783174137960770000,4.71377001953125,0.00017365170060656965,-0.00012386543676257133,-0.000993288354948163
1783174137970838000,4.723838134765625,-0.00009985495125874877,-0.00027566542848944664,0.00020193844102323055
1783174137980907300,4.7339072265625,-0.0011058985255658627,-0.0009323293343186378,0.0003542006015777588
1783174137990975200,4.743975341796875,-0.0009253362659364939,-0.0013677561655640602,-0.0013073459267616272
1783174138001044000,4.7540439453125,0.000961922574788332,0.0018039541319012642,0.0021859309636056423
1783174138011113200,4.76411328125,-0.0019822020549327135,-0.0006554755382239819,-0.0009605938103049994
1783174138021181200,4.77418115234375,-0.00007858860772103071,-0.001548707950860262,0.0008245449280366302
1783174138031250000,4.78425,0.0010146390413865447,-0.000014993362128734589,0.0007595636416226625
1783174138041319200,4.794319091796875,0.001718530198559165,0.00038208765909075737,-0.0020181138534098864
1783174138051387100,4.80438720703125,-0.00010333833051845431,-0.0007747900672256947,-0.0016348848585039377
1783174138061456100,4.8144560546875,0.0021647801622748375,0.001284437719732523,-0.0006558476015925407
1783174138071524000,4.824524169921875,-0.0012904050527140498,-0.0007275808602571487,-0.001591682666912675
1783174138081594400,4.834594482421875,-0.0008981713326647878,0.0009167632088065147,0.0007774580735713243
1783174138091663400,4.844663330078125,0.0015338272787630558,0.00034338468685746193,0.0021860040724277496
1783174138101731600,4.854731689453125,-0.0009625359089113772,-0.0007719532586634159,-0.0008842411916702986
1783174138111800300,4.86480029296875,-0.0011193959508091211,0.0005545672029256821,0.00005345768295228481
1783174138121868300,4.874868408203125,-0.00036507233744487166,0.0013223905116319656,-0.0017752849962562323
1783174138131937500,4.8849375,0.0007617110968567431,-0.00006751297041773796,0.0018207813845947385
1783174138142006300,4.89500634765625,-0.0003143957001157105,-0.0010897056199610233,0.00010966788977384567
1783174138152074200,4.90507421875,-0.00033090723445639014,0.000434954185038805,-0.0012016724795103073
1783174138162143500,4.9151435546875,-0.0003018761635757983,-0.0003181016072630882,0.00016628392040729523
1783174138172211500,4.92521142578125,0.00024007711908780038,-0.0002107769250869751,-0.0013402665499597788
1783174138182280400,4.935280517578125,-0.0016161049716174603,0.0008237012661993504,0.0008453165646642447
1783174138192349400,4.945349365234375,0.00036795000778511167,-0.0004958952777087688,0.0009917904390022159
1783174138202417400,4.95541748046875,0.0012080100132152438,0.000415031798183918,-0.0007851009722799063
1783174138212486400,4.965486328125,0.0007696537068113685,-0.0012443838641047478,-0.0027249474078416824
1783174138222554400,4.975554443359375,-0.0009371256455779076,0.0013968287967145443,-0.0002590713556855917
1783174138232623400,4.985623291015625,-0.0004092871677130461,0.0013989591971039772,-0.0020753471180796623
1783174138242692400,4.9956923828125,0.002217319095507264,-0.0019230558536946774,0.0023047616705298424
1783174138252760300,5.00576025390625,0.00023166625760495663,-0.0007581892423331738,-0.0006244492251425982
1783174138262829600,5.01582958984375,0.0001273013767786324,0.000216691754758358,0.0006991117261350155
1783174138272897500,5.0258974609375,-0.0017872450407594442,-0.0007260674610733986,-0.00030862842686474323
1783174138282966300,5.03596630859375,-0.0026744925417006016,0.0009313542395830154,0.0003621459472924471
1783174138293035500,5.046035400390625,-0.002940542297437787,-0.0030822958797216415,0.00009050359949469566
1783174138303103500,5.056103515625,0.00034037631121464074,0.001592949964106083,-0.0028529067058116198
1783174138313172200,5.066172119140625,-0.0014498005621135235,0.0011463374830782413,0.00001158914528787136
1783174138323240400,5.076240478515625,0.0005501846317201853,-0.0009014909155666828,-0.001468039583414793
1783174138333309400,5.086309326171875,-0.0003568880492821336,-0.0001416909508407116,0.0005639526061713696
1783174138343378400,5.09637841796875,0.00012757809599861503,0.00006171967834234238,0.0016777272103354335
1783174138353446400,5.1064462890625,0.0009592833230271935,0.0014984947629272938,0.0002441476099193096
1783174138363515400,5.116515380859375,0.0030070901848375797,-0.0010911701247096062,-0.0011600477155297995
1783174138373583600,5.12658349609375,-0.000058474543038755655,-0.001445637084543705,-0.0027038820553570986
1783174138383652400,5.13665234375,0.0011939802207052708,0.0008313143625855446,-0.0004847380332648754
1783174138393721300,5.146721435546875,-0.000667835702188313,-0.00020758528262376785,-0.0018988766241818666
1783174138403789600,5.15678955078125,-0.001958592562004924,-0.001336030662059784,-0.0007204422727227211
1783174138413858300,5.1668583984375,0.0003256007330492139,0.00032977666705846786,0.00018103769980370998
1783174138423926300,5.17692626953125,0.0010786923812702298,-0.0008096885867416859,-0.0013460933696478605
1783174138433995500,5.18699560546875,0.0003588399267755449,0.00022281939163804054,-0.0014187979977577925
1783174138444064300,5.197064208984375,0.00011999130947515368,-0.0001668054610490799,0.000001332256942987442
1783174138454132500,5.207132568359375,-0.0002824123948812485,-0.0010869279503822327,0.0008847028948366642
1783174138464201500,5.217201416015625,-0.0015610521659255028,0.0029449351131916046,0.0015772179467603564
1783174138474269400,5.22726953125,-0.00014238618314266205,0.0034107216633856297,0.0004416459705680609
1783174138484338400,5.23733837890625,-0.0017610746435821056,-0.0020082504488527775,-0.0010327603667974472
1783174138494407400,5.247407470703125,-0.0010228464379906654,-0.0007539023645222187,-0.00029479851946234703
1783174138504475400,5.257475341796875,-0.002731529762968421,0.001316967885941267,0.00043253181502223015
1783174138514544400,5.26754443359375,0.000045348366256803274,0.0001795319840312004,0.00011481670662760735
1783174138524612400,5.2776123046875,-0.0016645310679450631,0.0007568895816802979,-0.000023612985387444496
1783174138534681600,5.287681640625,-0.0008884859271347523,-0.001237552147358656,0.0004429728724062443
1783174138544750300,5.297750244140625,0.0002886686706915498,0.000025555957108736038,0.0004032172728329897
1783174138554818300,5.307818359375,0.0009941400494426489,0.00020878156647086143,0.0015254734316840768
1783174138564887600,5.317887451171875,-0.001161068445071578,-0.001537372823804617,0.0013080572243779898
1783174138574956500,5.32795654296875,-0.0004364222986623645,0.0009990218095481396,-0.003799353027716279
1783174138585024300,5.338024169921875,-0.0003492614487186074,-0.0004007117822766304,-0.0017013228498399258
1783174138595093500,5.348093505859375,-0.0018867043545469642,0.00008078804239630699,-0.000996650429442525
1783174138605161500,5.358161376953125,-0.0019664480350911617,0.0005132039077579975,-0.0007415576837956905
1783174138615230500,5.36823046875,-0.0005661580944433808,-0.0008026636205613613,0.0010052095167338848
1783174138625299500,5.378299560546875,-0.0002018340164795518,-0.00000880565494298935,0.0004939932841807604
1783174138635367400,5.388367431640625,0.00018192752031609416,0.0002689617685973644,0.0027912361547350883
1783174138645436400,5.3984365234375,-0.0012476491974666715,-0.0029880721122026443,0.0011429832084104419
1783174138655504400,5.40850439453125,-0.0019256899831816554,-0.0018330588936805725,0.00036613899283111095
1783174138665573400,5.418573486328125,-0.00009477959247305989,-0.0019872174598276615,-0.0002899765968322754
1783174138675642400,5.428642333984375,-0.0010050480486825109,0.00028312718495726585,0.0006866045296192169
1783174138685710300,5.43871044921875,0.00011376931797713041,0.0006736093200743198,-0.0009005037136375904
1783174138695779600,5.448779541015625,-0.0007277896511368454,-0.0016201711259782314,-0.0008765351958572865
1783174138705847600,5.45884765625,-0.0015276757767423987,-0.001039113849401474,0.00011552521027624607
1783174138715916300,5.468916259765625,0.002122719306498766,0.0014706491492688656,0.0009118104353547096
1783174138725985500,5.478985595703125,-0.0013224956346675754,-0.0016390448436141014,0.0001413992140442133
1783174138736053500,5.489053466796875,0.0019350829534232616,0.0013642022386193275,0.0015044051688164473
1783174138746122200,5.499122314453125,0.0022393986582756042,0.0009732884354889393,-0.002753163455054164
1783174138756190500,5.5091904296875,-0.00014173361705616117,0.00008379248902201653,0.0010631461627781391
1783174138766259500,5.519259521484375,-0.00045325764222070575,0.001604586374014616,-0.002523164264857769
1783174138776328400,5.529328369140625,-0.0002441994729451835,-0.0009363358840346336,0.000894470140337944
1783174138786396400,5.539396484375,-0.0004506295081228018,-0.0022247242741286755,-0.0006290415767580271
1783174138796465400,5.54946533203125,0.0012551251566037536,0.00023230817168951035,0.0015353093622252345
1783174138806533400,5.559533447265625,0.00015299319056794047,0.0012166379019618034,0.0002570797223597765
1783174138816602400,5.569602294921875,0.0009439520072191954,0.00184327969327569,-0.0009999324101954699
1783174138826671400,5.57967138671875,0.00145074469037354,-0.001286488026380539,0.0012247568229213357
1783174138836739600,5.589739501953125,0.0012478118296712637,-0.00025824178010225296,0.0021499390713870525
1783174138846808300,5.599808349609375,0.0010295649990439415,-0.001282266341149807,-0.002094082534313202
1783174138856877300,5.609877197265625,-0.0000647279666736722,-0.00099997129291296,0.0013959902571514249
1783174138866945500,5.619945556640625,-0.001954932464286685,-0.0006106668151915073,-0.0004180413670837879
1783174138877014300,5.63001416015625,-0.0007019152399152517,0.0008482127450406551,-0.0020532221533358097
1783174138887082200,5.640082275390625,0.0005496987141668797,-0.0023311469703912735,-0.000475532840937376
1783174138897151500,5.6501513671875,-0.002260468900203705,-0.0006980961188673973,-0.0000954996794462204
1783174138907220500,5.660220458984375,0.0020437422208487988,-0.000544792041182518,-0.0007089111022651196
1783174138917288400,5.670288330078125,0.0011153642553836107,-0.0010321512818336487,0.000039969803765416145
1783174138927357400,5.680357421875,-0.0008817909401841462,0.00048251915723085403,0.0013603996485471725
1783174138937425400,5.69042529296875,-0.001631470862776041,-0.0022932933643460274,0.0012480142759159207
1783174138947494400,5.700494384765625,0.00001346709905192256,-0.0009461073204874992,-0.001739527564495802
1783174138957563400,5.7105634765625,-0.0019724522717297077,-0.001120811328291893,-0.0005560189019888639
1783174138967631400,5.72063134765625,-0.0004750185180455446,0.0007252497598528862,0.0005918152164667845
1783174138977700400,5.730700439453125,-0.0016108567360788584,0.0028464575298130512,-0.00037171668373048306
1783174138987768300,5.740768310546875,-0.0005224457709118724,-0.0021785711869597435,0.000033338554203510284
1783174138997837600,5.750837646484375,-0.001815676805563271,-0.0001492425799369812,0.0003784843720495701
1783174139007906600,5.760906494140625,-0.0001805005595088005,0.0013799015432596207,0.0005449187010526657
1783174139017974300,5.770974365234375,0.000026959693059325218,-0.00016792770475149155,0.003975869156420231
1783174139028043500,5.78104345703125,-0.0006845056777819991,-0.001094179693609476,0.0003969708923250437
1783174139038111500,5.791111572265625,0.0013349694199860096,0.0013276985846459866,-0.0017295631114393473
1783174139048180200,5.80118017578125,0.00037953423452563584,-0.001045213546603918,-0.0010104444809257984
1783174139058249500,5.81124951171875,-0.003657817840576172,0.00007837405428290367,0.002160048810765147
1783174139068317400,5.8213173828125,-0.002093577291816473,-0.001016953494399786,-0.0003947278019040823
1783174139078385400,5.831385498046875,-0.0024006396997720003,-0.0026199095882475376,0.002846339251846075
1783174139088454100,5.8414541015625,0.0010030539706349373,0.0018259151838719845,-0.001592312939465046
1783174139098522000,5.851522216796875,-0.0018891390645876527,0.0009318920783698559,0.000015437602996826172
1783174139108591400,5.86159130859375,-0.0003883946337737143,0.0017208503559231758,-0.0014992181677371264
1783174139118659300,5.871659423828125,-0.0026475542690604925,-0.0009726705029606819,0.0016963087255135179
1783174139128728000,5.88172802734375,0.0003414403763599694,-0.0004511624574661255,-0.0007405558135360479
1783174139138797300,5.89179736328125,0.002274362836033106,-5.555339157581329e-7,0.0010964926332235336
1783174139148865300,5.901865234375,0.0012732241302728653,-0.0000020693987607955933,-0.0027444332372397184
1783174139158934000,5.91193408203125,0.0006468486972153187,-0.002259631175547838,0.0018135670106858015
1783174139169002200,5.922002197265625,-0.0019148403080180287,-0.0010883682407438755,-0.0009676248300820589
1783174139179071200,5.9320712890625,-0.0004887174582108855,0.0017263269983232021,0.0018870175117626786
1783174139189140200,5.94214013671875,-0.0009065164485946298,-0.0016694068908691406,-0.0009484575130045414
1783174139199208200,5.952208251953125,-0.0014591224025934935,0.0001482008956372738,0.001682479283772409
1783174139209277200,5.962277099609375,-0.0014372698497027159,-0.0010442896746098995,0.00019410322420299053
1783174139219345400,5.972345458984375,0.00034784714807756245,0.001700097694993019,-0.0009145706426352262
1783174139229414100,5.9824140625,0.0009863364975899458,-0.0017684218473732471,-0.0005192428361624479
1783174139239483100,5.992483154296875,-0.0011071744374930859,-0.0007103472016751766,-0.0017962285783141851
1783174139249551400,6.00255126953125,-0.0008789236890152097,0.00008452031761407852,-0.002710626693442464
1783174139259620000,6.0126201171875,-0.0003015503752976656,0.000009152572602033615,-0.0008016729261726141
1783174139269689300,6.022689453125,-0.000774011539760977,-0.0002357233315706253,0.000280267558991909
1783174139279757300,6.03275732421875,-0.0013804133050143719,-0.000933205708861351,-0.0009652927983552217
1783174139289826000,6.042825927734375,-0.0001791144022718072,0.000757997389882803,0.0002218990121036768
1783174139299894300,6.052894287109375,-0.00025927554816007614,-0.003233281895518303,-0.0006462913006544113
1783174139309963300,6.06296337890625,0.0014412548625841737,0.0008216956630349159,-0.0020034327171742916
1783174139320032000,6.073031982421875,0.0016100993379950523,-0.0009655514732003212,0.0005939481779932976
1783174139330100200,6.083100341796875,0.0019045285880565643,-0.000646800734102726,-0.0006572981365025043
1783174139340169200,6.093169189453125,0.0009473884711042047,-0.0013618599623441696,-0.004238983616232872
1783174139350237200,6.1032373046875,-0.0022416668944060802,-0.0022135316394269466,-0.00010733935050666332
1783174139360306200,6.11330615234375,-0.00007039163028821349,-0.0010103150270879269,-0.0008612803649157286
1783174139370375200,6.123375244140625,0.0002710114640649408,-0.0007211663760244846,0.0028828077483922243
1783174139380443400,6.133443359375,0.0027706543914973736,-0.002232510130852461,0.0034641758538782597
1783174139390512000,6.14351220703125,-0.00022103864466771483,-0.0009294236078858376,-0.003455832600593567
1783174139400581000,6.1535810546875,0.0005398264620453119,0.0011265366338193417,-0.0009724348783493042
1783174139410649300,6.1636494140625,0.00041142478585243225,0.0022187912836670876,-0.002006981987506151
1783174139420718000,6.173718017578125,-0.001522562699392438,-0.0008550290949642658,0.0023829727433621883
1783174139430786000,6.1837861328125,-0.0009488762589171529,0.0005604270845651627,-0.000029739458113908768
1783174139440855300,6.193855224609375,-0.0004279619315639138,-0.0012963293120265007,0.00009383121505379677
1783174139450924000,6.203924072265625,-0.000853477802593261,0.0008611842058598995,0.0001080117654055357
1783174139460992300,6.2139921875,-0.0006641270010732114,-0.001462690532207489,-0.0015921501908451319
1783174139471061200,6.224061279296875,0.0011169037315994501,0.0011818618513643742,-0.0006944381166249514
1783174139481129200,6.234129150390625,-0.00019017577869817615,-0.00044852495193481445,-0.00031467131339013577
1783174139491198200,6.2441982421875,-0.001086696982383728,0.0009121247567236423,0.0006434058304876089
1783174139501267200,6.25426708984375,-0.00021078321151435375,-0.0007757865823805332,0.0008063912391662598
1783174139511335200,6.264335205078125,-0.0023152492940425873,0.0015533207915723324,0.0013688199687749147
1783174139521404200,6.274404052734375,-0.002369577530771494,0.0017866138368844986,-0.0005425307899713516
1783174139531472100,6.28447216796875,-0.0008350173011422157,0.0006577996537089348,0.00015703309327363968
1783174139541541400,6.294541259765625,-0.0004928010748699307,-0.0017001633532345295,-0.0003111506812274456
1783174139551610000,6.304610107421875,-0.000020072446204721928,-0.0008495966903865337,-0.0015158811584115028
1783174139561678000,6.314677978515625,-0.00038785499054938555,-0.0013193781487643719,-0.0007440971676260233
1783174139571747300,6.324747314453125,-0.0008379965438507497,0.001263890415430069,0.0014969584299251437
1783174139581816300,6.33481640625,0.002142613288015127,-0.0000024428591132164,0.0005960110574960709
1783174139591884000,6.344884033203125,-0.0009815567173063755,0.0010056495666503906,0.0021564634516835213
1783174139601953300,6.354953369140625,0.00029569529579021037,0.0011079153046011925,-0.0013852743431925774
1783174139612021200,6.365021240234375,0.00044804339995607734,0.0007407199591398239,0.0007349411025643349
1783174139622090200,6.37509033203125,-0.0013810156378895044,-0.0007285457104444504,0.00019884668290615082
1783174139632159200,6.3851591796875,-0.0011075374204665422,-0.0010894136503338814,0.0006038171704858541
1783174139642227200,6.395227294921875,-0.0000856824335642159,-0.00010084826499223709,-0.001417255960404873
1783174139652296200,6.405296142578125,-0.0006364242872223258,-0.0005357330664992332,0.000508416909724474
1783174139662364200,6.4153642578125,0.00050234334776178,0.0021665766835212708,-0.000172819709405303
1783174139672433200,6.42543310546875,-0.0015222289366647601,-0.0005210908129811287,-0.0004041832871735096
1783174139682502100,6.435502197265625,0.0010354709811508656,-0.0005035139620304108,0.003268848406150937
1783174139692570000,6.445570068359375,0.0007613284979015589,0.0002599279396235943,-0.0038655351381748915
1783174139702639400,6.455639404296875,0.0020154109224677086,-0.00035126740112900734,-0.0005869176238775253
1783174139712708400,6.465708251953125,-0.0015814420767128468,-0.0019586998969316483,0.0016292572254315019
1783174139722776000,6.475776123046875,-0.0006996694719418883,-0.0004622694104909897,0.0001376208383589983
1783174139732845300,6.48584521484375,-0.0008992025395855308,0.0007461546920239925,0.002051836811006069
1783174139742913300,6.495913330078125,0.00009069440420717001,-0.0003651822917163372,0.0008062762208282948
1783174139752982000,6.50598193359375,-0.0008548218756914139,-0.0004874803125858307,0.0042558894492685795
1783174139763051300,6.51605126953125,-0.0008028902811929584,0.0008068154565989971,0.0020302857737988234
1783174139773119200,6.526119140625,0.0011607245542109013,-0.002147379796952009,-0.0031043251510709524
1783174139783188200,6.536188232421875,-0.0038159245159476995,-0.0010917033068835735,0.0026017639320343733
1783174139793256200,6.546256103515625,-0.0005886940634809434,-0.001254439353942871,0.0010790621163323522
1783174139803325200,6.5563251953125,0.0008238466107286513,-0.001333535648882389,-0.00014252983964979649
1783174139813394400,6.56639453125,0.0003530315589159727,-0.00010431604459881783,0.0011059088865295053
1783174139823462100,6.576462158203125,-0.001972706988453865,-0.0013203155249357224,0.0010321392910555005
1783174139833531100,6.58653125,-0.00019562628585845232,0.00043409131467342377,0.000947133987210691
1783174139843600400,6.596600341796875,0.0007330179796554148,0.00039520906284451485,0.002627055859193206
1783174139853668000,6.606668212890625,-0.0010671981144696474,0.0000948859378695488,-0.0010039927437901497
1783174139863737300,6.6167373046875,0.0018356475047767162,0.0003984863869845867,0.000011204276233911514
1783174139873805300,6.626805419921875,-0.0006865195464342833,-0.002551883924752474,0.00011082179844379425
1783174139883874300,6.636874267578125,-0.0004921088693663478,-0.00010124361142516136,0.0006466496270149946
1783174139893943300,6.646943359375,-0.0005263289785943925,0.0014891456812620163,0.0011286190710961819
1783174139904011300,6.65701123046875,-0.00029010657453909516,-0.0022014626301825047,-0.0005174807738512754
1783174139914080300,6.667080322265625,0.0011539144907146692,-0.0005209404043853283,0.003471972653642297
1783174139924149200,6.677149169921875,-0.0009017795091494918,0.0006926623173058033,0.00013769487850368023
1783174139934217200,6.68721728515625,-0.00022171682212501764,0.002702008932828903,0.00019926647655665874
1783174139944286500,6.697286376953125,-0.002456907881423831,0.0006180852651596069,-0.0009895686525851488
1783174139954354200,6.707354248046875,-0.001032522413879633,0.000427913386374712,-0.0016282100696116686
1783174139964423200,6.717423095703125,-0.0005409028381109238,-0.0008192448876798153,-0.0000566788949072361
1783174139974492400,6.727492431640625,-0.00014790467685088515,-0.000735982321202755,0.0002877619117498398
1783174139984560000,6.73756005859375,0.0017187048215419054,0.00038627395406365395,0.0005841718520969152
1783174139994629000,6.747629150390625,-0.0007973125902935863,0.001766079105436802,0.0018697776831686497
1783174140004697300,6.757697265625,0.0002770065621007234,-0.0020531602203845978,0.0013209001626819372
1783174140014766300,6.767766357421875,-0.0013912657741457224,-0.0013061449863016605,-0.0014753062278032303
1783174140024835300,6.77783544921875,-0.0027609295211732388,-0.001256610732525587,0.0014235444832593203
1783174140034903300,6.7879033203125,0.00031480431789532304,-0.0021963980980217457,-0.0013467518147081137
1783174140044972300,6.79797216796875,0.0018429260235279799,0.00014984747394919395,0.001942518400028348
1783174140055041300,6.808041259765625,-0.00033801014069467783,-0.0021631452254951,-0.00055669154971838
1783174140065109200,6.818109130859375,0.0011911769397556782,-0.0023572896607220173,0.000787938479334116
1783174140075178500,6.828178466796875,-0.0018611409468576312,-0.00012105889618396759,0.0011234254343435168
1783174140085246500,6.83824658203125,-0.00019480101764202118,-0.0006238636560738087,0.0003665550611913204
1783174140095315500,6.8483154296875,-0.0000749532482586801,0.0007233554497361183,-0.0013871046248823404
1783174140105384700,6.858384765625,0.0010901797795668244,-0.0009797359816730022,-0.00019560637883841991
1783174140115452400,6.868452392578125,0.0011899692472070456,0.0009437156841158867,-0.0011315536685287952
1783174140125521700,6.878521728515625,-0.0012758516240864992,-0.00016043102368712425,0.001563831465318799
1783174140135589600,6.888589599609375,-0.001189087051898241,-0.0011011683382093906,-0.00008602975867688656
1783174140145658400,6.898658447265625,0.00047672016080468893,-0.0017203534953296185,-0.00016965297982096672
1783174140155727600,6.9087275390625,0.002189597114920616,0.00202610669657588,-0.00025227107107639313
1783174140165795600,6.918795654296875,-0.0003332154010422528,-0.0001678052358329296,-0.0015612146817147732
1783174140175864600,6.928864501953125,-0.0016812772955745459,0.000044294167309999466,-0.0014855321496725082
1783174140185933600,6.93893359375,-0.002062375657260418,0.0009542959742248058,-0.0009371871128678322
1783174140196001500,6.94900146484375,-0.00040411396184936166,0.000296963844448328,0.0020929344464093447
1783174140206070800,6.95907080078125,0.0006976358126848936,-0.0009866803884506226,0.0025797602720558643
1783174140216138500,6.969138427734375,-0.000020885083358734846,-0.0018098633736371994,0.003967001102864742
1783174140226207500,6.97920751953125,0.00010917306644842029,-0.00024198740720748901,-0.0010671576019376516
1783174140236276700,6.98927685546875,0.0010678308317437768,-0.0010902606882154942,-0.0003933599218726158
1783174140246344400,6.999344482421875,-0.00102328322827816,-0.002186151687055826,0.0004242304712533951
1783174140256413400,7.009413330078125,-0.0011222444009035826,-0.0018442361615598202,0.0021181569900363684
1783174140266482700,7.019482666015625,-0.00016723474254831672,-0.00007403315976262093,-0.0007130496669560671
1783174140276550700,7.029550537109375,0.0005346977268345654,0.0010817702859640121,-0.0002611130475997925
1783174140286619600,7.03961962890625,0.000012984441127628088,-0.00016751838847994804,0.0007096091285347939
1783174140296687600,7.0496875,-0.0005112451617605984,-0.0009133331477642059,-0.0019022768829017878
1783174140306756600,7.059756591796875,-0.0019410962704569101,-0.0012273192405700684,-0.000753655331209302
1783174140316825600,7.06982568359375,-0.0005612106760963798,0.0019067144021391869,0.0006937442813068628
1783174140326893600,7.0798935546875,-0.0026515256613492966,-0.0017468766309320927,0.001741165528073907
1783174140336962600,7.089962646484375,-0.0005170517251826823,-0.0010858229361474514,-0.0020219706930220127
1783174140347031600,7.100031494140625,0.000953545852098614,-0.00013241125270724297,-0.0015077139250934124
1783174140357099500,7.110099609375,0.000699556665495038,0.0010244790464639664,0.0021249670535326004
1783174140367168800,7.120168701171875,0.00047824796638451517,0.00045695947483181953,0.0014682316686958075
1783174140377236500,7.130236572265625,0.0003043007163796574,0.0003535328432917595,-0.0014892327599227428
1783174140387305500,7.140305419921875,-0.0011873356997966766,-0.0018707388080656528,0.002116687363013625
1783174140397374700,7.150374755859375,-0.0013688020408153534,-0.0005442933179438114,-0.0007687720935791731
1783174140407442700,7.160442626953125,0.00011910602916032076,-0.0018950491212308407,-0.0007072528824210167
1783174140417511400,7.170511474609375,-0.00046893872786313295,0.0018739886581897736,0.0021300148218870163
1783174140427579600,7.18057958984375,-0.0015887980116531253,0.00009393179789185524,0.0008144131861627102
1783174140437648600,7.190648681640625,0.002266332972794771,-0.0010449099354445934,-0.0013008431997150183
1783174140447717600,7.200717529296875,-0.0005960325361229479,0.0005511222407221794,0.0029578173998743296
1783174140457785600,7.21078564453125,0.0011718692258000374,-0.0007029776461422443,0.0009013419039547443
1783174140467854600,7.2208544921875,-0.00017595657845959067,0.0006232769228518009,-0.002075006952509284
1783174140477923600,7.230923583984375,-0.00016273651272058487,-0.0002121375873684883,-0.0004900232888758183
1783174140487991600,7.240991455078125,-0.0015169538091868162,0.0014379564672708511,0.0011073407949879766
1783174140498060500,7.251060546875,0.0019153906032443047,0.002639955375343561,-0.002825380302965641
1783174140508128800,7.261128662109375,-0.0003831837675534189,-0.0015225652605295181,-0.0018847514875233173
1783174140518197500,7.271197509765625,-0.001507094595581293,0.0005359076894819736,-0.00096692587248981
1783174140528266800,7.281266845703125,-0.0003984206705354154,-0.0008747684769332409,0.000645884545519948
1783174140538334700,7.291334716796875,-0.000776167493313551,-0.001151171512901783,0.0008865362033247948
1783174140548403500,7.301403564453125,0.002085665240883827,0.0027764583937823772,-0.0027619944885373116
1783174140558471700,7.3114716796875,-0.0016413978300988674,-0.00006388640031218529,-0.00010113604366779327
1783174140568540700,7.321540771484375,-0.00022459612227976322,-0.0012484602630138397,-0.0003317657392472029
1783174140578609400,7.331609375,-0.0002531799837015569,0.0007536616176366806,0.0009858827106654644
1783174140588677600,7.341677734375,0.0011204786133021116,-0.0012373179197311401,-0.000910554314032197
1783174140598746600,7.35174658203125,0.0008433679467998445,0.0005255839787423611,0.0017583172302693129
1783174140608815600,7.361815673828125,0.00015121238538995385,0.0005602054297924042,0.0016685687005519867
1783174140618883600,7.371883544921875,0.0005607018247246742,-0.002363838255405426,-0.0017459148075431585
1783174140628952600,7.38195263671875,-0.0019141737138852477,-0.001131594181060791,-0.00021273293532431126
1783174140639020800,7.392020751953125,0.0017990304622799158,-0.0013810335658490658,0.0010249621700495481
1783174140649089500,7.402089599609375,-0.0016942380461841822,-0.0004997937940061092,0.002161066746339202
1783174140659158500,7.412158447265625,-0.0009672764572314918,-0.00069444440305233,-0.0009315439965575933
1783174140669226800,7.422226806640625,0.0013352925889194012,-0.0019429344683885574,-0.0015656426548957825
1783174140679295500,7.43229541015625,-0.00023637560661882162,-0.0006105019710958004,0.00023984978906810284
1783174140689364700,7.44236474609375,-0.0023461319506168365,-0.0007013161666691303,-0.0010563107207417488
1783174140699432700,7.4524326171875,-0.0000404843594878912,0.0014804713428020477,-0.00007650814950466156
1783174140709501400,7.46250146484375,0.00011557689867913723,0.0015470501966774464,-0.0009148712269961834
1783174140719569700,7.472569580078125,0.0010803084587678313,-0.00006229477003216743,0.0011155017418786883
1783174140729638700,7.482638671875,0.00013035890879109502,-0.0007171658799052238,-0.0022350214421749115
1783174140739707400,7.492707275390625,-0.0013055317103862762,0.0005182297900319099,0.0002654166892170906
1783174140749775600,7.502775634765625,-0.0006517255678772926,-0.0019140350632369518,0.00016687973402440548
1783174140759844600,7.5128447265625,0.00007114268373697996,0.0005657565779983997,0.00033354200422763824
1783174140769913600,7.52291357421875,-0.0023936128709465265,-0.0028012781403958797,0.0011210388038307428
1783174140779981600,7.532981689453125,0.00017786852549761534,-0.00027591269463300705,-0.0008577739354223013
1783174140790050600,7.543050537109375,-0.000578735547605902,-0.0022336021065711975,-0.000942995073273778
1783174140800118800,7.553118896484375,0.0016256433445960283,0.0005143978632986546,-0.0014577803667634726
1783174140810187500,7.5631875,0.00029512803303077817,-0.0022265277802944183,-0.0018221007194370031
1783174140820256500,7.573256591796875,-0.0005870783934369683,-0.00022284826263785362,0.00031508482061326504
1783174140830324700,7.58332470703125,-0.000053380848839879036,-0.0009919689036905766,-0.0008037090301513672
1783174140840393500,7.5933935546875,0.0009790495969355106,0.00010315096005797386,-0.00001845252700150013
1783174140850462700,7.603462646484375,0.0005116648972034454,0.0008339225314557552,0.0012542720651254058
1783174140860530700,7.61353076171875,-0.00022557534975931048,0.0023733912967145443,-0.0012366445735096931
1783174140870599400,7.623599365234375,-0.0012519576121121645,0.0009784274734556675,0.0009972148109227419
1783174140880667600,7.633667724609375,0.00007364532211795449,0.00047607719898223877,-0.0025917047169059515
1783174140890736600,7.643736572265625,0.00033623300259932876,-0.0004480401985347271,0.003792158793658018
1783174140900805400,7.653805419921875,-0.0006330058677121997,-0.0010957559570670128,-0.0007233384530991316
1783174140910873600,7.66387353515625,-0.0015193058643490076,-0.0007013417780399323,0.0016348905628547072
1783174140920942600,7.673942626953125,-0.0018225335516035557,0.0014911158941686153,0.0016261587152257562
1783174140931011600,7.684011474609375,0.0013101428048685193,0.0005680643953382969,-0.0005552365910261869
1783174140941079600,7.69407958984375,0.001932095387019217,0.0015573049895465374,-0.0012493273243308067
1783174140951148500,7.7041484375,0.00226179463788867,0.001134395133703947,0.0003259324003010988
1783174140961216500,7.714216552734375,0.0004820091708097607,0.00034185266122221947,0.0008896474028006196
1783174140971285500,7.724285400390625,0.0011355489259585738,-0.0017737625166773796,-0.002862213645130396
1783174140981354500,7.7343544921875,-0.0007861705962568521,-0.0001067575067281723,-0.0017190661747008562
1783174140991422700,7.744422607421875,-0.0014026922872290015,0.0007670256309211254,-0.0008761757053434849
1783174141001491500,7.754491455078125,-0.002739192917943001,-0.0018748086877167225,0.0007020316552370787
1783174141011560700,7.764560791015625,0.001294697169214487,0.000683157704770565,-0.001090808305889368
1783174141021628700,7.774628662109375,-0.0005891735199838877,-0.000193779356777668,0.0004746047779917717
1783174141031697400,7.784697509765625,0.0015709165018051863,-0.0013743583112955093,0.0019561212975531816
1783174141041765400,7.794765380859375,-0.0014906758442521095,0.0013115587644279003,-0.0003816429525613785
1783174141051834600,7.804834716796875,-0.00016309000784531236,0.0010614879429340363,-0.0007616761140525341
1783174141061903400,7.8149033203125,0.0011025478597730398,0.0016698515973985195,0.0035933302715420723
1783174141071971600,7.8249716796875,-0.0023254731204360723,-0.0010625515133142471,0.00028275465592741966
1783174141082041000,7.835041015625,-0.0002262613852508366,0.0011578379198908806,0.00196493580006063
1783174141092109800,7.84510986328125,-0.0005684776115231216,-0.00017507420852780342,0.00013827369548380375
1783174141102178000,7.855177978515625,0.0001167052541859448,-0.0018276073969900608,0.0011023322585970163
1783174141112247000,7.8652470703125,0.0005465394351631403,0.000352456234395504,-0.0018202206119894981
1783174141122315000,7.87531494140625,-0.0011730233673006296,0.00006597628816962242,-0.00048250798135995865
1783174141132384000,7.885384033203125,-0.00025769497733563185,-0.0010213921777904034,0.00012922007590532303
1783174141142453000,7.895452880859375,0.00010054971789941192,-0.0003025638870894909,0.0002613209653645754
1783174141152521000,7.90552099609375,0.0007306536426767707,-0.0003220043145120144,-0.004074038937687874
1783174141162590000,7.91558984375,0.0013040710473433137,-0.001395578496158123,0.0008890936151146889
1783174141172659000,7.925658935546875,-0.001702637760899961,0.00013467436656355858,-0.00030852993950247765
1783174141182727200,7.93572705078125,0.0004336553975008428,-0.0011084573343396187,0.0019860202446579933
1783174141192796000,7.9457958984375,-0.0012665066169574857,0.0006276569329202175,-0.002559729153290391
1783174141202863900,7.95586376953125,0.0007651189807802439,0.00023682927712798119,-0.00031324499286711216
1783174141212933000,7.96593310546875,0.0009866940090432763,-0.0012441547587513924,0.0029784219805151224
1783174141223001900,7.976001953125,0.0008189704967662692,0.00040321145206689835,-0.003103491384536028
1783174141233069800,7.98606982421875,0.0016653230413794518,0.00155689287930727,-0.002541298046708107
1783174141243139000,7.99613916015625,0.0007417179294861853,-0.0013246792368590832,-0.0001876302994787693
1783174141253207000,8.00620703125,0.0008306675008498132,0.0006196950562298298,0.0009005373576655984
1783174141263276000,8.016276123046875,-0.0002848129952326417,-0.0012703635729849339,-0.0009469331707805395
1783174141273344000,8.026343994140625,-0.00007122743409126997,-0.001197658944875002,-0.0032516326755285263
1783174141283413000,8.0364130859375,-0.0027348273433744907,-0.0008432730101048946,-0.00016063638031482697
1783174141293481000,8.04648095703125,0.0024024101439863443,0.001091513317078352,0.00018743867985904217
1783174141303550000,8.056550048828125,-0.0005628754734061658,-0.0019366289488971233,-0.000767675694078207
1783174141313619000,8.066618896484375,-0.00019109813729301095,0.0006580888293683529,0.0013061277568340302
1783174141323687200,8.076687255859374,0.003477255115285516,-0.0013153636828064919,-0.0019713088404387236
1783174141333756000,8.086755859375,0.0004037007747683674,0.0003885268233716488,-0.0012802181299775839
1783174141343825200,8.0968251953125,0.0009405463351868093,-0.002665868028998375,0.003063744166865945
1783174141353893000,8.10689306640625,-0.002909052884206176,0.0015858681872487068,0.0004487861879169941
1783174141363961900,8.1169619140625,0.00030787516152486205,0.001297508366405964,-0.0019057916942983866
1783174141374029800,8.12702978515625,-0.0017203881870955229,0.001520681194961071,0.002454601926729083
1783174141384099000,8.13709912109375,-0.0007182045374065638,-0.0013622106052935123,-0.0015114934649318457
1783174141394167800,8.147167724609375,-0.0006947687361389399,0.002275401260703802,-0.0023850102443248034
1783174141404236000,8.157236083984374,0.0010065145324915648,-0.0003768661990761757,-0.0012610114645212889
1783174141414305000,8.167304931640626,0.0010211619082838297,-0.0006335945799946785,0.00009533646516501904
1783174141424374000,8.1773740234375,-0.001392966601997614,-0.001039342489093542,-0.0012494244147092104
1783174141434442000,8.18744189453125,0.0002621880848892033,-0.001242807600647211,0.0025913864374160767
1783174141444511000,8.197510986328124,-0.0020670390222221613,0.0003490336239337921,-0.000571683282032609
1783174141454579000,8.207578857421876,-0.0015109709929674864,-0.0010725618340075016,-0.0012009881902486086
1783174141464648000,8.21764794921875,0.0008140508434735239,-0.000015337951481342316,0.00006004283204674721
1783174141474717000,8.227717041015625,-0.0015058288117870688,-0.0006630183197557926,0.00006483634933829308
1783174141484785200,8.23778515625,-0.00027087744092568755,-0.001013079658150673,0.000047232722863554955
1783174141494854000,8.24785400390625,0.0003357906825840473,-0.0018442515283823013,-0.002026570728048682
1783174141504923000,8.2579228515625,-0.0029095495119690895,-0.0008134418167173862,-0.0008434141054749489
1783174141514991000,8.2679912109375,0.00040155876195058227,-0.0015431479550898075,0.0013957717455923557
1783174141525059800,8.278059814453124,-3.3294782042503357e-7,-0.0006634686142206192,-0.0017464379779994488
1783174141535127800,8.2881279296875,-0.0013604093110188842,-0.00012737372890114784,0.0012770486064255238
1783174141545197000,8.298197021484375,0.003646895755082369,-0.00031922291964292526,-0.004132688045501709
1783174141555265800,8.308265869140625,0.000577602710109204,0.00041900482028722763,0.0003014756366610527
1783174141565334000,8.318333984375,0.0007337249116972089,-0.0006844871677458286,0.0003301030956208706
1783174141575403000,8.328403076171876,0.000874073535669595,0.00001965230330824852,-0.00024380814284086227
1783174141585471700,8.3384716796875,-0.0015956058632582426,-0.00038460828363895416,-0.001045589568093419
1783174141595540000,8.3485400390625,-0.0002624274347908795,-0.00016250088810920715,0.000652708113193512
1783174141605609000,8.35860888671875,0.0010469028493389487,-0.00003195134922862053,-0.00018224818632006645
1783174141615678000,8.368677978515626,-0.0006170401466079056,0.00033822841942310333,-0.0022896076552569866
1783174141625748000,8.378748046875,0.0006104530766606331,-0.00018901098519563675,-0.0002107501495629549
1783174141635816200,8.388816162109375,-0.00010646990267559886,-0.000538150779902935,-0.003995368257164955
1783174141645885000,8.398885009765625,-0.0035820952616631985,0.0001710839569568634,-0.0001929551362991333
1783174141655954000,8.408953857421874,-0.0000840331194922328,-0.002117902971804142,0.0027487725019454956
1783174141666022100,8.419022216796876,-0.0003828010521829128,-0.0000390917994081974,0.0006769166793674231
1783174141676091000,8.4290908203125,-0.0015511297388002276,-0.0018713464960455894,0.000681976554915309
1783174141686160100,8.43916015625,0.0010588609147816896,-0.002359955105930567,0.00028073531575500965
1783174141696228000,8.44922802734375,0.0011440820526331663,-0.00018894625827670097,0.0017358865588903427
1783174141706296800,8.459296875,-0.00015904702013358474,-0.0002743569202721119,-0.0020424225367605686
1783174141716366000,8.469365966796875,-0.0015364340506494045,-0.000037868041545152664,0.0031941512133926153
1783174141726434000,8.47943408203125,-0.00009796564700081944,0.0004918389022350311,0.0003190035931766033
1783174141736502800,8.489502685546874,0.0010232252534478903,0.0001248554326593876,0.0009752066107466817
1783174141746571000,8.499571044921876,-0.00020717730512842536,0.0008840002119541168,0.000526537885889411
1783174141756640000,8.509639892578125,-0.00027082691667601466,-0.0007541105151176453,0.0005153527017682791
1783174141766709000,8.519708984375,-0.0004162545083090663,0.00003779260441660881,0.0009143202332779765
1783174141776777000,8.52977685546875,-0.0014695347053930163,-0.0012892610393464565,0.0008546654134988785
1783174141786846000,8.539845947265626,-0.0015643283259123564,0.0018057217821478844,-0.000465909019112587
1783174141796915000,8.5499150390625,0.002271422417834401,-0.000282196793705225,-0.0019090762361884117
1783174141806983000,8.55998291015625,0.0005818309728056192,-0.0002599996514618397,-0.0024982616305351257
1783174141817052000,8.570052001953124,0.001336570829153061,0.00022203195840120316,-0.00271823862567544
1783174141827120000,8.5801201171875,0.0020967519376426935,-0.0002832734026014805,-0.002600492676720023
1783174141837188900,8.59018896484375,0.0006517207948490977,-0.0011128480546176434,-0.0013165830168873072
1783174141847258000,8.600258056640625,0.0012742317048832774,-0.0012490004301071167,-0.0022303557489067316
1783174141857326000,8.610326171875,0.0010822177864611149,-0.0015424806624650955,0.00027701049111783504
1783174141867394800,8.620394775390626,-0.0007809360395185649,0.00011145230382680893,-0.0007659643888473511
1783174141877464000,8.630464111328125,-0.0015324801206588745,0.00040067173540592194,0.0010071683209389448
1783174141887532000,8.640531982421875,0.0018416412640362978,0.0009327069856226444,-0.0021374684292823076
1783174141897600800,8.650600830078124,0.0006986125372350216,-0.000042809173464775085,-0.0025124417152255774
1783174141907669000,8.6606689453125,0.000001162756234407425,0.19791506230831146,0.07808815687894821
1783174141917738000,8.670738037109375,0.001958586275577545,0.08922372758388519,0.03854633867740631
1783174141927807000,8.680806884765625,-0.0005626982892863452,-0.09305735677480698,-0.03272224962711334
1783174141937875000,8.690875,0.000014674966223537922,0.0992007702589035,0.03943370282649994
1783174141947944000,8.70094384765625,-0.0015479648718610406,-0.18242734670639038,-0.07440770417451859
1783174141958013200,8.71101318359375,-0.0012683329405263066,-0.016965415328741074,-0.006702692247927189
1783174141968081000,8.721080810546875,-0.00016056705499067903,-0.04617374762892723,-0.019178399816155434
1783174141978150000,8.73114990234375,-0.0013003998901695013,-0.013127113692462444,-0.003154160687699914
1783174141988219100,8.74121923828125,0.0012437511468306184,0.012267367914319038,0.0034490397665649652
1783174141998286800,8.751286865234375,0.0007172442274168134,-0.01721382513642311,-0.006996144540607929
