time,seconds_elapsed,z,y,x
1783169514587384800,0.071384765625,-0.007786416092514991,0.08401794344768859,-0.024950618255371225
1783169514597453800,0.081453857421875,-0.025144378128647803,0.07469146287289913,-0.030716369574703275
1783169514607523000,0.091523193359375,-0.008085691300034522,0.07757683188375085,-0.024410579394805242
1783169514617592800,0.1015927734375,-0.004045475998520851,0.07466876698390115,-0.007015020728064701
1783169514627661800,0.111661865234375,-0.016914309921860694,0.07853728354689665,-0.022190957983420228
1783169514637732000,0.121732177734375,-0.020355974808335304,0.05895804243183229,-0.025615297275758345
1783169514647800800,0.13180078125,-0.001202361527085304,0.08300473868399857,-0.02277334728152491
1783169514657869800,0.141869873046875,0.0029874913781881333,0.07596098505179397,-0.024536648893309757
1783169514667939800,0.15193994140625,-0.0071878656774759285,0.08188805527952499,-0.020311697275191543
1783169514678009000,0.162009033203125,-0.012724457016587257,0.0650524320504861,-0.014847518151742406
1783169514688077800,0.172077880859375,-0.00748714088499546,0.06914598954101092,-0.023155839226511307
1783169514698148000,0.182148193359375,-0.010330255356431006,0.0745621100053424,-0.011320076961244922
1783169514708216800,0.192216796875,-0.011377718582749366,0.07168408405072986,-0.02146384471869096
1783169514718287000,0.202287109375,-0.011227496457099913,0.05612197875569108,-0.014648108280746964
1783169514728355800,0.21235595703125,0.00912321765422821,0.060909824953577475,-0.013566928872850256
1783169514738425000,0.222425048828125,-0.006289455533027648,0.06094031142338644,-0.014807648507301928
1783169514748494800,0.232494873046875,0.00433481433391571,0.059890706472331655,-0.012111512750014663
1783169514758564000,0.242564208984375,-0.01541734936237335,0.07856172386840916,-0.004720432671860908
1783169514768633900,0.2526337890625,-0.0053916299104690545,0.07113196202672552,-0.009014223158932872
1783169514778702800,0.262702880859375,-0.019457564663887022,0.06894098218793515,-0.022555464463855604
1783169514788771800,0.272771728515625,-0.011077858853340148,0.06903953349185175,-0.029684206665505187
1783169514798841900,0.282841796875,-0.011826046872138977,0.07400424322714097,-0.031160094754211602
1783169514808910800,0.292910888671875,-0.02364741756916046,0.08452274203151464,-0.014185821106308139
1783169514818980000,0.30297998046875,-0.01855973904132843,0.07905498727806844,-0.027395999830204527
1783169514829049900,0.3130498046875,-0.034870237851142884,0.07745538832801394,-0.01067718964755768
1783169514839118800,0.323118896484375,-0.005690905117988586,0.06874804429856594,-0.008747902085410895
1783169514849189000,0.333189208984375,-0.007936053696274757,0.060840732639585615,-0.0017135904225200646
1783169514859257900,0.3432578125,-0.020056699600815773,0.06853356129766908,-0.01257116615101695
1783169514869326800,0.353326904296875,-0.018111410751938818,0.07007089496674015,-0.020440696233010383
1783169514879396900,0.36339697265625,-0.004644026413559914,0.06079987090623472,-0.005091504177934257
1783169514889466000,0.373466064453125,0.0007429273217916488,0.07246932527744211,-0.008203313772246474
1783169514899536000,0.383535888671875,-0.017512860336899756,0.07966721002543345,0.013351307652570539
1783169514909605000,0.393605224609375,-0.008384381985664368,0.06475793348278384,0.001182401588690118
1783169514919673900,0.403673828125,-0.001651274338364601,0.06934508317653089,-0.02578143392316997
1783169514929744100,0.413744140625,-0.024396190109848975,0.06746885467560496,-0.028924024531524626
1783169514939812900,0.423812744140625,-0.01003039562702179,0.0644675265683094,-0.013540300019184359
1783169514949883000,0.4338828125,-0.006290040054917335,0.07438426008725073,-0.028628772478573955
1783169514959952000,0.443951904296875,-0.011078443375229835,0.049470060285553334,-0.022928848370490595
1783169514970021000,0.454021240234375,-0.009731704941391944,0.06488115800365339,0.0023039135777973567
1783169514980091000,0.4640908203125,-0.00000526069700717926,0.06934336157690267,0.005841511406950303
1783169514990160000,0.474159912109375,-0.01556815600991249,0.05810986920385621,-0.018844250504556112
1783169515000228900,0.484228759765625,-0.01871054568886757,0.0680609342506621,-0.008267149955808418
1783169515010299000,0.494298828125,-0.007188450199365615,0.07525857240348123,0.0033974056196399032
1783169515020368000,0.504367919921875,-0.014670330387353896,0.06551332756050396,-0.024289359601354223
1783169515030438000,0.51443798828125,-0.02783843951821327,0.06565798759504686,-0.017918874721368775
1783169515040507000,0.5245068359375,-0.02514496265053749,0.06103560675771441,-0.008722212805016897
1783169515050576000,0.534575927734375,-0.0031488194197416305,0.060184643351030534,-0.004555776166304713
1783169515060646000,0.54464599609375,-0.010481062003970145,0.05715233101700432,-0.007264408933094818
1783169515070715000,0.55471484375,0.009720014503598213,0.054636585336411365,-0.012339437471085693
1783169515080785200,0.56478515625,-0.004046645042300224,0.053189697296614755,-0.0014206182332680327
1783169515090854000,0.57485400390625,-0.010780337211489677,0.062309124691714526,0.003853398908965755
1783169515100923000,0.5849228515625,-0.016616203758120535,0.06888837978444062,0.008167156755120959
1783169515110993000,0.594992919921875,-0.005393383476138115,0.045993241887306795,-0.0015597715464537032
1783169515121062100,0.605062255859375,-0.005243745872378349,0.0622389866315294,0.013999084628862329
1783169515131131000,0.615130859375,-0.005842296287417411,0.07238681635945103,-0.007562238818910555
1783169515141201000,0.625200927734375,-0.02544482237994671,0.07462574525950476,0.0030909534651291323
1783169515151270000,0.635269775390625,-0.012875263664126396,0.08111065029939636,-0.02403917509941384
1783169515161340000,0.64533984375,-0.006889759513735771,0.07378482832279987,-0.0248000582030043
1783169515171409000,0.655408935546875,-0.01272562606036663,0.05980976389034185,-0.02147192299386952
1783169515181478100,0.66547802734375,-0.006890344035625457,0.04510483711364213,-0.011999850802775472
1783169515191548000,0.6755478515625,0.0013397241711616515,0.06684483645916917,-0.018285454427881632
1783169515201617000,0.685616943359375,-0.014372808745503425,0.06386722715417854,-0.015018305858096572
1783169515211687000,0.69568701171875,-0.01212824468910694,0.06793421173160895,-0.01367009926966857
1783169515221756000,0.705755859375,-0.004347089293599129,0.05342100356814917,-0.002836207523324992
1783169515231825000,0.715824951171875,-0.01990998460650444,0.05750319484786596,0.009129545788670656
1783169515241895000,0.72589501953125,-0.0113806411921978,0.06997025217043701,-0.021561149347014724
1783169515251964000,0.7359638671875,0.00044072950482368465,0.04887344609927386,-0.01200860264810035
1783169515262034000,0.746033935546875,-0.030384616869688033,0.0670622877352871,-0.009318223061453317
1783169515272103000,0.75610302734375,-0.01990998460650444,0.06848435642765835,-0.012681206963327713
1783169515282172000,0.766171875,-0.015571078619360922,0.06845403435463085,-0.006564091772923711
1783169515292242000,0.776241943359375,-0.006742459997534751,0.06039756914908066,-0.025244790312799158
1783169515302311000,0.786310791015625,-0.007490648016333579,0.06199905866212211,-0.018771568860835395
1783169515312380000,0.7963798828125,-0.00644318479001522,0.060785792148532344,-0.0026275006718438814
1783169515322450000,0.806449951171875,-0.00015840543210506437,0.06954097107481211,-0.00659076115496282
1783169515332519000,0.816518798828125,-0.021257892084121703,0.056972188677126535,-0.0012704571855894754
1783169515342589000,0.8265888671875,-0.011232172632217407,0.047850327296345495,-0.005367220413353061
1783169515352658000,0.836657958984375,-0.002852466821670532,0.05462434234276879,-0.01090695241597714
1783169515362727000,0.846726806640625,-0.011381810235977173,0.07941332659590988,-0.010398316765605705
1783169515372797000,0.856796875,-0.019162965631484983,0.06929591940571554,-0.008118548965087393
1783169515382866000,0.866865966796875,0.0007388356685638427,0.06676037761268672,-0.01248272068258375
1783169515392936000,0.87693603515625,-0.007192541852593421,0.06356494713881984,-0.019662099376216064
1783169515403005000,0.8870048828125,-0.007940729871392249,0.06763736137661616,-0.017304391518258487
1783169515413074000,0.897073974609375,-0.011532616883516311,0.06794101593173109,-0.0176255018149619
1783169515423144000,0.90714404296875,-0.019912322694063185,0.07034567505382001,-0.00035042601026652844
1783169515433213000,0.917212890625,-0.017667758637666703,0.05193562841517851,-0.010717738570366054
1783169515443282000,0.927281982421875,-0.01557341670691967,0.055769786050845864,-0.007159265204076655
1783169515453352000,0.93735205078125,-0.03293137874305248,0.039734249991201794,-0.008133087805449031
1783169515463421000,0.9474208984375,-0.00973755016028881,0.060644292185455556,-0.008717044581199297
1783169515473491000,0.957490966796875,-0.006445522877573967,0.07329654248235747,-0.0061604634250747034
1783169515483560000,0.967559814453125,-0.005398059651255607,0.0682710607368499,0.005263751476546167
1783169515493629000,0.97762890625,-0.004500234028697013,0.04275996362108271,0.003401325455398182
1783169515503699000,0.987698974609375,0.0026817864298820495,0.062344698328594676,-0.017329599024751223
1783169515513768000,0.997767822265625,-0.004351180946826934,0.06918320714570582,-0.02564408041224815
1783169515523838000,1.007837890625,-0.014227847316861152,0.06357915832726284,-0.008015852921482292
1783169515533907000,1.017906982421875,-0.01632277376949787,0.06046229581520892,-0.02228567336243577
1783169515543976000,1.027975830078125,-0.025900164932012557,0.054420531432935966,-0.013803146498231217
1783169515554047500,1.038047607421875,-0.017071546310186383,0.05509818409932777,0.005686427588982042
1783169515564116700,1.04811669921875,-0.003454524368047714,0.03319802118944935,-0.013863955041067674
1783169515574185700,1.058185791015625,0.004476268631219864,0.06584246818332466,0.0076702760454470985
1783169515584255700,1.068255859375,0.006271335354447364,0.07651081922058947,-0.0005196376766427419
1783169515594324500,1.078324462890625,-0.013929741153120994,0.05286975832697935,-0.007567980718996841
1783169515604394800,1.088394775390625,-0.005251344656944275,0.05628203272218816,-0.008874650291461148
1783169515614463500,1.09846337890625,-0.00031330373287200925,0.06425451857186854,-0.02021186276306398
1783169515624532700,1.10853271484375,-0.013182137656211852,0.0629746530954726,0.005365926359521108
1783169515634602800,1.118602783203125,-0.013481412863731383,0.05953273704724852,-0.02317020796186989
1783169515644671700,1.128671630859375,-0.01871872899532318,0.07330094009626191,-0.019036197446659207
1783169515654741800,1.13874169921875,-0.007795768442749976,0.06757086744508706,-0.003127990119199967
1783169515664810800,1.148810791015625,-0.005101707053184509,0.07309342112569138,0.001614826772760716
1783169515674879700,1.158879638671875,-0.0062993924051523206,0.0779611641593743,0.000457240535740857
1783169515684949800,1.16894970703125,-0.00869359406530857,0.06620472105788067,-0.024558374384639318
1783169515695018800,1.179018798828125,-0.011836568266153334,0.05900374930365942,-0.009889596633554902
1783169515705088500,1.189088623046875,-0.01288461601436138,0.05073029404629487,-0.007723625655146315
1783169515715157800,1.19915771484375,0.0011813187390565872,0.059993856319552286,-0.003048342161864275
1783169515725226800,1.209226806640625,-0.006899696385860443,0.05053001766726374,-0.008851187788305105
1783169515735296800,1.219296875,0.0005821838021278381,0.05580677989325486,-0.013138298514485358
1783169515745365500,1.229365478515625,-0.01677636275589466,0.06397108938745223,-0.020169229197734964
1783169515755434800,1.239434814453125,-0.010641221001744269,0.07107633654908277,-0.0179860490729101
1783169515765504500,1.24950439453125,-0.025007015484571456,0.04670897980807349,-0.019431631071609445
1783169515775573800,1.25957373046875,-0.01288636958003044,0.06105181354042142,-0.024488736364664507
1783169515785643500,1.2696435546875,-0.021714988201856612,0.05082454363442957,-0.008277720440528356
1783169515795712800,1.279712646484375,0.00013210194706916807,0.050895850738394074,-0.015951024697523096
1783169515805781500,1.289781494140625,-0.010791443127393722,0.04544371367918793,-0.0016035558892530388
1783169515815851800,1.299851806640625,-0.011689853271842002,0.05666249254029244,0.0006515603855543304
1783169515825920500,1.30992041015625,-0.011390578064322471,0.05716846930105239,-0.016434239353914745
1783169515835990800,1.31999072265625,-0.004507248291373253,0.05589942204619292,-0.010474748710903804
1783169515846059500,1.3300595703125,0.0011783961296081542,0.05925109339454211,-0.017742034016852266
1783169515856128800,1.340128662109375,-0.02366144609451294,0.06837516043214127,-0.024756543288263492
1783169515866198800,1.35019873046875,-0.011391162586212157,0.05631780728846788,-0.00364666653132881
1783169515876267800,1.360267822265625,-0.009296236133575438,0.058499617440113796,0.005965543070351123
1783169515886336500,1.37033642578125,-0.006154430976510048,0.049342182422452606,-0.006527938180731143
1783169515896406500,1.380406494140625,-0.009446458259224891,0.0527014799548313,-0.0012802890264370943
1783169515906475800,1.390475830078125,-0.01662964776158333,0.05036227358465548,-0.013940781995299039
1783169515916545500,1.400545654296875,-0.0042097266495227815,0.052756653341325,0.005130486764741362
1783169515926614800,1.41061474609375,0.0008779518783092498,0.058752934614056715,-0.004020798214990645
1783169515936683800,1.420683837890625,-0.00046878655552864073,0.051082559816376306,-0.012600218715565279
1783169515946753800,1.43075390625,-0.01872515873610973,0.046113320036442015,-0.013411680087278364
1783169515956822500,1.440822509765625,-0.020371172377467155,0.06873121646135114,-0.009649783970223506
1783169515966892800,1.450892822265625,-0.014236030623316765,0.04998254441891331,-0.012659275976021308
1783169515976961500,1.46096142578125,-0.010195815321803092,0.04370291159357875,-0.017200275839946697
1783169515987030800,1.47103076171875,-0.02755436187982559,0.06959683858104981,-0.019651616798108444
1783169515997100500,1.4811005859375,-0.017080314138531685,0.060685007788334036,-0.016942113527527544
1783169516007169800,1.491169677734375,-0.014686112478375434,0.07555503459940664,-0.007894985325302695
1783169516017238500,1.501238525390625,-0.029649872854351996,0.061110841118125245,-0.009810866558249108
1783169516027308800,1.511308837890625,-0.029949148061871527,0.050721859578089785,-0.0029561555250082164
1783169516037377500,1.52137744140625,-0.01992401313185692,0.056458110808301716,-0.006355579571798444
1783169516047447800,1.53144775390625,-0.006755319479107857,0.061569425940047946,0.007207044731159112
1783169516057516500,1.5415166015625,0.0025222119539976117,0.05575228236019611,0.0005466689599299571
1783169516067585800,1.551585693359375,-0.0028647417813539504,0.04972281577049289,0.003796850982715841
1783169516077655800,1.56165576171875,-0.017529811471700667,0.057742314533097666,-0.009036682156735332
1783169516087724800,1.571724853515625,-0.017380173867940902,0.05458749463083222,-0.0173882909590262
1783169516097793500,1.58179345703125,-0.0042120647370815275,0.048579376789834344,-0.0022915227412158854
1783169516107863600,1.591863525390625,-0.004661562070250511,0.06300866496292874,-0.0064480253619141874
1783169516117932800,1.601932861328125,-0.006757073044776916,0.06764223391455598,-0.0035548554954526477
1783169516128002600,1.61200244140625,-0.030550036564469335,0.055666905631683763,-0.012021731557731981
1783169516138071800,1.62207177734375,-0.010348960056900978,0.04302537765819579,0.000099864194879774
1783169516148140500,1.632140625,-0.011097148075699805,0.05604430584302172,-0.009498381955173682
1783169516158210800,1.6422109375,0.004315525111556053,0.046520964688993985,-0.017637484513700473
1783169516168279600,1.652279541015625,0.0025192893445491788,0.05156634301163721,-0.022610242841416037
1783169516178349800,1.662349853515625,-0.0075064301073551176,0.05369567862395197,-0.0013051614603231427
1783169516188418600,1.67241845703125,-0.014988894817233084,0.05283655017712153,-0.008243480815031215
1783169516198487800,1.68248779296875,-0.016036358043551444,0.04908487862655893,-0.008790527088407543
1783169516208557600,1.6925576171875,-0.02516366735100746,0.039965944421803574,-0.0010999303449614672
1783169516218626800,1.702626708984375,-0.00571077886223793,0.04653974245470017,-0.020755582284904085
1783169516228696600,1.712696533203125,0.0005740004956722259,0.05618692005095072,-0.011561356637522112
1783169516238765800,1.722765869140625,-0.0022696984976530075,0.04867749883548822,-0.01755832289684331
1783169516248834600,1.73283447265625,-0.015587445232272148,0.05019411394351627,-0.010704121036967261
1783169516258904600,1.742904541015625,-0.015139116942882537,0.04934483560384251,-0.0031097883130511033
1783169516268973600,1.7529736328125,-0.0024199206233024594,0.05059299990087747,-0.0018213742040185023
1783169516279042800,1.763042724609375,-0.005263035094738007,0.03922040501781739,0.00041596438550332095
1783169516289112600,1.773112548828125,-0.004365793994069099,0.040621668384177606,-0.005907895169802941
1783169516299181800,1.783181884765625,-0.007059270861744881,0.06128512453937437,-0.005971536703009042
1783169516309251800,1.793251953125,-0.004815291327238082,0.0625202969240956,0.0012325563067715848
1783169516319320600,1.803320556640625,-0.01783376285433769,0.057336596976150754,0.000055759620849858035
1783169516329389600,1.8133896484375,-0.006461889490485191,0.061163603351823984,-0.0011141580872470512
1783169516339459600,1.82345947265625,-0.02486789927482605,0.04855131517255213,0.007073729216182254
1783169516349528800,1.83352880859375,-0.014393267011642456,0.06074914993257261,-0.0067747337115200935
1783169516359597600,1.84359765625,-0.020080080476403236,0.05804557179599069,-0.003687478317740897
1783169516369667800,1.853667724609375,-0.014093991804122925,0.06816138981729745,-0.0018606039568199776
1783169516379736600,1.863736572265625,-0.021276596784591675,0.0539454110347433,-0.024316619784326757
1783169516389806800,1.873806884765625,-0.0206786308914423,0.04032928870832547,-0.018765415397973266
1783169516399875600,1.88387548828125,-0.011551321583986281,0.06112861423683352,-0.009359459254139802
1783169516409944800,1.89394482421875,-0.01499298647046089,0.05440453927936032,-0.0012643094309489243
1783169516420014600,1.9040146484375,-0.009905892464518546,0.056020650972798465,-0.003975587958440883
1783169516430083800,1.914083740234375,-0.00796118813753128,0.0554361519159982,-0.0023869088362669572
1783169516440153600,1.924153564453125,0.009695464584231376,0.06030304099973291,0.002388809674052754
1783169516450222800,1.934222900390625,-0.006615034225583076,0.05397089710244909,0.021921714871271977
1783169516460291600,1.94429150390625,-0.017688801425695417,0.04442150362513494,-0.00035282631744048556
1783169516470361600,1.954361572265625,-0.025320319217443463,0.04258393576731905,0.0022373186107462967
1783169516480430600,1.9644306640625,-0.004970189628005027,0.048854421738395465,-0.005257603721905616
1783169516490499800,1.974499755859375,-0.021131050834059716,0.0653579223696608,0.0019474171592926723
1783169516500569600,1.984569580078125,-0.013798808249831198,0.05113614860055968,-0.014028767381072975
1783169516510638600,1.994638671875,-0.021729601249098777,0.06544257757896557,-0.012921283346496056
1783169516520708600,2.00470849609375,-0.02906242835521698,0.053069482150161634,-0.0020054891807041713
1783169516530777600,2.014777587890625,-0.0028758476972579957,0.060861734328418966,-0.005688074981729733
1783169516540846600,2.0248466796875,-0.0010813654959201812,0.04504053970577661,-0.011997556097700725
1783169516550915300,2.034915283203125,-0.02951251021027565,0.04456499918247573,-0.018577226748957763
1783169516560984000,2.044984130859375,-0.003325345030426979,0.0545230602256488,-0.02373600688477745
1783169516571054300,2.055054443359375,-0.010508534532785415,0.05178330566398799,-0.01719501970951678
1783169516581123000,2.065123046875,-0.01005903719961643,0.05674173178896308,-0.0008404431543138344
1783169516591192300,2.0751923828125,-0.015296937853097915,0.055539662522822615,-0.013120220576744758
1783169516601262000,2.085261962890625,-0.0018295535147190092,0.06522904442613944,0.013316851685475558
1783169516611331300,2.095331298828125,-0.0009317278921604156,0.03824197245669784,-0.015386336594534804
1783169516621400000,2.105400146484375,-0.02113338892161846,0.047363306397804984,-0.02203044507590821
1783169516631470000,2.115469970703125,-0.019487375280261038,0.04753093631598167,-0.014185379289957927
1783169516641539000,2.1255390625,-0.012604630029201506,0.032398093850258734,-0.01778614258663729
1783169516651609000,2.135609130859375,-0.006170213067531585,0.042339085027622056,-0.001663390038665966
1783169516661678000,2.145677978515625,-0.01993745713531971,0.046618725975044066,-0.02724312908974243
1783169516671747300,2.155747314453125,-0.005721884778141975,0.05258859416488558,-0.004742234367948549
1783169516681817300,2.1658173828125,-0.002879354828596115,0.04204002901581116,-0.00993953329757205
1783169516691886000,2.175885986328125,-0.002280219891667366,0.05437048174613155,0.015828028505516702
1783169516701956400,2.185956298828125,-0.010211012890934944,0.04751181149040348,-0.0007143513937451643
1783169516712025000,2.196025146484375,-0.01844108109772205,0.041612816579686476,-0.017269676397903822
1783169516722094000,2.206093994140625,-0.02592296128571033,0.05943911308019887,-0.021784130748198367
1783169516732164000,2.2161640625,0.00400455946624279,0.048803878861246625,-0.012818424618575954
1783169516742233300,2.2262333984375,-0.015897826355695723,0.04956554741612635,-0.007997442194423637
1783169516752302000,2.236302001953125,-0.02487608258128166,0.05516439946964383,-0.00580505242490326
1783169516762372400,2.246372314453125,-0.014850363129377365,0.036039350129174995,-0.0065878870653978076
1783169516772441000,2.256441162109375,-0.014850363129377365,0.06231281905272044,-0.029248840605677104
1783169516782511400,2.266511474609375,-0.0220335526317358,0.07178894179784692,-0.021714673108025453
1783169516792580000,2.276580078125,-0.014102759632468223,0.056876770045212466,-0.00876786259462824
1783169516802649300,2.2866494140625,-0.014701310047507285,0.0496363156639738,-0.002257978091695986
1783169516812719000,2.296718994140625,-0.003629296413064003,0.05792786370045505,-0.034695623353042174
1783169516822788400,2.306788330078125,-0.0030307459980249405,0.05588682742610108,-0.00977947704778635
1783169516832857000,2.316857177734375,-0.003330605727434158,0.060588653008081014,0.0006322232141334098
1783169516842927000,2.326927001953125,-0.01350596278309822,0.050191159368027,-0.007008267901936778
1783169516852996000,2.33699609375,-0.008867197066545486,0.04351390096065588,0.007888911777542671
1783169516863066000,2.347066162109375,-0.0022837270230054853,0.03970037055448629,-0.004352857166093599
1783169516873135000,2.357135009765625,-0.011861702707409858,0.05001536897628102,0.005592449712194502
1783169516883204000,2.3672041015625,-0.022785832303762434,0.05414354112246073,0.00237618080463144
1783169516893274000,2.377274169921875,-0.008869535154104232,0.04801271935040131,-0.013969334519637049
1783169516903343000,2.387343017578125,-0.01425707341134548,0.04510934889197815,0.00003121027230517938
1783169516913413400,2.397413330078125,-0.020542437291145323,0.05391411628075875,-0.011186089017766061
1783169516923482000,2.407482177734375,-0.010517302361130713,0.04856118354601785,-0.0017845122215279844
1783169516933551000,2.417551025390625,-0.011415127983689308,0.054615853075636545,0.004362941595746087
1783169516943621000,2.42762109375,-0.01919628337919712,0.05207507341848686,-0.01185266887593898
1783169516953690400,2.4376904296875,-0.012313538128137588,0.05330816801055334,-0.020792576127313077
1783169516963759000,2.447759033203125,-0.013960136291384696,0.05145573137716856,-0.011513357343908865
1783169516973829400,2.457829345703125,-0.0012415244936943054,0.048560005369083954,-0.0008515176749991951
1783169516983898000,2.467898193359375,0.0005535422295331955,0.045810122139053416,0.015788830147933912
1783169516993968000,2.477968017578125,-0.011418050593137741,0.04585527645503171,0.00029292281313537385
1783169517004037000,2.488037109375,-0.014261165064573287,0.05807937360089272,-0.003924221099507122
1783169517014106400,2.4981064453125,-0.024437106642127036,0.04268205324639566,-0.005619787526980508
1783169517024176000,2.508176025390625,-0.012616320466995238,0.0257550094238366,-0.022045090089191217
1783169517034245400,2.518245361328125,-0.008127776876091957,0.04067877799943089,-0.012738237805123207
1783169517044315100,2.528315185546875,-0.02204524306952953,0.04428058818394784,0.00006958892926922999
1783169517054384000,2.538384033203125,0.0036918402552604673,0.02818387368870899,-0.01137336891790619
1783169517064453000,2.548453125,-0.018305472019314765,0.03221666830217,-0.005406042028311639
1783169517074523100,2.558523193359375,-0.01097322943508625,0.03967332271735649,-0.006035694830268039
1783169517084592000,2.568592041015625,-0.00842997469305992,0.03846014753531199,-0.013234879340312908
1783169517094661000,2.5786611328125,-0.021449030742049215,0.04558472045192029,-0.026063607298838904
1783169517104731100,2.588731201171875,-0.012919687327742575,0.03904600743213668,-0.010298342972871613
1783169517114800000,2.598800048828125,-0.0166612119436264,0.05131609457761515,-0.0060037807342421725
1783169517124870100,2.6088701171875,0.0026420389413833617,0.04079654089389369,-0.008012236763112014
1783169517134939100,2.618939208984375,-0.010377017107605933,0.052980854018637905,-0.023200486652413383
1783169517145008000,2.629008056640625,-0.02010287683010101,0.048229325809725554,-0.01498175725697074
1783169517155078100,2.639078125,-0.013519406786561012,0.0488585225247778,-0.0014042113773946765
1783169517165147100,2.649147216796875,-0.010078326421976088,0.053953955100802704,-0.009093439574717194
1783169517175217200,2.659217041015625,-0.010676876837015152,0.054738305844948626,-0.0010786575156031175
1783169517185286400,2.669286376953125,-0.03117722855210304,0.03741954787462018,-0.0002212886280743987
1783169517195355100,2.679355224609375,-0.00992927334010601,0.053659483932564034,-0.0010909247691874042
1783169517205425200,2.689425048828125,-0.017112462842464447,0.03422379317376763,-0.006942524601545301
1783169517215494100,2.699494140625,-0.004542904126644134,0.04332543375042733,-0.020100682589726054
1783169517225563400,2.7095634765625,-0.021901450684666632,0.04555367229310795,-0.010959981794445775
1783169517235633200,2.719633056640625,-0.003945522755384445,0.037717247612983916,0.0004602641807112377
1783169517245702100,2.7297021484375,-0.0034971944659948346,0.0328411203434458,-0.004609931491479802
1783169517255772200,2.739772216796875,-0.014420739540457724,0.038951470149634404,-0.000672639135378995
1783169517265841200,2.749841064453125,-0.011727262672781943,0.039008803527173584,0.002293084510639892
1783169517275910100,2.75991015625,-0.015170096603035926,0.03773507781390799,-0.018573498138622378
1783169517285980200,2.769980224609375,-0.01756488278508186,0.035909641068591736,-0.031929122348350936
1783169517296049200,2.780049072265625,-0.0009551087677478789,0.04508572598779574,-0.018212598112580598
1783169517306118100,2.7901181640625,-0.0029009821385145187,0.04629146678205579,-0.010464375730650498
1783169517316188200,2.800188232421875,-0.01128127247095108,0.04580771098625846,-0.009574056419468251
1783169517326257200,2.810257080078125,-0.015172434690594672,0.03566636808133917,-0.0034686664870096136
1783169517336327200,2.8203271484375,-0.002304185289144516,0.04845685552186332,-0.01751773972470546
1783169517346396200,2.830396240234375,0.00038870705664157865,0.044672030620370055,-0.000012747315019078086
1783169517356465200,2.840465087890625,-0.0014075287103652954,0.039907578997802916,-0.010511902383517008
1783169517366535200,2.85053515625,-0.015024550652503967,0.04251301225584466,-0.02793818269879557
1783169517376604200,2.860604248046875,-0.026696868267655372,0.03687697684696177,-0.009489749411679804
1783169517386674200,2.870674072265625,-0.010536007061600685,0.055676568509172644,-0.011276818916475168
1783169517396743200,2.8807431640625,-0.010835866791009903,0.04538618850540369,-0.008428684634983074
1783169517406812200,2.890812255859375,-0.020112813702225684,0.04162177620427683,-0.014752889537694863
1783169517416882200,2.900882080078125,-0.02505085462629795,0.043346234509861095,-0.010962399797106627
1783169517426951200,2.910951171875,-0.009488543835282325,0.03299596384528559,-0.00455817105066817
1783169517437020200,2.921020263671875,-0.00963818143904209,0.036427584545069835,-0.00828873388324282
1783169517447090200,2.931090087890625,-0.015324410381913183,0.03915493856617249,0.0034166277703960076
1783169517457159200,2.9411591796875,-0.01577332319319248,0.03722233566893265,-0.007386023164656945
1783169517467229200,2.951229248046875,0.0009855039060115813,0.04308439610274508,-0.015591333672811743
1783169517477298200,2.961298095703125,-0.004551671954989433,0.02798970510676736,0.006606798403488937
1783169517487367200,2.9713671875,-0.0008113163828849792,0.04274019490811042,-0.007743761977588292
1783169517497437200,2.981437255859375,-0.00410392818748951,0.027576610244251787,-0.004455721316824202
1783169517507506200,2.991506103515625,-0.012634440645575522,0.03617283346586628,-0.012015422831242904
1783169517517575200,3.0015751953125,0.008164601755142211,0.04139958482095971,-0.008307912366103846
1783169517527645200,3.011645263671875,-0.0069493807464838025,0.03944359648155514,-0.025694906417187302
1783169517537714200,3.021714111328125,-0.01188683714866638,0.029147302760230375,-0.00686090559529839
1783169517547784200,3.0317841796875,-0.01113923365175724,0.05008067559772171,-0.002261148723372025
1783169517557852700,3.041852783203125,0.002477203768491745,0.040135738897603,-0.020661481110530438
1783169517567922000,3.051921875,-0.001264320847392082,0.034154223652451764,-0.004527266739039623
1783169517577991700,3.06199169921875,0.0008306056052446365,0.04156573516810313,-0.019411092890368308
1783169517588061000,3.07206103515625,-0.03433481580018997,0.015005601640150416,-0.015962461690278724
1783169517598130700,3.082130615234375,-0.01488192731142044,0.034907925813295874,-0.022437359076098073
1783169517608200000,3.092199951171875,-0.022214754417538642,0.049646964922151524,-0.028300944746716412
1783169517618268700,3.1022685546875,-0.016229250267148016,0.05002958016472402,0.0035026027205298303
1783169517628338700,3.112338623046875,-0.021167291191220284,0.038089316345367115,-0.014241309586632996
1783169517638407700,3.12240771484375,-0.0023129531174898147,0.030796732201380652,-0.01953559605287155
1783169517648477000,3.132476806640625,-0.004707154777646065,0.03661789893580135,0.0037781454260126337
1783169517658546700,3.142546630859375,-0.011291209343075752,0.051431912110163826,0.0019151431598962516
1783169517668616000,3.152615966796875,-0.014583236625790596,0.04172536444291472,-0.001057950656414323
1783169517678686000,3.16268603515625,-0.02535714409649372,0.028619977250765077,0.008002303315920289
1783169517688754700,3.172754638671875,-0.012788754424452781,0.04020611898638308,0.0030153500681932197
1783169517698823700,3.18282373046875,-0.007102525481581688,0.04245532268527895,0.006778735745669109
1783169517708893700,3.192893798828125,-0.004707154777646065,0.030248131008446213,-0.002462780234206002
1783169517718963000,3.202962890625,-0.0214671509206295,0.04376313561452552,-0.0040799345343155435
1783169517729032700,3.21303271484375,-0.010544190368056297,0.04141386907463893,-0.008266504355947836
1783169517739102000,3.22310205078125,0.001277180328965187,0.0471630254521966,-0.002547745685353584
1783169517749170700,3.233170654296875,-0.014734043273329734,0.038611689401790494,-0.010453763005090877
1783169517759241000,3.243240966796875,-0.012490063738822936,0.02175289764300687,-0.0010880583857215242
1783169517769309700,3.253309814453125,-0.016679916644096373,0.047839020451041867,-0.013333161216170992
1783169517779379000,3.26337890625,-0.02939911296367645,0.04408025700598955,-0.00919502708169166
1783169517789448700,3.27344873046875,-0.007701660418510436,0.031163837064278777,-0.008466376592891173
1783169517799518000,3.28351806640625,-0.0035129765570163724,0.038349029010767116,-0.011621038377418881
1783169517809587700,3.293587646484375,-0.019226093995571136,0.021948296917520926,-0.011835132077604065
1783169517819657000,3.303656982421875,0.003817512461543083,0.025700847534206695,-0.008167013478759326
1783169517829725700,3.3137255859375,-0.001419219148159027,0.039699429839570075,-0.009010109243640908
1783169517839795700,3.323795654296875,-0.011894435933232307,0.034834333137411154,-0.011168051037576515
1783169517849864700,3.33386474609375,-0.014438859719038008,0.03547298951726407,-0.0003856394583650399
1783169517859934700,3.343934814453125,-0.009501987838745117,0.06494308535791933,-0.0066996146571851566
1783169517870003700,3.354003662109375,-0.007108370700478554,0.04660116748546716,-0.018708293224632504
1783169517880073000,3.364072998046875,-0.03105097182393074,0.04930647178825456,-0.010989626872394
1783169517890143000,3.37414306640625,-0.00232055190205574,0.04069987101980951,0.0077198216962860895
1783169517900211700,3.384211669921875,-0.01518997034728527,0.03700013971903827,-0.00389093217831396
1783169517910280700,3.39428076171875,-0.003218377524614334,0.030322977209789676,-0.015081140819593565
1783169517920350700,3.404350830078125,-0.005761632266640663,0.03296875161137432,-0.021322760314145123
1783169517930420000,3.414419921875,-0.007856558719277382,0.025783415817702188,0.003476416254036303
1783169517940489700,3.42448974609375,-0.02027647983133793,0.044316513447277245,0.01066876659579575
1783169517950559000,3.43455908203125,-0.012795184165239334,0.031799420137633566,0.004087142876525468
1783169517960627700,3.444627685546875,-0.024766776987910268,0.03632923645384144,-0.0026771895990445045
1783169517970698000,3.454697998046875,-0.010251929423213004,0.03470679091773927,-0.011131890595518052
1783169517980766700,3.4647666015625,-0.012346855875849723,0.03459176796963438,-0.004476981017272919
1783169517990836700,3.474836669921875,-0.014741057536005972,0.03262624918348156,-0.014900484739773673
1783169518000905700,3.48490576171875,-0.016238018095493315,0.026004620820330455,-0.0033443762411712666
1783169518010975000,3.49497509765625,0.013390227448940277,0.029602855374850332,-0.0023058877662304436
1783169518021044700,3.505044677734375,0.0023158757269382477,0.032426502527412956,0.004366546337673208
1783169518031114000,3.515114013671875,-0.014443535894155502,0.02968997196929995,-0.0011286289997718994
1783169518041182700,3.5251826171875,-0.021027590459585188,0.04498432057308964,-0.011271286508120829
1783169518051252700,3.535252685546875,-0.01683773755431175,0.037316872951434925,-0.004831358829338569
1783169518061321700,3.54532177734375,-0.015041501787304878,0.03375944533133879,0.0020460315390577305
1783169518071391700,3.555391845703125,-0.014742226579785345,0.02762774220986757,0.00453476477349468
1783169518081460700,3.565460693359375,-0.0018733926564455032,0.052495253325626254,-0.001912171602447779
1783169518091529700,3.57552978515625,-0.009804770177602767,0.03971672803424298,-0.015739523671579082
1783169518101599700,3.585599853515625,-0.01758592557311058,0.034044833577401006,-0.005495066310412949
1783169518111668700,3.595668701171875,-0.01324760410785675,0.03452383556626737,-0.003885358099942095
1783169518121737700,3.60573779296875,-0.011601590466499327,0.06049682827247306,0.010505719237902666
1783169518131807700,3.615807861328125,-0.0027729718446731564,0.04516768234993797,0.006302579876082018
1783169518141876700,3.625876708984375,-0.009507248535752296,0.03496368372167926,-0.01967152707497589
1783169518151946800,3.63594677734375,-0.00756254420876503,0.04262813110207207,-0.005870548559300368
1783169518162016000,3.64601611328125,-0.012950082466006279,0.050866382615314794,-0.006400388540371204
1783169518172084700,3.656084716796875,-0.008012041541934013,0.048797348655760284,-0.019120908596535445
1783169518182155000,3.666155029296875,-0.002775309932231903,0.03995925438611302,0.004693886301996826
1783169518192223700,3.6762236328125,-0.007862403938174247,0.04910677993111312,-0.006081681404952541
1783169518202293800,3.686293701171875,-0.010108137038350104,0.035896343195601366,0.00427086598379974
1783169518212362800,3.69636279296875,0.002909749966859817,0.055366443114075806,0.008260287531826178
1783169518222432000,3.706431884765625,-0.00951017114520073,0.04077285405762959,0.0016922399613482411
1783169518232501800,3.716501708984375,-0.01968552820086479,0.045101001188741066,-0.009970846317865652
1783169518242570800,3.72657080078125,-0.014448796591162681,0.04764874487621709,-0.005185478629788849
1783169518252639700,3.7366396484375,-0.0060690907806158064,0.03662301806891337,-0.0019174986575308138
1783169518262709800,3.746709716796875,-0.013999883779883385,0.03891352645915467,0.00027868222735123705
1783169518272778800,3.75677880859375,-0.02477379125058651,0.04414528049963992,-0.005953104284708388
1783169518282848800,3.766848876953125,-0.014599018716812132,0.03197190889401827,-0.007963748845731606
1783169518292917800,3.776917724609375,-0.015796704068779945,0.01275624952749349,0.00861873644752195
1783169518302986800,3.78698681640625,-0.018190321207046507,0.03692614290106576,-0.0005697898260244983
1783169518313056800,3.797056884765625,-0.005920622220635414,0.028157255109841933,-0.0010904247289770864
1783169518323125800,3.807125732421875,-0.011457213559746741,0.04994028987949714,-0.012809646515431813
1783169518333195800,3.81719580078125,-0.010110475125908852,0.029041906156996262,0.0027434226648474576
1783169518343264800,3.8272646484375,-0.0041249709755182265,0.02966730347976554,0.010439175074023659
1783169518353333800,3.837333740234375,-0.011756488767266272,0.043347325921826996,-0.0014812329819818841
1783169518363403800,3.84740380859375,-0.021333879929780957,0.030703701889375223,0.002117337215966836
1783169518373472800,3.85747265625,-0.018790040665864944,0.03807416215871926,0.006485261232918128
1783169518383541800,3.867541748046875,-0.006968085446953773,0.02935219138229731,-0.002704480035591405
1783169518393612000,3.877612060546875,-0.011157353830337524,0.028116270078904926,-0.005021776538880658
1783169518403680800,3.8876806640625,-0.021033435678482055,0.026134640408167615,0.003075146257932647
1783169518413750800,3.897750732421875,-0.022231121030449864,0.031835843157884666,-0.00930827705617412
1783169518423819800,3.90781982421875,-0.008913958817720412,0.024765055388282053,-0.007313446552213281
1783169518433889000,3.917888916015625,-0.010710194584727287,0.03479200324947014,0.015132212278060614
1783169518443958800,3.927958740234375,-0.010710779106616974,0.03459491434136871,-0.01381256963041378
1783169518454027800,3.93802783203125,-0.0036789807736873625,0.021988361783139405,-0.004695342183910543
1783169518464096800,3.9480966796875,-0.002332242339849472,0.03836847349675372,0.0017649087615704045
1783169518474166800,3.958166748046875,-0.01220890870988369,0.049337341850553634,-0.010218350238952551
1783169518484235800,3.96823583984375,-0.012357961791753767,0.04287027842802927,-0.001211961328725738
1783169518494305800,3.978305908203125,-0.015949848803877828,0.044312531391903755,0.00506958460707101
1783169518504374800,3.988374755859375,-0.011610942816734313,0.022900521891727112,-0.008037443127960432
1783169518514443800,3.99844384765625,-0.01415478208065033,0.043827560886554415,-0.02159924373454414
1783169518524513800,4.008513671875,-0.009516016364097594,0.03618628431919496,0.009676692526746774
1783169518534582800,4.018582763671875,-0.011461305212974547,0.030814185659680512,0.006144135628070216
1783169518544652800,4.02865283203125,-0.018045359778404234,0.04720904741785489,-0.01720589158833609
1783169518554721800,4.0387216796875,-0.006822539496421813,0.034493303430685775,0.0016853621251677394
1783169518564790800,4.048790771484375,-0.011611527338624,0.023732492903573436,-0.01841672297460027
1783169518574860800,4.05886083984375,-0.008170446974039076,0.05346821741047315,-0.005964336923131486
1783169518584929800,4.0689296875,-0.023882395368814466,0.034222327302466146,-0.006416525682774954
1783169518594998800,4.078998779296875,-0.025828268739581106,0.02410910309704486,-0.002721994857273239
1783169518605068800,4.08906884765625,-0.027175007173418995,0.043668173640337773,0.00032498817703308303
1783169518615137800,4.0991376953125,-0.006824293062090874,0.031690516403061336,0.002165972405463981
1783169518625207600,4.10920751953125,-0.00443067592382431,0.025484743398381395,0.007373241885719471
1783169518635276800,4.11927685546875,-0.0003898761004209518,0.04920318037713878,-0.018748279316793195
1783169518645345800,4.129345703125,-0.006674655458331108,0.04019957051458768,0.001252444321574876
1783169518655415800,4.139415771484375,-0.023733926808834075,0.03502193498124834,-0.0025375821968322268
1783169518665484500,4.149484619140625,-0.027923195192217826,0.03570824131155386,-0.005585636378917843
1783169518675554800,4.159554931640625,-0.0033832126975059506,0.026888573181163517,-0.003129142609136761
1783169518685623600,4.16962353515625,-0.004580898049473763,0.022416327704512514,0.0035248313915915786
1783169518695692800,4.17969287109375,-0.0018868366599082945,0.03225210494173225,-0.00490955746921536
1783169518705762800,4.1897626953125,-0.007124152791500091,0.02417113548258785,-0.005283675453145406
1783169518715831800,4.199831787109375,-0.01400748256444931,0.026634018464782274,0.0007271412350150058
1783169518725900500,4.209900634765625,-0.005328501546382904,0.02645058362269774,-0.006712489550956525
1783169518735970800,4.219970703125,-0.003832710030674934,0.030857997401943428,-0.011618624941335292
1783169518746039800,4.230039794921875,-0.015654080727696418,0.041982398810749874,-0.02269222203644458
1783169518756109800,4.24010986328125,-0.006825462105870247,0.03460565036451444,0.0015145350320846774
1783169518766178800,4.2501787109375,-0.021041618984937668,0.02680248863317538,0.0016879017129482236
1783169518776247800,4.260247802734375,-0.004132569760084152,0.033563918192661364,-0.002497054965265852
1783169518786317800,4.27031787109375,-0.01580430285334587,0.02492654326003976,0.00425130590632616
1783169518796386800,4.28038671875,-0.018946692532300947,0.03886100625405088,-0.004213365069957217
1783169518806455800,4.290455810546875,-0.010118073910474777,0.03096097828580532,-0.01236418831985211
1783169518816525800,4.30052587890625,-0.033013211807608606,0.023012060541380195,-0.01563557353169308
1783169518826594800,4.3105947265625,-0.026429157242178914,0.03521201875982806,-0.0033860582459630676
1783169518836664600,4.32066455078125,-0.021042203506827353,0.03296732227269094,0.016656032303365646
1783169518846733800,4.33073388671875,0.0031990883022546767,0.0318995195112424,-0.0023738860995566936
1783169518856802800,4.340802734375,-0.014908230796456336,0.03542314075985923,0.0066943785055307665
1783169518866872800,4.350872802734375,-0.00443418305516243,0.03272939903070219,-0.0031118840866038223
1783169518876941600,4.360941650390625,-0.004284545451402664,0.026807886327500453,-0.007133267679717391
1783169518887011800,4.37101171875,-0.016854104167222977,0.01643295157912653,-0.01218672884411644
1783169518897080600,4.38108056640625,0.0002034136176109314,0.015298179962113499,-0.004381897743376612
1783169518907149800,4.39114990234375,-0.012964695513248442,0.03212930054597091,-0.006297660530725261
1783169518917219800,4.4012197265625,0.004841594812273979,0.04143415381084196,-0.00719869303216692
1783169518927288800,4.411288818359375,-0.024038462713360784,0.031997641556896265,-0.009171679313789354
1783169518937357600,4.421357666015625,-0.009375731110572815,0.027934196076844817,-0.007684915921330684
1783169518947427800,4.431427734375,-0.010872107148170471,0.018709079817566088,0.010134296676202212
1783169518957496600,4.44149658203125,-0.007430442261695862,0.030542273383121935,-0.005299153866778942
1783169518967566800,4.45156689453125,-0.0036906712114810943,0.029031845987285487,-0.011245721666957252
1783169518977635800,4.4616357421875,-0.0069826984941959375,0.018854059512517413,-0.009371312376248534
1783169518987704800,4.471704833984375,-0.013117840248346328,0.03800950399124994,-0.0028703101515042363
1783169518997774800,4.48177490234375,-0.009526537758111953,0.034705909568327475,0.0002539619175702683
1783169519007843800,4.49184375,-0.012818565040826797,0.034851711247186175,0.0010221264286068617
1783169519017912800,4.501912841796875,0.0042407063096761705,0.02487566702275071,0.017589149576658383
1783169519027982600,4.511982666015625,0.0004997662156820296,0.025635248651821166,0.009863971285242587
1783169519038051800,4.5220517578125,-0.009227262550592422,0.027509467858751302,-0.009567437165725277
1783169519048121600,4.53212158203125,0.003192074039578438,0.041091528085363094,-0.009832614882464986
1783169519058190800,4.54219091796875,0.0028927988320589064,0.03773470563786104,-0.016176266554452014
1783169519068259800,4.552259765625,-0.024491467177867886,0.03039871846027672,-0.014423744348296895
1783169519078329900,4.562329833984375,-0.011023498317599295,0.0343258835750632,-0.005704632249241694
1783169519088398600,4.572398681640625,-0.012669511958956717,0.03773336763072293,-0.0030400860755835308
1783169519098468900,4.58246875,-0.012519874355196952,0.03140382668247912,-0.009034650029853219
1783169519108537600,4.59253759765625,-0.0048883565634489055,0.03027295492244884,-0.004261354945004859
1783169519118606800,4.60260693359375,-0.00818038384616375,0.026851634137681685,-0.00697839278265892
1783169519128676600,4.612676513671875,-0.005487491500377655,0.037558097828784956,-0.017335900901374407
1783169519138745900,4.622745849609375,-0.008778934261202812,0.0350635091006523,0.0038959708255017172
1783169519148816000,4.63281591796875,-0.0069826984941959375,0.0339966424875427,-0.012180243162758415
1783169519158884900,4.642884765625,-0.022695231410861015,0.023337351539568042,0.0015835534246070892
1783169519168953600,4.65295361328125,-0.02209726551771164,0.03232200553989969,0.00824624016934249
1783169519179023600,4.663023681640625,-0.01745908432304859,0.03574153622637968,-0.003205313117886544
1783169519189092900,4.6730927734375,-0.002495323947072029,0.031089696399122475,-0.0048422695240646135
1783169519199161900,4.683161865234375,-0.018507132071256635,0.027088470534281803,-0.010068074456020258
1783169519209232000,4.69323193359375,-0.003543371695280075,0.026068004912743345,-0.005193310309795197
1783169519219300900,4.70330078125,-0.00982815105319023,0.030648259074823,-0.019128590721136422
1783169519229371000,4.713370849609375,-0.009230185160040856,0.03278827591135632,-0.000825157678569667
1783169519239439600,4.723439697265625,0.008576689687371254,0.02922145027525257,-0.0043162491994633454
1783169519249508900,4.7335087890625,0.001693359914422035,0.018791022479976525,-0.005633232672087615
1783169519259578600,4.74357861328125,0.005283493360877037,0.025351687036664225,0.0012643428240451612
1783169519269648000,4.75364794921875,0.003038344782590866,0.01863416968414094,-0.013965851362829561
1783169519279716600,4.763716552734375,-0.003995207116007805,0.03005559497787617,-0.006085708555276505
1783169519289787000,4.773786865234375,-0.0027981062859296795,0.022058988467091693,-0.0030690558709189643
1783169519299855600,4.783855712890625,-0.011776362511515617,0.030150228158500974,0.00560285465848865
1783169519309926000,4.79392578125,-0.018809914410114287,0.02919779997160658,-0.005366160967428004
1783169519319994600,4.80399462890625,-0.02000701524019241,0.022679737014207058,-0.00518519892693148
1783169519330064000,4.81406396484375,-0.00369651643037796,0.031594134223344734,0.0024562791406497124
1783169519340133600,4.824133544921875,-0.020306290447711945,0.03461641378712375,0.0023130484447901833
1783169519350203000,4.834202880859375,-0.006390577819943428,0.021911204893700777,-0.0003969443057911121
1783169519360272600,4.844272705078125,-0.02868716530203819,0.012064833197230472,0.015399136710603488
1783169519370342000,4.854341796875,-0.009235445857048033,0.02532775817180518,-0.004783335561194689
1783169519380410600,4.86441064453125,-0.01552022521495819,0.024266599780274553,-0.0021706665614794475
1783169519390480600,4.874480712890625,0.012461422166228293,0.026756694996380247,0.00865949885781738
1783169519400549600,4.884549560546875,-0.0028010288953781125,0.023945281704305668,0.009070892670302418
1783169519410619000,4.894618896484375,0.0018377368211746215,0.03125511152732652,0.0010461730255359725
1783169519420689000,4.90468896484375,-0.019262334352731704,0.0337400236782385,0.004059116935628116
1783169519430758000,4.9147578125,0.006025251638889313,0.03984935970427468,-0.0017256919949730216
1783169519440828000,4.924827880859375,-0.016420973446965217,0.035092511432850734,-0.006452019404552993
1783169519450896600,4.934896728515625,-0.011931845334172249,0.04418357581656892,-0.0045491540584509495
1783169519460966000,4.9449658203125,-0.02405307576060295,0.040411943756788964,-0.0006468953414689167
1783169519471035600,4.95503564453125,-0.02854337291717529,0.018706444902485235,-0.007047742537443991
1783169519481105000,4.96510498046875,-0.008493103057146073,0.026347712336690164,0.001641077742158086
1783169519491173600,4.975173583984375,-0.006249708044528961,0.03990504911399912,-0.024184380839939693
1783169519501244000,4.985243896484375,-0.012085574591159819,0.028975234128953888,-0.024732365544943603
1783169519511312600,4.995312744140625,-0.011785714861750602,0.013331852891785092,-0.004870376807119464
1783169519521383000,5.0053828125,-0.011785714861750602,0.04612885096571408,-0.0025694343586539613
1783169519531451600,5.01545166015625,-0.008045359289646148,0.028815915381396186,-0.008677419248642399
1783169519541521000,5.02552099609375,-0.003557400220632553,0.023624251322704366,-0.0015832123583677457
1783169519551590700,5.035590576171875,-0.024806524476408957,0.022577358918543903,0.014510778744355775
1783169519561660400,5.045660400390625,-0.030942250752449035,0.0172174575868994,-0.015244358282489701
1783169519571730700,5.055730712890625,-0.009992986226081848,0.022185605954867786,0.006679284255209495
1783169519581799400,5.06579931640625,-0.017474866414070128,0.031784871022473085,-0.000490623499884532
1783169519591868700,5.07586865234375,-0.0215150817155838,0.02998733834752347,0.004892775868595344
1783169519601938400,5.0859384765625,-0.020468203011155126,0.031674588181567376,-0.002972020385242649
1783169519612007700,5.096007568359375,-0.015979659420251844,0.031013000733987425,0.008632474995218216
1783169519622076400,5.106076416015625,-0.011790391036868094,0.044239484422001984,0.0018994084471138193
1783169519632146700,5.116146728515625,-0.012388941451907156,0.033140185488411224,-0.00574128873575537
1783169519642215400,5.12621533203125,-0.007301847445964813,0.03708744810973294,-0.003287154744775034
1783169519652285700,5.13628564453125,-0.017028876212239266,0.024333536669798195,-0.01893035103556467
1783169519662354400,5.1463544921875,-0.030794951236248015,0.030102543958718888,-0.006021331232308876
1783169519672423700,5.156423583984375,-0.020619594180583952,0.033088861726550386,-0.008983086522686062
1783169519682493400,5.166493408203125,-0.011492869395017624,0.03477191487608943,0.008933756071800598
1783169519692562700,5.176562744140625,-0.030945757883787152,0.029341090032970533,0.008128748415404697
1783169519702631400,5.18663134765625,-0.026457214292883873,0.02564254604228772,-0.0017028455516308893
1783169519712701400,5.196701416015625,-0.005658756414055824,0.031448090515891085,0.007095773797098081
1783169519722770400,5.2067705078125,0.0001771101325750351,0.020232147499267012,0.007727612847919226
1783169519732840400,5.21684033203125,-0.007005494847893715,0.02220273518618196,0.0003633402907667914
1783169519742909700,5.22690966796875,-0.006107084703445434,0.030929532834771088,-0.003520050185197033
1783169519752978700,5.236978759765625,-0.006406359910964965,0.02857047098665498,-0.004933193502307404
1783169519763048700,5.247048583984375,-0.017330489507317543,0.010052242132648825,-0.00716483642833773
1783169519773117400,5.257117431640625,-0.018079262048006056,0.007864404099015518,0.002511969692018465
1783169519783187700,5.267187744140625,-0.00386427421271801,0.022405308553576468,0.005020544133841758
1783169519793256400,5.27725634765625,-0.014788403809070587,0.03158504673459101,0.014022676708648213
1783169519803325700,5.28732568359375,-0.006259644916653633,0.026170999496337024,0.0021007437012478475
1783169519813395500,5.2973955078125,-0.0013216039925813673,0.024959431749489155,0.00828669833142776
1783169519823464700,5.307464599609375,-0.0008732757031917572,0.020878660675301215,-0.007646449357754318
1783169519833533400,5.317533447265625,-0.0034171149671077725,0.04474763487353921,-0.014349905077239964
1783169519843603700,5.327603759765625,-0.005512041419744491,0.02590144814022351,-0.007573395537986653
1783169519853672400,5.33767236328125,-0.007757189998030662,0.022773091553198174,-0.0171649008491775
1783169519863742500,5.347742431640625,-0.003418284010887146,0.009124345598812214,0.010640273436962161
1783169519873811500,5.3578115234375,-0.013594225588440895,0.03858609373623039,-0.02047108223811956
1783169519883880700,5.367880615234375,-0.026912556844949722,0.014554932979913428,-0.004183391483857122
1783169519893950500,5.377950439453125,-0.018233575826883314,0.03812384195276536,-0.004952174480701796
1783169519904019700,5.388019775390625,-0.018233575826883314,0.02925684581561945,-0.024408090610196814
1783169519914089500,5.39808935546875,-0.014940964022278784,0.03511560918064788,-0.006117788189728162
1783169519924158500,5.408158447265625,-0.018681904116272924,0.026492431736737487,-0.008469839770923136
1783169519934227500,5.4182275390625,-0.01344458798468113,0.019186689000367185,-0.01577480504751438
1783169519944297500,5.42829736328125,0.0013695347875356673,0.023010165411815976,-0.008770394190898513
1783169519954366500,5.438366455078125,-0.008956044393777847,0.02933921773629263,0.00403847857509827
1783169519964435500,5.448435546875,-0.011200608450174331,0.033488487469428216,-0.01566277434916119
1783169519974505700,5.458505615234375,-0.02257423537969589,0.03628528314768337,0.0038196907188976182
1783169519984574500,5.468574462890625,-0.022723872983455656,0.0304432288888609,-0.005068335648189532
1783169519994644700,5.478644775390625,-0.006413958695530891,0.0186678938572295,-0.008122040684227248
1783169520004713500,5.48871337890625,-0.01344751059412956,0.02863995145971421,-0.004261250199138885
1783169520014782700,5.49878271484375,-0.017786416581273078,0.014010565004101954,-0.016453641599061666
1783169520024852500,5.5088525390625,-0.0020744681864976883,0.021460291921580207,-0.0009363108805606316
1783169520034921700,5.518921630859375,-0.012998013260960579,0.016921022790437563,-0.012692814061086391
1783169520044990500,5.528990478515625,-0.015990765336155892,0.020442301384918392,-0.008324103165790438
1783169520055060700,5.539060791015625,-0.0194324302226305,0.029780148170515892,-0.015534380462829721
1783169520065129500,5.54912939453125,0.005108136793971062,0.016400245752767658,-0.007045296564497402
1783169520075199500,5.559199462890625,0.0025648820519447325,0.03324687443301082,-0.0001416496611876937
1783169520085268500,5.5692685546875,-0.019131985971331596,0.02411458298976067,-0.013974090609856648
1783169520095337700,5.579337646484375,-0.015091186147928237,0.019452176102716476,-0.003154833601997234
1783169520105407500,5.589407470703125,-0.007011924588680267,0.036311951958900315,-0.007219158718994003
1783169520115476700,5.599476806640625,-0.006263736569881439,0.03409591531066689,0.007005499414470978
1783169520125546500,5.60954638671875,-0.011351999619603157,0.024381472031329756,-0.00027693879377548
1783169520135615500,5.619615478515625,-0.012998597782850264,0.028405612980877046,-0.01318475202169502
1783169520145684500,5.6296845703125,-0.02197743853032589,0.02168715491343755,-0.002094815570432547
1783169520155754500,5.63975439453125,-0.003422375664114952,0.03759154344066046,-0.013385647171945311
1783169520165823500,5.649823486328125,-0.013746201279759406,0.02701922752324026,-0.0231685822603642
1783169520175892500,5.659892578125,-0.017037644040584565,0.02637805267602671,-0.012372940165176987
1783169520185962500,5.66996240234375,-0.013746201279759406,0.019468592947977596,-0.010384652424789965
1783169520196031500,5.680031494140625,-0.01374737032353878,0.042511139959166756,0.006881164644504315
1783169520206101800,5.690101806640625,-0.008660860839486122,0.03515160294263624,-0.00932599366348877
1783169520216170500,5.70017041015625,-0.01045651208460331,0.03238043946255929,0.006795723413088125
1783169520226239500,5.710239501953125,-0.008061725902557373,0.024640634424169545,0.00726255204861518
1783169520236309500,5.7203095703125,-0.0064162967830896376,0.02672406680183485,-0.0023398047345028314
1783169520246378800,5.730378662109375,-0.01973404351770878,0.037511386309959927,-0.017044081772881328
1783169520256447500,5.740447509765625,-0.017788170146942138,0.021415872824541292,0.0034569517892741714
1783169520266517800,5.750517822265625,0.008398410511016845,0.025890529453987253,-0.006254340266340295
1783169520276586500,5.76058642578125,-0.016142741027474403,0.03136598345669918,-0.004521507428877521
1783169520286656500,5.770656494140625,-0.02033259393274784,0.01863571775383316,0.006335789167584153
1783169520296725500,5.7807255859375,-0.009707739543914795,0.014233290676958858,-0.011243767171888611
1783169520306794800,5.790794677734375,-0.011803835040330887,0.0189505056243157,0.004150773564110568
1783169520316864500,5.800864501953125,-0.018986440020799637,0.022254816999868487,0.004351667858127621
1783169520326933500,5.81093359375,-0.02138181072473526,0.015179398720921016,-0.00941124195701559
1783169520337003500,5.82100341796875,-0.01764087063074112,0.01592996592647396,-0.003295195345691172
1783169520347072500,5.831072509765625,-0.012252747851610183,0.02265406371683348,0.009023278681645751
1783169520357141500,5.8411416015625,-0.0022270283997058867,0.028800690412800756,0.000882779107240276
1783169520367211500,5.85121142578125,0.010941665253043175,0.038958429613383486,0.006059334859115187
1783169520377280500,5.861280517578125,-0.007314122405648231,0.02388680211587343,0.0031746479807421564
1783169520387349500,5.871349609375,-0.005219780474901199,0.0178985580191249,0.005206559092079987
1783169520397419500,5.88141943359375,-0.015395722052454947,0.021731194984563624,-0.01021946105887182
1783169520407488500,5.891488525390625,-0.022578327032923697,0.018678830809774807,-0.0034941131679865063
1783169520417558800,5.901558837890625,-0.021979776617884635,0.023937294760672374,0.0025057617156402554
1783169520427627500,5.91162744140625,-0.010008768317103385,0.024542553477711043,0.0002561473102017771
1783169520437696500,5.921696533203125,-0.0016296470284461973,0.02221197793856263,-0.006474415611918084
1783169520447766500,5.9317666015625,-0.006867547681927681,0.024609376202803103,-0.012744138964591548
1783169520457835500,5.94183544921875,-0.004025017732381821,0.02300614225724712,-0.006142149166960735
1783169520467904500,5.951904541015625,-0.018539865297079086,0.01517664507483132,-0.00453926798949833
1783169520477974500,5.961974609375,-0.01105856963098049,0.009571249116095713,-0.005276219374118955
1783169520488043500,5.97204345703125,0.005550619864463806,0.03027471762127243,-0.011646805289626354
1783169520498113500,5.982113525390625,-0.004924596920609474,0.02627300769924186,0.009490533150502597
1783169520508182500,5.9921826171875,0.0030067806005477904,0.027253789764363316,-0.005067891548550687
1783169520518251800,6.002251708984375,-0.027668928170204162,0.013509533846518025,0.01699538150965818
1783169520528321500,6.012321533203125,-0.020934651479125023,0.018063434291211888,0.01694453838005429
1783169520538390500,6.022390625,-0.0031289456754922864,0.0006764288236852735,0.006121441451538703
1783169520548460500,6.03246044921875,-0.006571195083856582,0.023009850317984817,0.013783022733876714
1783169520558529300,6.042529296875,-0.023480244308710096,0.026089545457693746,0.010688075226108776
1783169520568598300,6.052598388671875,-0.012557283756136893,0.0020788475340930744,0.009933182330243288
1783169520578668300,6.062668212890625,-0.014801847812533377,0.029650183381605893,-0.002778563618531916
1783169520588737300,6.0727373046875,-0.004926350486278533,0.028352636118046937,0.003759931918009533
1783169520598806300,6.08280615234375,-0.0017845453292131422,0.012481218278664163,-0.0037037944128911473
1783169520608876300,6.092876220703125,-0.002083236014842987,0.025589834040938876,0.0036350177635526048
1783169520618945300,6.1029453125,-0.0189922852396965,0.010814755504322237,-0.013759542535233777
1783169520629015300,6.113015380859375,-0.007619827353954315,0.014379448548844083,-0.005742661563045112
1783169520639084300,6.123084228515625,-0.005973813712596893,0.022906540640559976,-0.006124461100753978
1783169520649153300,6.1331533203125,-0.008068740165233611,0.014815771306608803,-0.017757240719138645
1783169520659223300,6.143223388671875,-0.014653379252552985,0.024929570900765245,-0.009421662315508
1783169520669292300,6.153292236328125,-0.016598668101429938,0.01807551745465025,0.016520426649891305
1783169520679361300,6.163361328125,-0.012708090403676032,0.027040416441741398,-0.006238055851819808
1783169520689431300,6.173431396484375,-0.007022445982694626,0.009814597451873124,-0.005177276486202026
1783169520699500300,6.183500244140625,-0.00537701686322689,0.02170746704910416,-0.00037868777206786033
1783169520709570300,6.1935703125,-0.01959317374229431,0.013426152712269686,0.008084018791111884
1783169520719639300,6.203639404296875,-0.01719897208213806,0.03396985951189417,-0.0031652699435100657
1783169520729708300,6.213708251953125,-0.004479775762557983,0.02710812964939978,-0.006080184138432377
1783169520739778300,6.2237783203125,-0.01779810701906681,0.025231129396916366,-0.012708035604748874
1783169520749847300,6.233847412109375,-0.0007405892342329024,0.006871200943738221,-0.026430828609457238
1783169520759916300,6.243916259765625,-0.011964578559994696,0.030453193160449154,-0.014722131356538739
1783169520769986300,6.253986328125,-0.015406243446469306,0.02626899824440479,0.015695774719753534
1783169520780055300,6.26405517578125,-0.014358780220150946,0.02010774936804082,0.00013731169819875504
1783169520790125300,6.274125244140625,-0.010917699855566024,0.013588270771689712,0.004582512334536295
1783169520800194300,6.2841943359375,-0.015855740779638288,0.023048387663508765,0.0036203270844969663
1783169520810263300,6.29426318359375,-0.013311901515722273,0.006188616373902186,-0.010917026285419705
1783169520820333300,6.304333251953125,-0.023936171382665634,0.02439940498024225,-0.005978332340798806
1783169520830402300,6.31440234375,-0.01061900916993618,0.033384227943932636,0.0051504809524660225
1783169520840472300,6.324472412109375,0.0003039513826370239,0.027759017606452104,-0.0002984707763935148
1783169520850541300,6.334541259765625,-0.014211480703949928,0.04081903128691483,-0.005731973488960648
1783169520860610300,6.3446103515625,-0.013313655081391334,0.027015208935248666,-0.013015163041872438
1783169520870680300,6.354680419921875,-0.019000468546152113,0.015017883449699728,-0.018092175186862004
1783169520880749300,6.364749267578125,-0.014661562559008598,0.008634077863837592,-0.008131947302777552
1783169520890818300,6.374818359375,-0.01391337454020977,0.023804777255072258,0.0050736534274125
1783169520900888300,6.384888427734375,-0.012567220628261565,0.02614244012213312,0.009742305108864093
1783169520910957300,6.394957275390625,-0.016308160722255705,0.014617020164383574,-0.006534904494346119
1783169520921027300,6.40502734375,-0.005384031125903129,0.025153022659406995,0.009582176935486495
1783169520931096300,6.415096435546875,-0.02169511445760727,0.01996299343537539,-0.003995730559926596
1783169520941165300,6.425165283203125,-0.026484102299809454,0.01783079914569389,0.0016593403408667654
1783169520951235300,6.4352353515625,-0.012267945420742034,0.017571070497273467,0.0023644706734732607
1783169520961304000,6.445303955078125,-0.014963760375976562,0.012112608728557824,0.0006539189513579913
1783169520971374300,6.455374267578125,-0.023493688312172887,0.032194036345253696,-0.004843511633080198
1783169520981443300,6.465443359375,-0.005088263049721717,0.02860235939568374,0.012136504485731711
1783169520991512300,6.47551220703125,-0.008980009791254996,0.014291044179606251,0.002317187190846016
1783169521001582300,6.485582275390625,-0.0070364745080471035,0.02318443969991058,-0.016133590748283314
1783169521011651300,6.4956513671875,-0.018408347871899603,0.020796151757310144,0.002774783634202322
1783169521021720300,6.50572021484375,-0.01032791726887226,0.017569147968245668,-0.012331844394741347
1783169521031790300,6.515790283203125,-0.019006898286938665,0.029202667942969128,0.0004760371385782491
1783169521041859300,6.525859375,-0.018259294790029523,0.028100236826133912,-0.009979760276683373
1783169521051929300,6.535929443359375,-0.02469429627358913,0.020507822635490447,0.009743928527081152
1783169521061998300,6.545998291015625,-0.011975684475898743,0.022191382675105703,0.00041514397135688336
1783169521072067300,6.5560673828125,-0.0074853873193264,0.008131667599920183,-0.011798887153866235
1783169521082137300,6.566137451171875,-0.01107610528767109,0.01370474589136429,0.006169683915391215
1783169521092206300,6.576206298828125,0.0026917233020067213,0.03540711664024274,-0.0021380777536629467
1783169521102275300,6.586275390625,-0.003293780848383903,0.024817630392313002,0.006766018969635479
1783169521112345300,6.596345458984375,0.004486205503344535,0.02084853496509604,-0.016092402504658092
1783169521122414300,6.606414306640625,-0.0218505972802639,0.017564133866410703,-0.007200905538850929
1783169521132484000,6.616484130859375,-0.005839373677968979,0.036725574261089786,0.004434119979313982
1783169521142553300,6.62655322265625,-0.013322422909736632,0.019823571264953353,0.0009350394455566857
1783169521152622300,6.636622314453125,0.005083002352714539,0.019060975694889203,0.012873269211506702
1783169521162692400,6.6466923828125,0.0037362639188766476,0.023255075517017394,0.012765920396492584
1783169521172761000,6.656760986328125,-0.01541734936237335,0.02801220691623166,0.011277155701548327
1783169521182831400,6.666831298828125,-0.014370470657944678,0.0024765416147885843,-0.017361881301068933
1783169521192900400,6.676900390625,-0.011378303104639052,0.03412423722285311,-0.008103796637238701
1783169521202969300,6.68696923828125,-0.017363807255029676,0.023312541325297205,-0.009393826743800309
1783169521213039400,6.697039306640625,0.005529577076435089,0.007839100694400258,0.013541051221144152
1783169521223108400,6.7071083984375,-0.015271803411841391,0.007278014479228295,-0.0061677322744333645
1783169521233177000,6.717177001953125,-0.017216507738828657,0.03153899280289188,0.0030233458595699627
1783169521243247400,6.727247314453125,-0.008837970972061156,0.018929640932800248,0.0021635184410071814
1783169521253316400,6.73731640625,0.0011877484798431396,0.01562686849378515,0.015240021175734
1783169521263386400,6.747386474609375,-0.0028518822997808456,0.03278845400786958,0.0003493044160790305
1783169521273455400,6.757455322265625,-0.01796586480140686,0.022693505244655535,0.008847344442715984
1783169521283524400,6.7675244140625,-0.01961246296465397,0.01326919945173431,-0.02028305341930827
1783169521293594400,6.777594482421875,-0.019163550153374672,0.00881267213402316,-0.007103547253244323
1783169521303663400,6.787663330078125,-0.012279635858535766,0.02073664012241643,-0.012766155575221637
1783169521313732400,6.797732421875,-0.014973697248101233,0.02877037747292779,-0.0005133925968242693
1783169521323802000,6.807802001953125,-0.010783844342827796,0.01539256198098883,0.004041887239614152
1783169521333871400,6.817871337890625,-0.018564999738335607,0.02420649905691389,0.0025000854601021274
1783169521343941000,6.827941162109375,-0.00928746830523014,0.0218242572626099,-0.006331527980175451
1783169521354010400,6.83801025390625,-0.014824059644341468,0.01673155093321111,0.007704430618442711
1783169521364079400,6.848079345703125,-0.014374562311172484,0.024769069409696382,0.009237443734600673
1783169521374149400,6.8581494140625,-0.019762100568413734,0.015245070668542757,-0.004668520106944197
1783169521384218000,6.868218017578125,-0.017068623700737952,0.013129526119562796,-0.003907531115843448
1783169521394287400,6.878287353515625,-0.022457331001758573,0.01223999340131413,0.011022911512420977
1783169521404357000,6.888357177734375,-0.007943067958950997,0.005776185948378406,0.0010318388962707104
1783169521414426400,6.89842626953125,-0.005697334858775139,0.011339039673330262,-0.0030890375005561506
1783169521424496400,6.908496337890625,-0.015274726021289825,0.018982088072667828,-0.007184877994301495
1783169521434565400,6.9185654296875,-0.01258183367550373,0.028484409271553157,-0.019255961694160943
1783169521444634000,6.928634033203125,-0.022758359774947164,0.024075292158988303,-0.01864662045704899
1783169521454704400,6.938704345703125,-0.005250760135054588,0.012825953762838616,-0.025059451207995877
1783169521464773400,6.9487734375,-0.005399813216924667,0.026174862820701673,-0.0038286277960127334
1783169521474843100,6.958843017578125,-0.016772271102666853,0.021936028807703404,0.00021504561748624836
1783169521484912400,6.968912353515625,-0.015425532668828963,0.01972484643110074,0.0036168699000976626
1783169521494981400,6.9789814453125,0.0047772974044084544,0.016864191736397333,-0.00883902585140895
1783169521505051400,6.989051513671875,-0.024401450806856153,0.014662937098764813,0.0026404149523441447
1783169521515120400,6.999120361328125,-0.021110008046030998,0.009992493035737425,-0.005381393356711487
1783169521525189400,7.009189453125,-0.023205519020557404,0.011921040812367573,-0.019066085694846698
1783169521535259100,7.019259033203125,-0.019915245303511617,0.011518177366210147,0.01849538112631417
1783169521545328400,7.029328369140625,-0.014977204379439352,0.019294839249690995,0.00204699266086609
1783169521555397600,7.039397705078125,-0.004053074783086776,0.017414601293927988,-0.00369363092436979
1783169521565466600,7.049466552734375,-0.023057634982466695,0.017633847234910353,0.0011114658045393298
1783169521575535900,7.059535888671875,0.0004354688078165054,0.023605071698199025,-0.006449105357436928
1783169521585606000,7.06960595703125,-0.010787351474165915,0.018233973119105212,-0.0013958217187289845
1783169521595675000,7.0796748046875,-0.0015098200410604476,0.024126268860977143,0.009918165140913333
1783169521605743600,7.08974365234375,-0.005250760135054588,0.010109822105360216,0.00209517590191972
1783169521615813600,7.099813720703125,-0.007645546317100524,0.014498325688159092,0.0018619416785470091
1783169521625883000,7.1098828125,0.004922843354940414,0.015551300773234106,-0.006644178692498826
1783169521635952600,7.11995263671875,-0.006150923845171928,0.01767422947764862,0.005569878833249094
1783169521646022000,7.13002197265625,-0.0001654196947813034,0.016064424227410928,0.011800745750812348
1783169521656090600,7.140090576171875,-0.02081540901362896,0.011295237064221874,0.01567356402958976
1783169521666161000,7.150160888671875,-0.023807576566934583,0.026660728375194592,0.009061014022037852
1783169521676229600,7.160229736328125,-0.006298807883262634,0.02262689258211758,0.006327542499869014
1783169521686299000,7.170298828125,0.005672200417518616,0.019959705499745906,-0.01148691457826644
1783169521696368600,7.18036865234375,-0.0003127192109823227,0.012751938678557052,0.0025724177606622103
1783169521706438000,7.19043798828125,-0.010339023184776306,0.017425150087405927,-0.008035936728285741
1783169521716507600,7.200507568359375,-0.010936989077925681,0.009528396355058066,-0.00611101367235824
1783169521726577000,7.210576904296875,-0.018567922347784042,0.0056128668791381635,0.007085271811037091
1783169521736645600,7.220645751953125,0.0005845218896865845,0.02218083844820503,-0.011029253346595214
1783169521746716000,7.2307158203125,-0.017073299875855444,0.02763293897479307,-0.0005639932697165932
1783169521756784600,7.24078466796875,-0.03039163113236427,0.014610910084005444,0.011178957165725296
1783169521766854700,7.250854736328125,-0.003307224851846695,0.011922081991983576,-0.01436805722186109
1783169521776923600,7.260923583984375,-0.0019610709398984907,0.007196647205553017,-0.006360427564385463
1783169521786993000,7.270992919921875,-0.014980126988887786,0.012405746456235647,-0.009893788751482497
1783169521797063000,7.28106298828125,-0.007497662279009818,0.028059411625401116,0.0019724060408989317
1783169521807131600,7.291131591796875,-0.017523381730914115,0.017126066676131448,0.010214156979380641
1783169521817200600,7.30120068359375,-0.013333528825640678,0.02128011304908432,0.006408334955631289
1783169521827270700,7.311270751953125,-0.013632804033160209,0.016312832330795935,-0.011055450658709741
1783169521837340000,7.32133984375,-0.01617722781896591,0.012206228129030204,0.010385432167857651
1783169521847409700,7.33140966796875,-0.002112462109327316,0.019653530193981715,0.0002340447908369242
1783169521857479000,7.34147900390625,-0.015430208843946455,0.004681403848459013,0.005188679229628178
1783169521867547600,7.351547607421875,-0.006601590222120285,0.013155674340971745,0.0026038680636847854
1783169521877618000,7.361617919921875,-0.006153846454620361,0.01762865503656212,-0.012983135352237149
1783169521887686700,7.371686767578125,-0.021118775874376296,0.0219686570022488,-0.004023366343879025
1783169521897756000,7.381755859375,-0.009447627303004264,0.019006756723043507,0.006196097569103585
1783169521907825700,7.39182568359375,-0.007652560579776763,0.0049712719068164,-0.027888388740317894
1783169521917895000,7.40189501953125,-0.00810147339105606,0.013821924263937397,-0.0026933569950226225
1783169521927964700,7.411964599609375,-0.0042097266495227815,0.01830644470027182,-0.01071154514995287
1783169521938034000,7.422033935546875,-0.018275076881051063,0.026842286354023963,-0.015058913004765053
1783169521948102700,7.4321025390625,-0.009596095862984657,0.007867089246446267,-0.0008436925594476633
1783169521958172700,7.442172607421875,0.0011795651733875275,0.017969942754902875,0.0018237956316123018
1783169521968241700,7.45224169921875,-0.009894202026724815,0.0151064567822963,-0.02059020597260678
1783169521978311000,7.462310791015625,-0.011389993542432784,0.01621684744330123,-0.018548265515954697
1783169521988380700,7.472380615234375,-0.02036883428990841,0.006578944565472192,-0.012925011956831439
1783169521998450000,7.482449951171875,-0.004806523498892784,0.009070382355293258,-0.0019261354821908752
1783169522008519700,7.492519775390625,-0.01079202764928341,0.026572127643134442,0.0018455338237348769
1783169522018588700,7.502588623046875,-0.005853986725211143,0.012235719084995798,0.012394600582780548
1783169522028657700,7.51265771484375,-0.00675122782588005,0.023858576101809737,0.00009336310132348444
1783169522038727700,7.522727783203125,-0.027401217144727704,0.036727505923272105,-0.00660511733223393
1783169522048796700,7.532796630859375,-0.011989128479361533,0.02655187943954952,-0.009603099850862053
1783169522058866700,7.54286669921875,-0.010942834296822548,0.024871182643878272,-0.02186392483600648
1783169522068936000,7.55293603515625,-0.002862403693795204,0.01757905744090676,-0.007594186022621579
1783169522079004700,7.563004638671875,-0.0009165303230285644,0.020981340165063738,0.00291015639223624
1783169522089075000,7.573074951171875,-0.0224649297863245,0.019664302749745545,0.0007061404024148941
1783169522099143700,7.583143798828125,-0.01543137788772583,0.014093891339423134,-0.011603914854326285
1783169522109213000,7.593212890625,-0.02007072812616825,0.022230961200245654,-0.009495853783836355
1783169522119282700,7.60328271484375,-0.01857376756668091,0.01717448609485291,-0.016366364032763522
1783169522129352000,7.61335205078125,-0.024260581031441686,0.02248894998272881,-0.008456035007856553
1783169522139421700,7.623421630859375,-0.01857493661046028,0.007520577363716438,-0.012658240504626883
1783169522149491000,7.633490966796875,0.01269815353155136,0.018777121818787417,-0.006898405186139279
1783169522159559700,7.6435595703125,-0.001817278555035591,0.026257737064873797,-0.02905989847141318
1783169522169629700,7.653629638671875,-0.02157002677321434,0.016885572451143523,0.0003254421947069204
1783169522179698700,7.66369873046875,-0.017830255722999573,0.01522867208959069,0.002880664009215252
1783169522189768000,7.673767822265625,-0.021571195816993714,0.011808716711425221,-0.006638291232762276
1783169522199837700,7.683837646484375,-0.01797989332675934,0.020862184464535676,0.00204992140665272
1783169522209907000,7.693906982421875,-0.009301496830582618,0.019738052972545845,-0.014799611331318737
1783169522219976700,7.703976806640625,-0.01573591379225254,0.016196873234352097,0.00588748599436949
1783169522230045700,7.714045654296875,-0.017232874351739882,0.014260301981470547,-0.005156279363945941
1783169522240114700,7.72411474609375,-0.00945171895623207,0.020394466488086616,0.0024932039135775992
1783169522250184700,7.734184814453125,-0.012593524113297462,0.007893895054981111,0.004630636923613201
1783169522260253700,7.744253662109375,-0.003914543095231056,0.009516331457928753,0.01246376025378704
1783169522270322700,7.75432275390625,-0.00526069700717926,0.013689977580495179,-0.02581845516504254
1783169522280392700,7.764392822265625,-0.0007715688943862914,0.0018825669101672246,-0.015769890268734887
1783169522290461700,7.774461669921875,-0.006607435441017151,0.011040138925146312,-0.001026092358254391
1783169522300532000,7.784531982421875,0.00626022943854332,0.017503170059947296,0.009475326448216219
1783169522310600700,7.7946005859375,-0.020375848552584647,0.011492042844532988,-0.0055935451199155065
1783169522320669700,7.804669677734375,-0.02905482957065105,0.02070061439438723,-0.0006092636766512441
1783169522330739700,7.81473974609375,-0.017982231414318085,0.019741792999324388,-0.01483340742799919
1783169522340809000,7.82480908203125,-0.016785130584239957,0.02456840030502062,-0.002131865781529632
1783169522350877700,7.834877685546875,-0.019179916766285894,0.01968069676212035,0.006942077647795667
1783169522360948000,7.844947998046875,-0.01663607750236988,0.015263889533444307,0.005374430468029458
1783169522371016700,7.8550166015625,0.0025169512569904328,0.014303734697820618,0.004106027956797334
1783169522381086700,7.865086669921875,-0.005713116949796676,0.011778011045907623,0.0037312817830825224
1783169522391155700,7.87515576171875,-0.017682956206798554,0.01462645927958656,-0.014893401978438487
1783169522401225000,7.885224853515625,-0.01229600247144699,0.0007785922902170568,-0.006247161606882582
1783169522411294700,7.895294677734375,-0.018879472514986992,0.02731045185504481,-0.009815924042568076
1783169522421363700,7.90536376953125,-0.018281506621837616,0.01704320613169111,-0.006422654029462137
1783169522431433700,7.915433837890625,-0.01783434737622738,0.018745324741303918,-0.009136214703941367
1783169522441502700,7.925502685546875,-0.022773557344079015,0.025560082790069282,-0.001969639408605144
1783169522451571700,7.93557177734375,-0.011999649873375892,0.021675825235247612,-0.0014905158346191455
1783169522461641700,7.945641845703125,-0.011850012269616126,0.004188679294916801,-0.008193323813661118
1783169522471710700,7.955710693359375,-0.012748422414064407,0.02122592604327947,-0.003816143344597367
1783169522481779700,7.96577978515625,-0.020530746853351593,0.003278843574156053,-0.004897547941835364
1783169522491849700,7.975849609375,-0.013498363998532294,0.028303705242672002,-0.013464712890679947
1783169522501918700,7.985918701171875,-0.01888473321199417,0.004252529178210534,0.008989594466108246
1783169522511989000,7.995989013671875,-0.00661444970369339,0.00013009265307337045,0.0010770316000391176
1783169522522057700,8.0060576171875,0.00042027123868465424,0.01835818402066361,-0.011033118954248492
1783169522532126700,8.016126708984375,-0.014842179822921752,0.01743353432326112,-0.009235883677643142
1783169522542196700,8.02619677734375,-0.012896306452155112,0.0321761033963412,0.0013701164553145645
1783169522552265700,8.036265625,-0.010202245062589644,0.013723076132498681,-0.020990480169455986
1783169522562334700,8.046334716796874,-0.019779051703214645,0.0041759385443525384,-0.0032451576461520744
1783169522572404700,8.05640478515625,0.006407528954744338,0.00715747510578949,-0.0008122523171656212
1783169522582473700,8.0664736328125,-0.01558861427605152,0.024384600136755034,0.003341784708574414
1783169522592543500,8.07654345703125,-0.00855506237745285,0.030972088768286627,0.005747113975876709
1783169522602612700,8.08661279296875,-0.0039162966609001156,0.020223484702198764,-0.0017859234366078452
1783169522612681700,8.096681640625,-0.01708615935742855,0.016022370617394335,-0.005364352032009629
1783169522622751700,8.106751708984374,-0.004667407289147376,0.03994828546752687,-0.01830541151216603
1783169522632820500,8.116820556640626,-0.0146919576972723,0.021058118028589524,-0.0013422439228721486
1783169522642889700,8.1268896484375,-0.003320668855309486,0.02078309591291472,0.013013727994967484
1783169522652959500,8.13695947265625,0.004161211332678795,0.012073938952293247,0.0038294631942408157
1783169522663028700,8.14702880859375,-0.013046528577804565,0.01022449342701584,0.003620073924869939
1783169522673098500,8.157098388671875,-0.008856675672531128,0.011546855471422895,-0.005392100267927162
1783169522683167700,8.167167724609374,-0.0030208091259002682,0.016481293366034513,-0.008260543830975076
1783169522693236500,8.177236572265626,-0.017834931898117065,0.00674504468026571,-0.0014208648284402441
1783169522703306800,8.187306640625,-0.01469371126294136,0.011373065240518189,-0.008924921457262825
1783169522713375500,8.19737548828125,-0.01633972490429878,0.015124554127990268,-0.0017861633246197015
1783169522723444700,8.20744482421875,-0.003919219270348549,0.024527552271401507,-0.0017851929269512765
1783169522733514800,8.2175146484375,-0.019480945539474485,0.014295003402093425,0.01265609992153477
1783169522743583700,8.227583740234374,-0.0033189152896404266,0.02401169800402131,0.017747365495807025
1783169522753653800,8.23765380859375,-0.006311082842946052,0.021886531676747836,0.030923995859839487
1783169522763722800,8.24772265625,-0.027409400451183317,0.019300200411397964,-0.009458301106534782
1783169522773791700,8.257791748046875,-0.012446224597096442,0.014550759128294885,-0.008088600209751166
1783169522783861800,8.26786181640625,-0.007508183673024177,0.020958073453907853,0.01823522778620827
1783169522793930800,8.2779306640625,-0.005114566534757614,0.008454689009208231,0.0009478999260685668
1783169522803999700,8.287999755859374,-0.012296586993336677,0.014719800118845886,-0.01772115334231639
1783169522814069800,8.29806982421875,-0.02112520561516285,0.01772378140753135,0.00847997928491386
1783169522824138800,8.308138671875,-0.013493687823414802,0.012768606685567646,-0.007715410382649861
1783169522834208800,8.318208740234375,-0.014392097967863083,0.01805004052009899,-0.004594545551035844
1783169522844277500,8.328277587890625,-0.010501520270109177,0.0021797414921456947,0.01687490378501243
1783169522854346800,8.3383466796875,-0.01259703124463558,0.023964118835516274,0.008673162056988802
1783169522864416500,8.34841650390625,-0.015290508112311363,0.01060551036754623,-0.002161712074288516
1783169522874485800,8.35848583984375,-0.026214053186774253,0.01692052960009314,-0.007011295542662264
1783169522884554800,8.3685546875,-0.004217325434088707,0.02410321677895263,0.02462143425006652
1783169522894624800,8.378624755859375,-0.0028688334345817563,0.014781211449881083,0.022231865382543764
1783169522904693500,8.388693603515625,-0.008256956213712691,0.015366610122402197,0.0037514032641483936
1783169522914763800,8.398763671875,-0.00975450129508972,0.0021641009650193153,-0.006822529792445129
1783169522924832500,8.40883251953125,0.0013180968612432479,0.017796230155811645,-0.009212251640306203
1783169522934901800,8.41890185546875,-0.026514497438073156,0.009540853977832012,-0.002082534617116471
1783169522944971500,8.428971435546876,-0.009155950880050659,0.013836003021639771,0.005207978155964519
1783169522955040800,8.439040771484375,-0.01364449447095394,0.02212369230033364,-0.013466831782530062
1783169522965109500,8.449109619140625,-0.014992401948571205,0.01339970766333863,0.00901324134482129
1783169522975179800,8.4591796875,-0.011401683980226516,0.017828497590753247,-0.0002910712265988877
1783169522985248500,8.46924853515625,-0.011850012269616126,0.015168790561938657,0.003856818704513716
1783169522995318500,8.479318603515624,-0.00002864157259464264,0.008787523993034847,-0.012995864686358254
1783169523005387800,8.4893876953125,-0.02411971125602722,0.024706749329785813,0.0005417582839347232
1783169523015456800,8.499456787109375,-0.01843289779126644,0.014706191718601621,0.00042775229118051356
1783169523025526800,8.50952685546875,-0.029357027387619018,0.019803030800423584,-0.02258858356545679
1783169523035595800,8.519595703125,-0.005714870515465736,0.008886107262992299,0.023287918340694158
1783169523045665800,8.529665771484375,-0.02651391291618347,0.020666136736050247,0.013972508290834957
1783169523055734500,8.539734619140624,-0.010053191980719566,0.010169762998516671,0.006999336818454321
1783169523065803800,8.5498037109375,-0.010801379999518393,0.014095864100800826,-0.0008702015404604026
1783169523075873500,8.55987353515625,-0.013045944055914879,0.005668633920676075,-0.000908722760258388
1783169523085942800,8.56994287109375,-0.011699790143966673,0.022534661421133206,-0.008000977866869652
1783169523096011500,8.580011474609375,-0.017236381483078003,0.0243050503608305,0.007206374015123583
1783169523106081800,8.590081787109375,-0.021575871992111206,0.016332368148327805,0.010886439350910949
1783169523116150500,8.600150634765624,-0.021277765828371046,0.008412096543074584,0.007981199449920677
1783169523126220800,8.610220703125,-0.010803718087077141,0.021322413254273122,0.003953969781677006
1783169523136289500,8.62028955078125,-0.019183423897624015,0.015189673519763164,0.0025759263190557246
1783169523146358800,8.63035888671875,-0.015441899281740187,0.009409373085270635,-0.010106342373485677
1783169523156428500,8.640428466796875,0.008200257590413092,0.007825035636429674,0.005090675344160991
1783169523166497800,8.650497802734375,-0.017981646892428396,0.005646454054908827,0.0024052151028707155
1783169523176566500,8.66056640625,-0.12704057202637195,0.03055719239104073,-0.059807754596346054
1783169523186636800,8.67063671875,-0.5198451271146536,0.06676607670111116,-0.10256450334703548
1783169523196705500,8.68070556640625,0.7306856798559427,-0.07418382844459265,0.18233175794715062
1783169523206775600,8.690775634765625,0.006738368344306946,0.012562969144829548,0.033498762268270366
1783169523216844800,8.7008447265625,-0.22325579767823217,0.033164050421188584,-0.021322659849445334
1783169523226913800,8.710913818359375,0.045943420529365536,0.02928138660183176,-0.011590913808858022
1783169523236983800,8.72098388671875,0.2642716986775398,0.020627434993744826,0.016071552654518744
1783169523247052500,8.731052490234376,0.5082961436182261,-0.006679792857752181,0.09699388187415897
1783169523257121500,8.74112158203125,-0.7027163074344396,0.07494114961791783,-0.11773952272036112
1783169523267191600,8.751191650390625,-0.143974755692482,0.037238277590158395,-0.06172326022831257
1783169523277260800,8.7612607421875,0.2229366487264633,-0.010256742595648393,0.095031084768055
