time,seconds_elapsed,z,y,x
1783169514587384800,0.071384765625,-0.0021481188014149666,0.000359291210770607,-0.0007216332014650106
1783169514597453800,0.081453857421875,0.00059387186774984,0.000666353851556778,-0.0012904840987175703
1783169514607523000,0.091523193359375,0.0025912572164088488,-0.00091145234182477,0.00013495096936821938
1783169514617592800,0.1015927734375,-0.00008814909961074591,-0.0000890679657459259,-0.0035511301830410957
1783169514627661800,0.111661865234375,0.00012340699322521687,-0.0005107554607093334,0.002355615608394146
1783169514637732000,0.121732177734375,-0.0008071016054600477,0.0004351991228759289,0.0028038255404680967
1783169514647800800,0.13180078125,0.0015149236423894763,0.0005887141451239586,-0.0002922499552369118
1783169514657869800,0.141869873046875,0.001186822191812098,0.0009181471541523933,-0.000033923424780368805
1783169514667939800,0.15193994140625,-0.000042091007344424725,-0.00035177217796444893,-0.0004393381532281637
1783169514678009000,0.162009033203125,0.0017648638458922505,0.0018629119731485844,0.000081576406955719
1783169514688077800,0.172077880859375,0.001210698508657515,-0.00019837124273180962,-0.0005249255336821079
1783169514698148000,0.182148193359375,0.0014586388133466244,0.0012692962773144245,-0.0035678534768521786
1783169514708216800,0.192216796875,0.0019154669716954231,-0.001595593523234129,0.0001126511488109827
1783169514718287000,0.202287109375,0.0002973303198814392,-0.0032656616531312466,0.0012306461576372385
1783169514728355800,0.21235595703125,0.0005805750843137503,-0.0010818769223988056,-0.002184823388233781
1783169514738425000,0.222425048828125,-0.00037922814954072237,0.000003627035766839981,0.000015213852748274803
1783169514748494800,0.232494873046875,0.0003529329551383853,-0.0019145109690725803,0.0017581026768311858
1783169514758564000,0.242564208984375,-0.0022473775316029787,0.001496732234954834,-0.0009218363557010889
1783169514768633900,0.2526337890625,-0.00016636832151561975,0.0018015159294009209,-0.0005725817754864693
1783169514778702800,0.262702880859375,-0.0022012898698449135,-0.0037144231610000134,0.00014700437895953655
1783169514788771800,0.272771728515625,0.002560422522947192,0.00023357803001999855,0.0006442659068852663
1783169514798841900,0.282841796875,-0.003411449957638979,-0.0012950762175023556,0.0010250979103147984
1783169514808910800,0.292910888671875,-0.0018529483349993825,0.0005221334286034107,-0.001975801307708025
1783169514818980000,0.30297998046875,0.00044296286068856716,-0.0016616587527096272,-0.0035832850262522697
1783169514829049900,0.3130498046875,-0.0010762158781290054,0.0002821921370923519,0.0004190483596175909
1783169514839118800,0.323118896484375,0.0009397970279678702,0.00047393934801220894,0.0007617971859872341
1783169514849189000,0.333189208984375,0.0018892718944698572,0.0004636901430785656,-0.0038655949756503105
1783169514859257900,0.3432578125,-0.001178689650259912,-0.0016292878426611423,0.0016085327370092273
1783169514869326800,0.353326904296875,0.0009329181630164385,0.0007916586473584175,-0.00018249289132654667
1783169514879396900,0.36339697265625,0.0021664942614734173,0.0012286831624805927,-0.0010325736366212368
1783169514889466000,0.373466064453125,0.0005765295936726034,0.001211236696690321,0.002503455150872469
1783169514899536000,0.383535888671875,-0.0021518790163099766,-0.002189087215811014,-0.0020801115315407515
1783169514909605000,0.393605224609375,-0.0008231131359934807,-0.0028827167116105556,-0.0023420851211994886
1783169514919673900,0.403673828125,0.0006504138582386076,0.0022073835134506226,-0.0014914714265614748
1783169514929744100,0.413744140625,-0.00015113968402147293,-0.0007818727754056454,0.0009132814593613148
1783169514939812900,0.423812744140625,0.0010022753849625587,-0.002293217461556196,0.0018600353505462408
1783169514949883000,0.4338828125,0.0033848918974399567,0.0013344190083444118,0.0006023058667778969
1783169514959952000,0.443951904296875,0.0015331959584727883,0.00042494945228099823,0.0018891452345997095
1783169514970021000,0.454021240234375,-0.0003255393821746111,-0.0013202284462749958,0.000697149196639657
1783169514980091000,0.4640908203125,-0.001057109679095447,0.002811932470649481,-0.00043735746294260025
1783169514990160000,0.474159912109375,0.000021101906895637512,0.001182610634714365,-0.000519915483891964
1783169515000228900,0.484228759765625,0.00035612762439996004,0.00031442008912563324,0.000593286007642746
1783169515010299000,0.494298828125,0.0004693011287599802,0.0007993699982762337,-0.0021162491757422686
1783169515020368000,0.504367919921875,0.00161153101362288,0.0003961678594350815,-0.0012621732894331217
1783169515030438000,0.51443798828125,0.0005983444862067699,-0.00009157881140708923,-0.00045168865472078323
1783169515040507000,0.5245068359375,0.002871352480724454,0.0024293693713843822,-0.0005057509988546371
1783169515050576000,0.534575927734375,0.002321916865184903,-0.002496026922017336,-0.0016948375850915909
1783169515060646000,0.54464599609375,0.0006806107121519744,-0.0030065556056797504,-0.00027404120191931725
1783169515070715000,0.55471484375,-0.0016625573625788093,-0.0012621423229575157,-0.00022851047106087208
1783169515080785200,0.56478515625,-0.00013150600716471672,0.0008249771781265736,0.0014900274109095335
1783169515090854000,0.57485400390625,-0.0008190071675926447,-0.0010156421922147274,0.0010124051477760077
1783169515100923000,0.5849228515625,0.0014753059949725866,0.000013669487088918686,-0.00039134733378887177
1783169515110993000,0.594992919921875,0.0003730497555807233,-0.00007979990914463997,0.0007022516801953316
1783169515121062100,0.605062255859375,0.0009690651786513627,-0.0017927451990544796,-0.00003917235881090164
1783169515131131000,0.615130859375,0.00012072175741195679,-0.000033257994800806046,0.0015649846754968166
1783169515141201000,0.625200927734375,0.0008725321968086064,0.0007177535444498062,-0.0016502498183399439
1783169515151270000,0.635269775390625,-0.0031163939274847507,-0.0013318797573447227,-0.0007683995645493269
1783169515161340000,0.64533984375,0.0007640979602001607,-0.002271442674100399,0.0017171289073303342
1783169515171409000,0.655408935546875,-0.001083275768905878,0.002292596735060215,0.00276708765886724
1783169515181478100,0.66547802734375,-0.0008254817221313715,-0.0017916271463036537,-0.0018244681414216757
1783169515191548000,0.6755478515625,0.00018872483633458614,0.00006256764754652977,-0.0024967051576822996
1783169515201617000,0.685616943359375,0.002048676600679755,-0.001287122257053852,-0.002112943446263671
1783169515211687000,0.69568701171875,0.0009637265466153622,0.0003848504275083542,0.0005068150348961353
1783169515221756000,0.705755859375,0.0006987419910728931,-0.0012982678599655628,0.0006498266011476517
1783169515231825000,0.715824951171875,-0.00043848948553204536,0.0017816661857068539,0.0011205063201487064
1783169515241895000,0.72589501953125,0.0010837733279913664,0.0000013434328138828278,0.00031596538610756397
1783169515251964000,0.7359638671875,-0.0012041900772601366,-0.0009403955191373825,0.0019605131819844246
1783169515262034000,0.746033935546875,0.0001947683049365878,0.0006846650503575802,-0.001114372629672289
1783169515272103000,0.75610302734375,-0.0005664266645908356,0.0012850547209382057,0.0007791772950440645
1783169515282172000,0.766171875,-0.00007374188862740993,0.0004956936463713646,0.0014388421550393105
1783169515292242000,0.776241943359375,0.001779843121767044,-0.0015249624848365784,-0.00126367574557662
1783169515302311000,0.786310791015625,0.0020874382462352514,-0.0005616974085569382,0.0006833611987531185
1783169515312380000,0.7963798828125,-0.0005396786145865917,-0.0011033639311790466,0.002939831232652068
1783169515322450000,0.806449951171875,0.0018531716195866466,-0.000032773707062006,0.00004444248043000698
1783169515332519000,0.816518798828125,0.0004861417110078037,0.00018729176372289658,-0.0022447905503213406
1783169515342589000,0.8265888671875,-0.0006251954473555088,0.0004932889714837074,-0.0023079076781868935
1783169515352658000,0.836657958984375,-0.0005941138369962573,-0.0028947885148227215,0.00023774011060595512
1783169515362727000,0.846726806640625,0.0008338731713593006,-0.0009408271871507168,0.000821238849312067
1783169515372797000,0.856796875,-0.0015451826620846987,-0.00039792945608496666,0.00042521068826317787
1783169515382866000,0.866865966796875,0.001386957592330873,-0.0005593164823949337,0.0011288176756352186
1783169515392936000,0.87693603515625,-0.0018455139361321926,0.0019459063187241554,-0.002449438441544771
1783169515403005000,0.8870048828125,0.00117957079783082,0.0012830458581447601,0.00012131081894040108
1783169515413074000,0.897073974609375,-0.0012932956451550126,0.002823981922119856,0.000630625057965517
1783169515423144000,0.90714404296875,-0.0004200451076030731,-0.0023595946840941906,0.0019430307438597083
1783169515433213000,0.917212890625,0.0015026945620775223,-0.0016727549955248833,0.0011557606048882008
1783169515443282000,0.927281982421875,0.0005301081109791994,0.00010730233043432236,-0.0011297643650323153
1783169515453352000,0.93735205078125,0.0017698945011943579,0.0016625281423330307,-0.0013106344267725945
1783169515463421000,0.9474208984375,-0.0016035315347835422,-0.0022304803133010864,0.004329940769821405
1783169515473491000,0.957490966796875,-0.0013972336892038584,0.0005132351070642471,-0.0029628779739141464
1783169515483560000,0.967559814453125,0.0005982730071991682,-0.0014585694298148155,0.0038329765666276217
1783169515493629000,0.97762890625,-0.0006151763955131173,0.000055744778364896774,-0.00002410123124718666
1783169515503699000,0.987698974609375,0.00008869706653058529,-0.0015994096174836159,-0.0007913580629974604
1783169515513768000,0.997767822265625,0.0013537902850657701,-0.0010227132588624954,-0.0020149010233581066
1783169515523838000,1.007837890625,-0.0001154756173491478,0.0004872996360063553,-0.001138987485319376
1783169515533907000,1.017906982421875,0.00011855736374855042,-0.0002484852448105812,-0.00028618890792131424
1783169515543976000,1.027975830078125,-0.001016215537674725,0.0008897501975297928,0.00007972936145961285
1783169515554047500,1.038047607421875,-0.0011135127861052752,0.0023136273957788944,0.0006077270954847336
1783169515564116700,1.04811669921875,0.0016186240827664733,0.00112958624958992,0.002992321504279971
1783169515574185700,1.058185791015625,-0.000016944133676588535,-0.001200472004711628,0.00020869309082627296
1783169515584255700,1.068255859375,-0.0009511810494586825,-0.000030545517802238464,-0.0032225234899669886
1783169515594324500,1.078324462890625,-0.00015450501814484596,-0.000050815287977457047,-0.0023107421584427357
1783169515604394800,1.088394775390625,0.0000010236399248242378,-0.0006878427229821682,0.0000807764008641243
1783169515614463500,1.09846337890625,0.0011643110774457455,0.0009088455699384212,0.0013512370642274618
1783169515624532700,1.10853271484375,-0.0007965744007378817,0.0000499761663377285,0.001550707733258605
1783169515634602800,1.118602783203125,-0.0002017701044678688,0.0007451376877725124,-0.0016768721397966146
1783169515644671700,1.128671630859375,0.00020249770022928715,0.001608267892152071,0.0018590070540085435
1783169515654741800,1.13874169921875,0.00038989691529423,-0.0010804352350533009,0.0013571728486567736
1783169515664810800,1.148810791015625,-0.00193051528185606,-0.0010900222696363926,0.0010080323554575443
1783169515674879700,1.158879638671875,-0.0010528384009376168,-0.0016613909974694252,-0.00417319405823946
1783169515684949800,1.16894970703125,-0.001015554298646748,-0.0020621968433260918,-0.001181665575131774
1783169515695018800,1.179018798828125,0.0006286428542807698,0.0002218354493379593,-0.0023039698135107756
1783169515705088500,1.189088623046875,0.0015293238684535027,-0.00042611127719283104,-0.0025678889360278845
1783169515715157800,1.19915771484375,0.0007544971886090934,-0.0009308867156505585,0.00022698217071592808
1783169515725226800,1.209226806640625,-0.0016852247063070536,-0.002151946537196636,0.0005313814617693424
1783169515735296800,1.219296875,-0.0006221800576895475,0.0012710229493677616,0.00009985850192606449
1783169515745365500,1.229365478515625,0.0017168744234368205,0.0016420013271272182,0.001041818642988801
1783169515755434800,1.239434814453125,0.0002637539291754365,-0.0005117002874612808,-0.0003464671317487955
1783169515765504500,1.24950439453125,-0.000024932785890996456,-0.0010970626026391983,0.0016096248291432858
1783169515775573800,1.25957373046875,0.0007794686825945973,-0.0007169051095843315,0.003081793896853924
1783169515785643500,1.2696435546875,0.0007243412546813488,0.0013784701004624367,0.000366434920579195
1783169515795712800,1.279712646484375,0.0011486290022730827,0.0010969378054141998,0.0007890993729233742
1783169515805781500,1.289781494140625,-0.0012886960757896304,0.00403094245120883,-0.002255692845210433
1783169515815851800,1.299851806640625,0.00007476529572159052,-0.00005817785859107971,-0.00010915612801909447
1783169515825920500,1.30992041015625,-0.002038453007116914,-0.00007948372513055801,-0.0002220741007477045
1783169515835990800,1.31999072265625,-0.002259615110233426,0.0011589936912059784,0.0004928212147206068
1783169515846059500,1.3300595703125,0.0016357905697077513,-0.0016929851844906807,-0.00023448793217539787
1783169515856128800,1.340128662109375,-0.00036485656164586544,-0.00034276489168405533,-0.0006783995777368546
1783169515866198800,1.35019873046875,0.00011744187213480473,-0.004135904833674431,-0.0012054392136633396
1783169515876267800,1.360267822265625,0.0020021020900458097,-0.00010626669973134995,0.0019497895846143365
1783169515886336500,1.37033642578125,-0.0003966069780290127,-0.0009981589391827583,-0.0011139106936752796
1783169515896406500,1.380406494140625,0.0020845462568104267,0.0011674677953124046,-0.002351931994780898
1783169515906475800,1.390475830078125,0.0004182063275948167,-0.0003529312089085579,0.00038073770701885223
1783169515916545500,1.400545654296875,-0.002352854236960411,-0.0009098947048187256,0.0006380951963365078
1783169515926614800,1.41061474609375,0.0005593124660663307,9.071081876754761e-7,-0.0019089521374553442
1783169515936683800,1.420683837890625,0.0012627957621589303,0.00034503499045968056,0.0033047739416360855
1783169515946753800,1.43075390625,0.0011080661788582802,-0.0008936012163758278,-0.00015067751519382
1783169515956822500,1.440822509765625,0.002673432696610689,-0.00017108581960201263,-0.00012620119377970695
1783169515966892800,1.450892822265625,0.0012116235448047519,0.0018659657798707485,-0.00023991800844669342
1783169515976961500,1.46096142578125,-0.00009657326154410839,-0.00326371006667614,0.0021370321046561003
1783169515987030800,1.47103076171875,0.0012712263269349933,0.003428014926612377,-0.0023096478544175625
1783169515997100500,1.4811005859375,0.000007704016752541065,-0.0025067217648029327,-0.0009511506650596857
1783169516007169800,1.491169677734375,-0.00024689408019185066,0.0009711002930998802,-0.000910937087610364
1783169516017238500,1.501238525390625,0.0017238483997061849,-0.0012061810120940208,0.0011718457099050283
1783169516027308800,1.511308837890625,0.0003118404420092702,-0.00018991902470588684,0.001141219399869442
1783169516037377500,1.52137744140625,0.000043695676140487194,-0.0012995954602956772,0.0018006811151281
1783169516047447800,1.53144775390625,-0.0007877431344240904,0.0007076291367411613,-0.0010920444037765265
1783169516057516500,1.5415166015625,-0.0017054055351763964,-0.0008404059335589409,0.00015852181240916252
1783169516067585800,1.551585693359375,-0.0020915637724101543,0.0010789339430630207,-0.0004888926632702351
1783169516077655800,1.56165576171875,0.0016596144996583462,-0.0021482864394783974,0.0011103388387709856
1783169516087724800,1.571724853515625,0.0003000708529725671,0.0008775973692536354,0.0016363130416721106
1783169516097793500,1.58179345703125,-0.0009448325727134943,-0.000542493537068367,-0.0007851249538362026
1783169516107863600,1.591863525390625,-0.002369890222325921,-0.0003398265689611435,-0.0003177404869347811
1783169516117932800,1.601932861328125,-0.0005754140438511968,-0.0002488279715180397,0.0011873231269419193
1783169516128002600,1.61200244140625,0.0017258235020563006,-0.00005894433706998825,0.00017665349878370762
1783169516138071800,1.62207177734375,0.0014963725116103888,0.0009726905263960361,0.0006475751288235188
1783169516148140500,1.632140625,0.0003291090251877904,-0.00248116347938776,0.0021083189640194178
1783169516158210800,1.6422109375,-0.001075324951671064,-0.00039478205144405365,-0.001710944576188922
1783169516168279600,1.652279541015625,-0.0018079605652019382,0.00012533320114016533,-0.000406262231990695
1783169516178349800,1.662349853515625,-0.0009783906862139702,0.00029817409813404083,-0.0011842346284538507
1783169516188418600,1.67241845703125,0.001493821619078517,-0.0005071656778454781,0.001138840802013874
1783169516198487800,1.68248779296875,0.000027266796678304672,0.00004647858440876007,0.0029435642063617706
1783169516208557600,1.6925576171875,0.0016195708885788918,-0.00046085380017757416,0.0003365958109498024
1783169516218626800,1.702626708984375,-0.0018953693797811866,-6.649643182754517e-7,0.0020480225794017315
1783169516228696600,1.712696533203125,0.0037840879522264004,-0.0003231735900044441,-0.001135519938543439
1783169516238765800,1.722765869140625,-0.0013483603252097964,-0.0004594950005412102,0.000029667047783732414
1783169516248834600,1.73283447265625,-0.0015587500529363751,-0.00021448452025651932,-0.002544278046116233
1783169516258904600,1.742904541015625,-0.002253207378089428,-0.0017054779455065727,-0.001131535740569234
1783169516268973600,1.7529736328125,-0.0008065782021731138,0.0005978895351290703,0.003939389251172543
1783169516279042800,1.763042724609375,0.0016724749002605677,0.00042439578101038933,0.0004575129132717848
1783169516289112600,1.773112548828125,0.00003969087265431881,-0.001367112621665001,0.0001256831455975771
1783169516299181800,1.783181884765625,-0.00008895550854504108,0.0014075543731451035,-0.0008895487990230322
1783169516309251800,1.793251953125,-0.0006373004289343953,-0.0006137844175100327,-0.0010085923131555319
1783169516319320600,1.803320556640625,-0.00002625584602355957,0.00016813771799206734,-0.00178235350176692
1783169516329389600,1.8133896484375,-0.0007509019924327731,-0.0015522642061114311,-0.0009144293144345284
1783169516339459600,1.82345947265625,-0.0014913964550942183,-0.0018771914765238762,0.0009433657396584749
1783169516349528800,1.83352880859375,-0.0018687662668526173,-0.0013123350217938423,-0.0006257689092308283
1783169516359597600,1.84359765625,0.0015732853207737207,0.0017612287774682045,0.0015913078095763922
1783169516369667800,1.853667724609375,0.000049424474127590656,0.0014389860443770885,0.0012118073645979166
1783169516379736600,1.863736572265625,-0.0009155605221167207,-0.00013086386024951935,0.0006246273405849934
1783169516389806800,1.873806884765625,0.0006815371452830732,0.0007389248348772526,0.00016816146671772003
1783169516399875600,1.88387548828125,-0.0017484738491475582,-0.0002533998340368271,-0.0003818143159151077
1783169516409944800,1.89394482421875,-0.002374849282205105,0.0009077386930584908,-0.002704357262700796
1783169516420014600,1.9040146484375,-0.0012577198212966323,-0.0009303642436861992,0.0002875099889934063
1783169516430083800,1.914083740234375,-0.000007099471986293793,-0.0003540562465786934,0.000777531648054719
1783169516440153600,1.924153564453125,0.000007053837180137634,0.0014199442230165005,-0.0014672251418232918
1783169516450222800,1.934222900390625,0.000624108302872628,-0.0011521363630890846,-0.0017292802222073078
1783169516460291600,1.94429150390625,0.00007051229476928711,-0.0031043244525790215,-0.00025980756618082523
1783169516470361600,1.954361572265625,0.00025347142945975065,0.0018859067931771278,-0.0010957738850265741
1783169516480430600,1.9644306640625,-0.00029019557405263186,-0.001905461773276329,-0.0007183216512203217
1783169516490499800,1.974499755859375,-0.00003080361057072878,0.0015047164633870125,0.0005213797558099031
1783169516500569600,1.984569580078125,0.0007286855252459645,-0.0007614288479089737,0.0001582882832735777
1783169516510638600,1.994638671875,-0.002113706199452281,0.0018141139298677444,-0.001003915211185813
1783169516520708600,2.00470849609375,-0.0025438754819333553,-0.0008441675454378128,0.00025172927416861057
1783169516530777600,2.014777587890625,-0.0002602149033918977,-0.00009368918836116791,0.0003332218620926142
1783169516540846600,2.0248466796875,0.0010411898838356137,0.00149597879499197,-0.0015076440759003162
1783169516550915300,2.034915283203125,-0.00018359790556132793,-0.00032082945108413696,0.0006844038143754005
1783169516560984000,2.044984130859375,0.00041582417907193303,-0.00016206316649913788,0.0006477974820882082
1783169516571054300,2.055054443359375,-0.0014478558441624045,-0.0020830007269978523,-0.0002835099585354328
1783169516581123000,2.065123046875,0.0004950378206558526,0.0019508716650307178,0.0021265242248773575
1783169516591192300,2.0751923828125,0.0009286004351451993,0.00009997468441724777,-0.0009773899801075459
1783169516601262000,2.085261962890625,-0.001304909586906433,-0.0010206112638115883,0.0030606139916926622
1783169516611331300,2.095331298828125,0.000010691932402551174,0.0007850113324820995,-0.0013826040085405111
1783169516621400000,2.105400146484375,-0.0013208253076300025,0.00003206823021173477,-0.00038638152182102203
1783169516631470000,2.115469970703125,-0.0002371850423514843,0.0009340806864202023,0.0004882004577666521
1783169516641539000,2.1255390625,-0.0013163334224373102,0.0010969657450914383,-0.0015735749620944262
1783169516651609000,2.135609130859375,0.0012312463950365782,0.0014884504489600658,0.0008200739976018667
1783169516661678000,2.145677978515625,-0.0013213285710662603,-0.0004584966227412224,-0.0003701623063534498
1783169516671747300,2.155747314453125,0.002579669700935483,-0.0007969839498400688,0.0010522319935262203
1783169516681817300,2.1658173828125,-0.0029584644362330437,-0.00040152575820684433,0.0017019278602674603
1783169516691886000,2.175885986328125,-0.000275862286798656,0.0020054387860000134,-0.0013234231155365705
1783169516701956400,2.185956298828125,-0.0008465803693979979,0.0016076923348009586,0.0032553737983107567
1783169516712025000,2.196025146484375,0.0016250994522124529,-0.002201959490776062,-0.00011965027078986168
1783169516722094000,2.206093994140625,0.0005346850957721472,0.0005688797682523727,-0.0011564563028514385
1783169516732164000,2.2161640625,0.0020446975249797106,-0.000530472956597805,0.000275258906185627
1783169516742233300,2.2262333984375,-0.000869236420840025,-0.0016270875930786133,-0.000325546832755208
1783169516752302000,2.236302001953125,-0.0019155924674123526,-0.0010300064459443092,0.0022792909294366837
1783169516762372400,2.246372314453125,-0.002865040674805641,-0.001137278974056244,0.0004177589435130358
1783169516772441000,2.256441162109375,-0.0002673935377970338,0.00041614286601543427,0.0001857976894825697
1783169516782511400,2.266511474609375,-0.0007723106537014246,-0.0010300930589437485,0.0011054696515202522
1783169516792580000,2.276580078125,-0.000004787696525454521,0.0012503713369369507,0.0005419447552412748
1783169516802649300,2.2866494140625,0.0007510212017223239,-0.00005282275378704071,-0.0005234652198851109
1783169516812719000,2.296718994140625,0.0006596747552976012,-0.000055752694606781006,-0.0011242744512856007
1783169516822788400,2.306788330078125,0.00012562796473503113,0.0008139763958752155,-0.0022549424320459366
1783169516832857000,2.316857177734375,-0.0006256498163565993,0.0009226333349943161,0.0020330133847892284
1783169516842927000,2.326927001953125,0.0005396390915848315,-0.0007204171270132065,0.0007492825388908386
1783169516852996000,2.33699609375,-0.001077165943570435,0.0030258512124419212,0.00036046095192432404
1783169516863066000,2.347066162109375,0.0018001740099862218,0.0009837504476308823,-0.0019776008557528257
1783169516873135000,2.357135009765625,0.000807347591035068,-0.0010623559355735779,-0.0010867735836654902
1783169516883204000,2.3672041015625,0.001625340897589922,-0.00032062828540802,-0.002156320959329605
1783169516893274000,2.377274169921875,0.0022466564550995827,0.00030095363035798073,-0.0004700073041021824
1783169516903343000,2.387343017578125,0.0005832182359881699,0.0007925434038043022,-0.0017955522052943707
1783169516913413400,2.397413330078125,-0.0015292010502889752,0.0005363472737371922,0.0005339148920029402
1783169516923482000,2.407482177734375,-0.003943708259612322,0.000341528095304966,0.0005845166742801666
1783169516933551000,2.417551025390625,-0.0007322026649489999,0.0003764154389500618,0.0014521745033562183
1783169516943621000,2.42762109375,-0.0006251430604606867,-0.002513522282242775,-0.001114891842007637
1783169516953690400,2.4376904296875,-0.00005416129715740681,-0.0005206791684031487,-0.0028131897561252117
1783169516963759000,2.447759033203125,0.0017940840916708112,-0.00029579829424619675,0.0019746520556509495
1783169516973829400,2.457829345703125,-0.0006264629773795605,0.0020379293709993362,-0.00012232083827257156
1783169516983898000,2.467898193359375,0.0015875269891694188,0.00001780083402991295,-0.0029015359468758106
1783169516993968000,2.477968017578125,0.001043709577061236,-0.002199547365307808,0.0012351523619145155
1783169517004037000,2.488037109375,-0.0008348118280991912,-0.001251865178346634,0.002282019704580307
1783169517014106400,2.4981064453125,-0.002309137489646673,0.0006083524785935879,-0.0007284176535904408
1783169517024176000,2.508176025390625,-0.0009591616690158844,0.0015322077088057995,-0.0007867917884141207
1783169517034245400,2.518245361328125,0.00040437676943838596,-0.0022217840887606144,-0.00041687884368002415
1783169517044315100,2.528315185546875,-0.002393425442278385,0.00044543156400322914,0.0009247891139239073
1783169517054384000,2.538384033203125,0.0008279341273009777,0.002707254607230425,-0.0030137598514556885
1783169517064453000,2.548453125,-0.0012601778144016862,0.0010928339324891567,-0.0001998420339077711
1783169517074523100,2.558523193359375,0.00027406925801187754,-0.0007958798669278622,0.0005929809994995594
1783169517084592000,2.568592041015625,0.0010458085453137755,0.0009361901320517063,-0.0008189037907868624
1783169517094661000,2.5786611328125,0.0018274462781846523,0.0014752140268683434,-0.00229243072681129
1783169517104731100,2.588731201171875,-0.0000018671853467822075,-0.0016533290036022663,-0.0009122379124164581
1783169517114800000,2.598800048828125,0.0015044166939333081,0.001736875157803297,0.0010872632265090942
1783169517124870100,2.6088701171875,0.0012854395899921656,-0.00013785623013973236,-0.000027953414246439934
1783169517134939100,2.618939208984375,0.0004276354447938502,0.000028591137379407883,0.0005699261091649532
1783169517145008000,2.629008056640625,0.0012613757280632854,0.00012219976633787155,0.0014703383203595877
1783169517155078100,2.639078125,-0.0012198914773762226,0.0008186162449419498,-0.003009631298482418
1783169517165147100,2.649147216796875,0.0001358449226245284,0.0010147513821721077,-0.0017163457814604044
1783169517175217200,2.659217041015625,-0.0003419262357056141,-0.0014057955704629421,0.004159386269748211
1783169517185286400,2.669286376953125,-0.0009546040091663599,0.000016289297491312027,-0.0019341926090419292
1783169517195355100,2.679355224609375,0.00040147750405594707,0.0007036509923636913,0.00034467410296201706
1783169517205425200,2.689425048828125,-0.0005808600690215826,0.00044069672003388405,0.001191901508718729
1783169517215494100,2.699494140625,0.0010535218752920628,0.00004761386662721634,0.0025983168743550777
1783169517225563400,2.7095634765625,0.0006728560547344387,0.000538678839802742,-0.0003940942697227001
1783169517235633200,2.719633056640625,-0.0007846921216696501,0.00029872823506593704,-0.0023669637739658356
1783169517245702100,2.7297021484375,-0.0009416297543793917,0.0005054669454693794,-0.0007976130582392216
1783169517255772200,2.739772216796875,0.0005153855890966952,-0.0002868236042559147,0.0016572889871895313
1783169517265841200,2.749841064453125,-0.0031294310465455055,-0.0015257983468472958,-0.0033235528971999884
1783169517275910100,2.75991015625,0.002685847692191601,-0.00010926323011517525,0.00010286993347108364
1783169517285980200,2.769980224609375,0.0002870993921533227,-0.0002964455634355545,-0.003361945506185293
1783169517296049200,2.780049072265625,-0.0009648527484387159,-0.00005063600838184357,0.0014602404553443193
1783169517306118100,2.7901181640625,-0.0023668743669986725,0.001502621453255415,-0.0011720459442585707
1783169517316188200,2.800188232421875,-0.0024683410301804543,0.000395012553781271,-0.0015720527153462172
1783169517326257200,2.810257080078125,-0.0007716399850323796,-0.0009731058962643147,-0.0032292213290929794
1783169517336327200,2.8203271484375,0.0008070817566476762,-0.0004926719702780247,-0.0011642063036561012
1783169517346396200,2.830396240234375,-0.00006838783156126738,-0.00029364367946982384,-0.0006997000891715288
1783169517356465200,2.840465087890625,0.0014474834315478802,0.001053649466484785,-0.0010626891162246466
1783169517366535200,2.85053515625,-0.0012928489595651627,0.001118833664804697,-0.0014545011799782515
1783169517376604200,2.860604248046875,-0.0004957648925483227,-0.0012077037245035172,-0.0020137650426477194
1783169517386674200,2.870674072265625,0.0005911955959163606,-0.001662347000092268,-0.0023821278009563684
1783169517396743200,2.8807431640625,0.0008471253677271307,0.0004466096870601177,0.0013662711717188358
1783169517406812200,2.890812255859375,-0.00008010945748537779,-0.0027428572066128254,0.0029091998003423214
1783169517416882200,2.900882080078125,0.00019659288227558136,-0.0007947548292577267,0.00017013843171298504
1783169517426951200,2.910951171875,0.001687727402895689,0.0024942955933511257,0.00163171230815351
1783169517437020200,2.921020263671875,-0.00046676979400217533,0.00011689169332385063,-0.0005006808787584305
1783169517447090200,2.931090087890625,-0.0007857100572437048,-0.0007966081611812115,-0.0006514543201774359
1783169517457159200,2.9411591796875,0.0000843447633087635,-0.002275461796671152,0.0005267278756946325
1783169517467229200,2.951229248046875,0.0004843191127292812,-0.00003417162224650383,-0.0000015802215784788132
1783169517477298200,2.961298095703125,-0.0010861470364034176,0.0017477497458457947,-0.0027904422022402287
1783169517487367200,2.9713671875,-0.00026740971952676773,-0.0003444468602538109,-0.001904201228171587
1783169517497437200,2.981437255859375,0.0004907922120764852,-0.00012606754899024963,-0.0010160370729863644
1783169517507506200,2.991506103515625,0.0006836507236585021,-0.0017774775624275208,-0.0008918435778468847
1783169517517575200,3.0015751953125,-0.0018436891259625554,-0.0016594994813203812,-0.0030404820572584867
1783169517527645200,3.011645263671875,-0.0003708244767040014,-0.00006311433389782906,0.0006915980484336615
1783169517537714200,3.021714111328125,0.002366905100643635,-0.00019227759912610054,0.00040264520794153214
1783169517547784200,3.0317841796875,0.00023086077999323606,0.000011774245649576187,-0.0007417420856654644
1783169517557852700,3.041852783203125,0.00014297652523964643,-0.001825008075684309,-0.0009393487125635147
1783169517567922000,3.051921875,0.0009348916355520487,-0.0011484799906611443,0.0010847689118236303
1783169517577991700,3.06199169921875,-0.0011293244315311313,-0.0030696839094161987,0.0005446798168122768
1783169517588061000,3.07206103515625,0.00026091246400028467,-0.0005088569596409798,0.0014662013854831457
1783169517598130700,3.082130615234375,-0.0006291159661486745,0.0011532222852110863,-0.004359463695436716
1783169517608200000,3.092199951171875,0.0007057502516545355,-0.0013879984617233276,-0.0016311092767864466
1783169517618268700,3.1022685546875,-0.001155000296421349,0.00024931272491812706,-0.000010309508070349693
1783169517628338700,3.112338623046875,0.0004016729653812945,0.0012732120230793953,0.001755029195919633
1783169517638407700,3.12240771484375,-0.0002350888680666685,0.002137141302227974,-0.00052650086581707
1783169517648477000,3.132476806640625,-0.0019917814061045647,-0.003312558401376009,0.0016711896751075983
1783169517658546700,3.142546630859375,-0.0022626249119639397,0.0011098873801529408,-0.0015738720539957285
1783169517668616000,3.152615966796875,0.0006906071212142706,-0.0011069108732044697,0.001510984031483531
1783169517678686000,3.16268603515625,0.0015465470496565104,0.0005799350328743458,-0.0010014420840889215
1783169517688754700,3.172754638671875,-0.0022423816844820976,-0.0019985963590443134,-0.0008843401446938515
1783169517698823700,3.18282373046875,-0.0012189287226647139,0.0008579106070101261,0.005524823442101479
1783169517708893700,3.192893798828125,0.0004349796799942851,0.0015805680304765701,0.0005467624869197607
1783169517718963000,3.202962890625,0.0004933028831146657,-0.001080462709069252,-0.0012937479186803102
1783169517729032700,3.21303271484375,0.0011745168594643474,0.0011488376185297966,0.0021752817556262016
1783169517739102000,3.22310205078125,-0.000718191615305841,-0.0011579925194382668,0.0009382434654980898
1783169517749170700,3.233170654296875,-0.0023436816409230232,-0.001136446837335825,-0.00018681632354855537
1783169517759241000,3.243240966796875,-0.0009841377614066005,0.00047636358067393303,0.0020531686022877693
1783169517769309700,3.253309814453125,-0.003474926110357046,-0.0007470687851309776,0.0026817587204277515
1783169517779379000,3.26337890625,0.0007637611124664545,-0.0000828765332698822,-0.002159867901355028
1783169517789448700,3.27344873046875,0.0013319117715582252,-0.00009096087887883186,0.0003774340730160475
1783169517799518000,3.28351806640625,-0.0006521431496366858,-0.001095504965633154,-0.002649781061336398
1783169517809587700,3.293587646484375,-0.000115056405775249,0.001672336831688881,-0.0017867162823677063
1783169517819657000,3.303656982421875,0.00023488292936235666,0.00034341961145401,0.0007443521171808243
1783169517829725700,3.3137255859375,0.0006408309563994408,-0.00008481321856379509,0.0010509598068892956
1783169517839795700,3.323795654296875,0.0014666772913187742,0.0009812507778406143,-0.003005034290254116
1783169517849864700,3.33386474609375,0.00015520269516855478,-0.0011440073139965534,0.000038874801248311996
1783169517859934700,3.343934814453125,0.002393323229625821,0.001095977146178484,-0.0010697990655899048
1783169517870003700,3.354003662109375,-0.0002822858514264226,0.0015758313238620758,-0.00008941302075982094
1783169517880073000,3.364072998046875,-0.001362996525131166,-0.0014987881295382977,-0.00026145298033952713
1783169517890143000,3.37414306640625,-0.0009888582862913609,0.0019972152076661587,-0.0002715885639190674
1783169517900211700,3.384211669921875,-0.00007885613013058901,0.0007441979832947254,0.002650431590154767
1783169517910280700,3.39428076171875,-0.001434266334399581,-0.0027444446459412575,0.002028981689363718
1783169517920350700,3.404350830078125,-0.00046247884165495634,-0.001132965087890625,-0.00024695578031241894
1783169517930420000,3.414419921875,0.0016389357624575496,-0.00004721060395240784,-0.0007820564787834883
1783169517940489700,3.42448974609375,0.0006972419796511531,0.0001394771970808506,-0.0016097670886665583
1783169517950559000,3.43455908203125,0.00008252577390521765,0.0005003628320991993,-0.002115362323820591
1783169517960627700,3.444627685546875,-0.0011878021759912372,-0.00209728442132473,-0.002126813866198063
1783169517970698000,3.454697998046875,-0.0006307141156867146,0.00033696694299578667,0.001250527799129486
1783169517980766700,3.4647666015625,-0.00043896655552089214,-0.00010192207992076874,0.0007253524381667376
1783169517990836700,3.474836669921875,0.0014184340834617615,-0.0008736546151340008,0.0009110174141824245
1783169518000905700,3.48490576171875,-0.0018987993244081736,-0.0011820490472018719,0.0007440373301506042
1783169518010975000,3.49497509765625,0.0017977154348045588,0.00044554658234119415,-0.0021696854382753372
1783169518021044700,3.505044677734375,-0.0006438706768676639,-0.000374441035091877,0.0005960073322057724
1783169518031114000,3.515114013671875,0.0002556146355345845,-0.00031518982723355293,0.000100680161267519
1783169518041182700,3.5251826171875,-0.0008256288710981607,-0.0010957629419863224,0.0010562222450971603
1783169518051252700,3.535252685546875,-0.00025554688181728125,-0.001621238887310028,-0.0006075811106711626
1783169518061321700,3.54532177734375,-0.0008821887895464897,-0.000043315812945365906,0.0040580108761787415
1783169518071391700,3.555391845703125,0.00013646355364471674,-0.001008414663374424,-0.004286818206310272
1783169518081460700,3.565460693359375,0.0006408662884496152,0.000966319814324379,0.0010642714332789183
1783169518091529700,3.57552978515625,-0.0007033477304503322,-0.0008865185081958771,0.0015985635109245777
1783169518101599700,3.585599853515625,-0.0004700548015534878,0.0006027212366461754,-0.0021708745043724775
1783169518111668700,3.595668701171875,-0.0020695431157946587,-0.001119432970881462,-0.002370263449847698
1783169518121737700,3.60573779296875,-0.000001598498784005642,-0.0011812178418040276,0.000407147454097867
1783169518131807700,3.615807861328125,-0.0007320439908653498,0.0014160112477838993,-0.002777380868792534
1783169518141876700,3.625876708984375,0.0003902120515704155,0.0008029513992369175,-0.00007587019354104996
1783169518151946800,3.63594677734375,-0.00012333702761679888,-0.0009398809634149075,-0.0011508041061460972
1783169518162016000,3.64601611328125,-0.002544682938605547,0.00196376396343112,-0.00018034805543720722
1783169518172084700,3.656084716796875,0.003819128032773733,-0.0018698540516197681,0.0012534752022475004
1783169518182155000,3.666155029296875,-0.002330909948796034,0.0017445883713662624,0.001079570734873414
1783169518192223700,3.6762236328125,-0.0011195290135219693,0.0019628438167274,0.00019853422418236732
1783169518202293800,3.686293701171875,-0.00022603850811719894,0.0011790753342211246,-0.0015588854439556599
1783169518212362800,3.69636279296875,0.0019476055167615414,0.0018832692876458168,0.0018034374807029963
1783169518222432000,3.706431884765625,-0.0014825458638370037,0.0007463656365871429,-0.0013883612118661404
1783169518232501800,3.716501708984375,-0.002269054763019085,-0.0006166514940559864,0.00021326635032892227
1783169518242570800,3.72657080078125,-0.0011396080954000354,0.0007258476689457893,-0.00045811664313077927
1783169518252639700,3.7366396484375,-0.0006051603704690933,0.0004096599295735359,-0.00028456002473831177
1783169518262709800,3.746709716796875,0.0001535741612315178,-0.002892926335334778,0.004242813680320978
1783169518272778800,3.75677880859375,0.002385013969615102,0.00013436423614621162,-0.0005963793955743313
1783169518282848800,3.766848876953125,0.003587431274354458,0.0016310610808432102,-0.003090962301939726
1783169518292917800,3.776917724609375,-0.004282670095562935,-0.0006387634202837944,0.0019074853044003248
1783169518302986800,3.78698681640625,0.00028758030384778976,0.0018028225749731064,-0.0005072029307484627
1783169518313056800,3.797056884765625,0.0012330194003880024,0.0017581814900040627,-0.001731440657749772
1783169518323125800,3.807125732421875,-0.00011134438682347536,-0.00029058847576379776,0.0013868547976016998
1783169518333195800,3.81719580078125,-0.0007893943693488836,-0.0007039150223135948,0.0015438755508512259
1783169518343264800,3.8272646484375,0.001916377106681466,-0.001525234431028366,0.0013167078141123056
1783169518353333800,3.837333740234375,0.0008029325399547815,-0.0008195778355002403,-0.00013413699343800545
1783169518363403800,3.84740380859375,-0.00024342339020222425,-0.0005157114937901497,-0.003295575501397252
1783169518373472800,3.85747265625,0.0006711786845698953,0.0024790330789983273,0.0006131739355623722
1783169518383541800,3.867541748046875,-0.0008835747139528394,0.00007339939475059509,0.0008898763917386532
1783169518393612000,3.877612060546875,0.00013485399540513754,-0.0009726397693157196,0.0011770687997341156
1783169518403680800,3.8876806640625,-0.0008925935253500938,-0.0001366734504699707,-0.0010661117266863585
1783169518413750800,3.897750732421875,0.0014927793527022004,0.0020371433347463608,-0.0011430850718170404
1783169518423819800,3.90781982421875,-0.0012042038142681122,0.0017974586226046085,-0.0012016745749861002
1783169518433889000,3.917888916015625,0.0023899865336716175,0.0009428076446056366,-0.0005531141068786383
1783169518443958800,3.927958740234375,0.00034174928441643715,-0.0011192779056727886,-0.0007829449605196714
1783169518454027800,3.93802783203125,0.0007098840433172882,0.00041818665340542793,0.00027932156808674335
1783169518464096800,3.9480966796875,-0.0010142464889213443,-0.000987430103123188,0.002931563649326563
1783169518474166800,3.958166748046875,0.00001535029150545597,0.001443405169993639,-0.0003633189480751753
1783169518484235800,3.96823583984375,0.0016744995955377817,-0.0011987164616584778,0.0009224549867212772
1783169518494305800,3.978305908203125,0.00009852158837020397,-0.002768421545624733,0.000013862969353795052
1783169518504374800,3.988374755859375,-0.0013867233647033572,0.0008414932526648045,-0.0005877451039850712
1783169518514443800,3.99844384765625,0.0008395760087296367,-0.0007468410767614841,0.000966652063652873
1783169518524513800,4.008513671875,-0.0000475229462608695,0.0003594360314309597,-0.000028571346774697304
1783169518534582800,4.018582763671875,-0.0002809214638546109,-0.0008109500631690025,-0.0010646581649780273
1783169518544652800,4.02865283203125,0.000500982569064945,0.00019306130707263947,-0.0002752975560724735
1783169518554721800,4.0387216796875,0.0018862861907109618,-0.0020697182044386864,0.0007233901415020227
1783169518564790800,4.048790771484375,-0.0006860611028969288,-0.0014553265646100044,0.0008930335752665997
1783169518574860800,4.05886083984375,0.00006812077481299639,-0.00048518693074584007,-0.001655695727095008
1783169518584929800,4.0689296875,-0.0012030060170218349,0.0012613143771886826,0.0013611330650746822
1783169518594998800,4.078998779296875,-0.0006244749529287219,0.0002758437767624855,-0.000821742694824934
1783169518605068800,4.08906884765625,0.00023759016767144203,0.0005139303393661976,-0.00005741557106375694
1783169518615137800,4.0991376953125,0.0007229276816360652,-0.00038262316957116127,-0.0008600400760769844
1783169518625207600,4.10920751953125,-0.00008241226896643639,0.0003177877515554428,0.0017522546695545316
1783169518635276800,4.11927685546875,-0.0011957036331295967,0.0012363241985440254,0.0038963565602898598
1783169518645345800,4.129345703125,0.00048208778025582433,-0.001766655594110489,-0.00009598815813660622
1783169518655415800,4.139415771484375,0.0017658249707892537,-0.0018641301430761814,0.0008856868371367455
1783169518665484500,4.149484619140625,0.0003253211034461856,-0.001207128632813692,-0.0007510918658226728
1783169518675554800,4.159554931640625,-0.000912289135158062,-0.001193201169371605,0.0007729155477136374
1783169518685623600,4.16962353515625,0.0006344748544506729,0.00008325139060616493,-0.001408746000379324
1783169518695692800,4.17969287109375,-0.001102898269891739,0.0009202645160257816,0.004047743044793606
1783169518705762800,4.1897626953125,-0.0005811851006001234,0.0015341229736804962,0.0004066694527864456
1783169518715831800,4.199831787109375,0.0011902378173545003,0.00020376918837428093,0.004143727943301201
1783169518725900500,4.209900634765625,-0.001110733370296657,0.0007766149938106537,0.0010874844156205654
1783169518735970800,4.219970703125,-0.0006944203050807118,0.00007313862442970276,0.0016196472570300102
1783169518746039800,4.230039794921875,0.0007990804151631892,0.0016779596917331219,-0.0002224612981081009
1783169518756109800,4.24010986328125,-0.001158006489276886,-0.0003331066109240055,-0.000494146253913641
1783169518766178800,4.2501787109375,-0.002769218757748604,0.00045758625492453575,-0.0011050752364099026
1783169518776247800,4.260247802734375,-0.00006259651854634285,0.00025523221120238304,0.0025808962527662516
1783169518786317800,4.27031787109375,-0.00046846235636621714,0.00009437743574380875,-0.000479608541354537
1783169518796386800,4.28038671875,-0.0012168582761660218,-0.00003183167427778244,0.001582146855071187
1783169518806455800,4.290455810546875,0.0019286011811345816,-0.0009540840983390808,-0.0005041735712438822
1783169518816525800,4.30052587890625,0.0018091052770614624,0.00026157451793551445,0.0003607457038015127
1783169518826594800,4.3105947265625,-0.0002292782301083207,-0.0002489537000656128,0.0016840705648064613
1783169518836664600,4.32066455078125,0.00011290435213595629,-0.0014636334963142872,0.00022652046754956245
1783169518846733800,4.33073388671875,0.002382716629654169,0.0033830530010163784,-0.0021173276472836733
1783169518856802800,4.340802734375,-0.0003331920597702265,-0.0001841639168560505,-0.002114045899361372
1783169518866872800,4.350872802734375,0.000188521109521389,-0.0001069321297109127,-0.001297520473599434
1783169518876941600,4.360941650390625,0.0003611069405451417,0.0008724313229322433,0.0004613366909325123
1783169518887011800,4.37101171875,0.0018958866130560637,0.0014162487350404263,0.0013425766956061125
1783169518897080600,4.38108056640625,-0.0012079656589776278,-0.0016369204968214035,-0.004266361705958843
1783169518907149800,4.39114990234375,-0.0012218141928315163,0.0005237017758190632,0.0027398820966482162
1783169518917219800,4.4012197265625,0.001599790877662599,-0.0009020073339343071,-0.002428358420729637
1783169518927288800,4.411288818359375,-0.0009019826538860798,-0.0018588807433843613,-0.0001303164754062891
1783169518937357600,4.421357666015625,0.0009726433781906962,-0.0011612409725785255,-0.002130920998752117
1783169518947427800,4.431427734375,-0.00027877604588866234,0.0012308103032410145,-0.0016648676246404648
1783169518957496600,4.44149658203125,-0.0001198349054902792,-0.0012562759220600128,0.0018960939487442374
1783169518967566800,4.45156689453125,0.0008351746364496648,0.0027152961120009422,-0.0037287685554474592
1783169518977635800,4.4616357421875,-0.00022116350010037422,0.0005427594296634197,-0.0006571575067937374
1783169518987704800,4.471704833984375,0.0005596752744168043,0.001886857207864523,0.0020062699913978577
1783169518997774800,4.48177490234375,-0.0005529939662665129,-0.0018273410387337208,0.0024654041044414043
1783169519007843800,4.49184375,0.0012467702617868781,0.0004592486657202244,0.00023314263671636581
1783169519017912800,4.501912841796875,-0.0006072286050766706,-0.002608789596706629,0.002600674284622073
1783169519027982600,4.511982666015625,-0.001446923241019249,-0.00044443877413868904,0.0014358076732605696
1783169519038051800,4.5220517578125,0.00023307651281356812,-0.0029459423385560513,-0.00017533614300191402
1783169519048121600,4.53212158203125,0.00023067963775247335,0.00035531213507056236,-0.0013055817689746618
1783169519058190800,4.54219091796875,0.0007949398132041097,0.0008722636848688126,-0.00023780809715390205
1783169519068259800,4.552259765625,0.0016205196734517813,0.0008163372986018658,0.0025489237159490585
1783169519078329900,4.562329833984375,0.00033815845381468534,-0.0005881465040147305,-0.0002595004625618458
1783169519088398600,4.572398681640625,-0.00025625911075621843,0.001970885321497917,-0.0011061192490160465
1783169519098468900,4.58246875,0.0012119326274842024,-0.0016614464111626148,-0.00026138313114643097
1783169519108537600,4.59253759765625,0.0007509393617510796,-0.0007639615796506405,0.0004653935320675373
1783169519118606800,4.60260693359375,0.0019312941003590822,-0.0016338769346475601,0.000008145580068230629
1783169519128676600,4.612676513671875,0.0017390139400959015,0.0022351634688675404,-0.0005966583266854286
1783169519138745900,4.622745849609375,0.001773111755028367,0.000857427716255188,0.000897715101018548
1783169519148816000,4.63281591796875,0.001588288345374167,0.0023820875212550163,0.0002865197602659464
1783169519158884900,4.642884765625,-0.0010732915252447128,0.0017164619639515877,-0.0004725600592792034
1783169519168953600,4.65295361328125,0.0006441810983233154,-0.0006478922441601753,-0.0032811295241117477
1783169519179023600,4.663023681640625,0.0007860385812819004,-0.0016439985483884811,-0.0016771017108112574
1783169519189092900,4.6730927734375,0.0012204000959172845,-0.00010549090802669525,0.00013011926785111427
1783169519199161900,4.683161865234375,0.000376002280972898,-0.0001313718967139721,-0.0012003397569060326
1783169519209232000,4.69323193359375,0.0013927972177043557,0.00015039043501019478,0.0008849154692143202
1783169519219300900,4.70330078125,-0.0008020506938919425,0.0008697914890944958,0.0001750192604959011
1783169519229371000,4.713370849609375,0.0003942411858588457,-0.0015662014484405518,-0.0003419003915041685
1783169519239439600,4.723439697265625,-0.0017791229765862226,-0.00011607212945818901,-0.0014688917435705662
1783169519249508900,4.7335087890625,0.0007929580751806498,-0.00042899372056126595,-0.00021401047706604004
1783169519259578600,4.74357861328125,-0.0011450637830421329,0.002733721863478422,-0.0010525044053792953
1783169519269648000,4.75364794921875,0.00011487782467156649,-0.0010887132957577705,-0.0010647550225257874
1783169519279716600,4.763716552734375,0.0027024480514228344,0.0006022169254720211,-0.0020310920663177967
1783169519289787000,4.773786865234375,0.0006219865754246712,-0.003385866992175579,0.002662995597347617
1783169519299855600,4.783855712890625,0.0007960860966704786,0.000548963900655508,0.001194304320961237
1783169519309926000,4.79392578125,0.002133259316906333,0.0005859821103513241,-0.001891766907647252
1783169519319994600,4.80399462890625,0.001820604084059596,0.0004648081958293915,-0.001935709035024047
1783169519330064000,4.81406396484375,0.0023287353105843067,0.0008216719143092632,0.003068370744585991
1783169519340133600,4.824133544921875,0.00018844334408640862,-0.0018360400572419167,0.0005902089178562164
1783169519350203000,4.834202880859375,0.0012491804081946611,0.002818366512656212,-0.0006718633230775595
1783169519360272600,4.844272705078125,0.0018307669088244438,0.0026819086633622646,-0.0017229197546839714
1783169519370342000,4.854341796875,-0.00021134503185749054,-0.00036661140620708466,0.0006560818292200565
1783169519380410600,4.86441064453125,-0.0002357920166105032,-0.0028799818828701973,0.003133104182779789
1783169519390480600,4.874480712890625,-0.0013740271097049117,-0.0007664980366826057,0.0011935238726437092
1783169519400549600,4.884549560546875,-0.0013882972998544574,-0.0007625119760632515,0.00007912004366517067
1783169519410619000,4.894618896484375,0.00006712030153721571,-0.00022268947213888168,-0.002397619653493166
1783169519420689000,4.90468896484375,0.0003966700751334429,-0.0002178894355893135,-0.0024687559343874454
1783169519430758000,4.9147578125,-0.00019508437253534794,-0.0009175017476081848,-0.0019044321961700916
1783169519440828000,4.924827880859375,0.001240644953213632,-0.00015197508037090302,-0.0008549301419407129
1783169519450896600,4.934896728515625,-0.0007844228530302644,0.0012310044839978218,-0.0004788918886333704
1783169519460966000,4.9449658203125,0.0029086987487971783,-0.001271560788154602,-0.002048058435320854
1783169519471035600,4.95503564453125,0.0028469134122133255,-0.00024145003408193588,-0.0014701522886753082
1783169519481105000,4.96510498046875,-0.0006371079944074154,-0.0005242461338639259,-0.001270453678444028
1783169519491173600,4.975173583984375,0.00008514127694070339,-0.0007016127929091454,-0.0037003217730671167
1783169519501244000,4.985243896484375,-0.0012106179492548108,-0.0004806807264685631,0.0013512263540178537
1783169519511312600,4.995312744140625,0.0016948907868936658,0.00023251399397850037,0.0006369666662067175
1783169519521383000,5.0053828125,0.0013002045452594757,0.00048091448843479156,-0.000350648770108819
1783169519531451600,5.01545166015625,0.0006213647429831326,0.0007616118527948856,-0.003578133648261428
1783169519541521000,5.02552099609375,0.0008775463211350143,-0.0015263278037309647,-0.000022709369659423828
1783169519551590700,5.035590576171875,-0.000024999026209115982,-0.0011905031278729439,0.0009978138841688633
1783169519561660400,5.045660400390625,-0.0016600688686594367,-0.002475758083164692,0.0012603893410414457
1783169519571730700,5.055730712890625,-0.0029216082766652107,-0.0007686717435717583,0.0031222053803503513
1783169519581799400,5.06579931640625,-0.0008238861337304115,-0.001059550791978836,-0.0012010394129902124
1783169519591868700,5.07586865234375,-0.0012161696795374155,0.0003764261491596699,0.0008272242266684771
1783169519601938400,5.0859384765625,-0.00006828794721513987,0.0020551453344523907,-0.0005948408506810665
1783169519612007700,5.096007568359375,0.0005466358852572739,-0.0004564817063510418,-0.001800986472517252
1783169519622076400,5.106076416015625,-0.0014637100975960493,0.0008407398127019405,0.00020246393978595734
1783169519632146700,5.116146728515625,0.0023800302296876907,0.0025480925105512142,0.0007862290367484093
1783169519642215400,5.12621533203125,0.0007328796200454235,0.0000299159437417984,-0.00024228240363299847
1783169519652285700,5.13628564453125,-0.00006420444697141647,0.0005763964727520943,-0.0011387027334421873
1783169519662354400,5.1463544921875,-0.0015550879761576653,-0.0008500814437866211,0.0016528209671378136
1783169519672423700,5.156423583984375,-0.00145628466270864,-0.0012466264888644218,-0.0018391157500445843
1783169519682493400,5.166493408203125,-0.0009299374651163816,0.0015746071003377438,0.0019409599481150508
1783169519692562700,5.176562744140625,-0.00010542292147874832,-0.0015317043289542198,-0.00006200349889695644
1783169519702631400,5.18663134765625,0.0009715886553749442,-0.000704597681760788,-0.001031521474942565
1783169519712701400,5.196701416015625,0.0001356223365291953,-0.0020750602707266808,0.0011237750295549631
1783169519722770400,5.2067705078125,-0.0008197698043659329,0.000509975478053093,-0.000649177934974432
1783169519732840400,5.21684033203125,-0.001569449552334845,0.0016431505791842937,-0.00045929476618766785
1783169519742909700,5.22690966796875,-0.0012725903652608395,-0.0008980622515082359,0.0027499343268573284
1783169519752978700,5.236978759765625,-0.001960751134902239,-0.0011715693399310112,0.0009472405072301626
1783169519763048700,5.247048583984375,-0.00224061100743711,0.0021965745836496353,-0.0016603909898549318
1783169519773117400,5.257117431640625,0.0007890009437687695,-0.0011427630670368671,-0.002443893114104867
1783169519783187700,5.267187744140625,0.0010705138556659222,0.002417700830847025,-0.0003110067918896675
1783169519793256400,5.27725634765625,0.0006278964574448764,-0.00034239981323480606,0.00017981394194066525
1783169519803325700,5.28732568359375,0.00042429042514413595,0.0008057644590735435,-0.000014973338693380356
1783169519813395500,5.2973955078125,-0.000720602460205555,-0.00031729042530059814,0.002279872540384531
1783169519823464700,5.307464599609375,-0.00044303631875663996,-0.0023161647841334343,0.00048444420099258423
1783169519833533400,5.317533447265625,-0.0013628921005874872,-0.0009105484932661057,-0.0021579444874078035
1783169519843603700,5.327603759765625,-0.000054995063692331314,-0.001221043523401022,-0.0007307424675673246
1783169519853672400,5.33767236328125,0.0009026775951497257,-0.002164867240935564,0.000020535429939627647
1783169519863742500,5.347742431640625,0.0006511805113404989,0.0007943217642605305,-0.0038605662994086742
1783169519873811500,5.3578115234375,-0.0020005288533866405,-0.0009404611773788929,0.0004399060271680355
1783169519883880700,5.367880615234375,-0.00023662007879465818,-0.00020808586850762367,-0.000339641934260726
1783169519893950500,5.377950439453125,0.000811600184533745,-0.00019476981833577156,-0.0020797511097043753
1783169519904019700,5.388019775390625,-0.0001593126216903329,-0.00013475771993398666,-0.00003505265340209007
1783169519914089500,5.39808935546875,-0.0002498599933460355,0.000058321282267570496,0.0018704390386119485
1783169519924158500,5.408158447265625,-0.00022343348246067762,0.0007196590304374695,-0.001386546529829502
1783169519934227500,5.4182275390625,0.001432520104572177,-0.00014427024871110916,-0.0009082425385713577
1783169519944297500,5.42829736328125,0.0006477100541815162,-0.0005629002116620541,-0.0022181211970746517
1783169519954366500,5.438366455078125,0.000599506834987551,0.00013990839943289757,0.00016860361211001873
1783169519964435500,5.448435546875,0.0017428436549380422,-0.00032050302252173424,-0.0007555366028100252
1783169519974505700,5.458505615234375,0.0005617316928692162,0.002746126614511013,-0.0017129427287727594
1783169519984574500,5.468574462890625,0.0008080407860688865,0.0005750278942286968,0.0025323492009192705
1783169519994644700,5.478644775390625,0.0024956860579550266,-0.0004742573946714401,0.002033805474638939
1783169520004713500,5.48871337890625,0.0004638171521946788,-0.0008878894150257111,-0.00221794075332582
1783169520014782700,5.49878271484375,0.0023349542170763016,0.00033103907480835915,0.00038876128382980824
1783169520024852500,5.5088525390625,0.0009980043396353722,-0.000005468260496854782,-0.0006415625102818012
1783169520034921700,5.518921630859375,0.0005031891050748527,0.0006728386506438255,0.0009265067055821419
1783169520044990500,5.528990478515625,0.0005409106379374862,-0.0016819671727716923,0.0012801107950508595
1783169520055060700,5.539060791015625,-0.0016892203129827976,-0.0023285825736820698,0.0006532026454806328
1783169520065129500,5.54912939453125,-0.000051803188398480415,0.0014697848819196224,-0.00012483331374824047
1783169520075199500,5.559199462890625,0.00012050336226820946,-0.0006530210375785828,0.0014072833582758904
1783169520085268500,5.5692685546875,0.0015414218651130795,-0.00017516780644655228,0.004037173930555582
1783169520095337700,5.579337646484375,-0.0010415781289339066,-0.0008036736398935318,-0.0011043250560760498
1783169520105407500,5.589407470703125,0.0002128732157871127,0.003975244704633951,-0.001912304200232029
1783169520115476700,5.599476806640625,-0.0005296161398291588,-0.0010759728029370308,0.0005319451447576284
1783169520125546500,5.60954638671875,-0.0008469795575365424,-0.0017435690388083458,-0.0018563298508524895
1783169520135615500,5.619615478515625,-0.0008869267767295241,-0.0020309239625930786,-0.0010145045816898346
1783169520145684500,5.6296845703125,0.0007415870204567909,0.0012902813032269478,-0.0009382152929902077
1783169520155754500,5.63975439453125,0.000497907807584852,0.0007366100326180458,0.0008050897158682346
1783169520165823500,5.649823486328125,-0.0010837892768904567,-0.0008629914373159409,0.002978055039420724
1783169520175892500,5.659892578125,-0.002275820355862379,-0.0018973629921674728,0.0006541807670146227
1783169520185962500,5.66996240234375,0.0009248534915968776,-0.0001720525324344635,-0.0011366130784153938
1783169520196031500,5.680031494140625,0.000598882616031915,-0.0006708623841404915,-0.002782979514449835
1783169520206101800,5.690101806640625,-0.0020711745601147413,-0.0022209049202501774,-0.001651568105444312
1783169520216170500,5.70017041015625,0.0005789370043203235,-0.0005383198149502277,0.0028334613889455795
1783169520226239500,5.710239501953125,-0.0006926476489752531,-0.0007288530468940735,-0.0013096581678837538
1783169520236309500,5.7203095703125,0.00044239149428904057,-0.00003270339220762253,-0.0007341487798839808
1783169520246378800,5.730378662109375,0.002248534467071295,-0.0020981645211577415,0.0023371276911348104
1783169520256447500,5.740447509765625,0.0014024480478838086,0.0015394468791782856,0.0014311203267425299
1783169520266517800,5.750517822265625,0.0006610837299376726,0.0013608261942863464,0.0007085565011948347
1783169520276586500,5.76058642578125,0.00004269776400178671,0.0014204811304807663,-0.0007276860997080803
1783169520286656500,5.770656494140625,0.000741128227673471,-0.001151153352111578,0.0011814241297543049
1783169520296725500,5.7807255859375,-0.00017686339560896158,0.0006824331358075142,-0.00031900079920887947
1783169520306794800,5.790794677734375,0.0005722403293475509,-0.0007577515207231045,-0.0012596303131431341
1783169520316864500,5.800864501953125,0.0011701199691742659,-0.00241450360044837,0.0015931478701531887
1783169520326933500,5.81093359375,-0.0005786980036646128,0.0002407655119895935,0.00015463121235370636
1783169520337003500,5.82100341796875,0.003472502576187253,-0.002014665398746729,0.0027293753810226917
1783169520347072500,5.831072509765625,-0.0029686205089092255,-0.004079574253410101,-0.0014644800685346127
1783169520357141500,5.8411416015625,-0.0001584530109539628,-0.0006819139234721661,0.002086312510073185
1783169520367211500,5.85121142578125,-0.0002666942309588194,-0.00019470136612653732,0.0025281179696321487
1783169520377280500,5.861280517578125,0.00030854856595396996,-0.0010988442227244377,0.00032488489523530006
1783169520387349500,5.871349609375,0.0014140697894617915,0.0010413606651127338,-0.0014645613264292479
1783169520397419500,5.88141943359375,0.0006782384007237852,-0.0018321899697184563,-0.0005167422350496054
1783169520407488500,5.891488525390625,0.0010736758122220635,0.0017121308483183384,-0.000613698735833168
1783169520417558800,5.901558837890625,-0.0021285091061145067,0.0013890895061194897,-0.0011157048866152763
1783169520427627500,5.91162744140625,-0.0009100966854020953,-0.0023700566962361336,-0.00005528260953724384
1783169520437696500,5.921696533203125,-0.004082454368472099,-0.0017607249319553375,0.0008208972867578268
1783169520447766500,5.9317666015625,0.00034784607123583555,-0.0011141924187541008,0.001388787291944027
1783169520457835500,5.94183544921875,0.0017249666852876544,-0.0011975495144724846,-0.000048254383727908134
1783169520467904500,5.951904541015625,0.0001913148444145918,-0.00018613599240779877,0.00034743500873446465
1783169520477974500,5.961974609375,-0.0010387992952018976,-0.0015121232718229294,-0.0020621931180357933
1783169520488043500,5.97204345703125,0.0036759681534022093,0.0016330811195075512,-0.00022634025663137436
1783169520498113500,5.982113525390625,0.0014940403634682298,0.0009361319243907928,0.0001427740789949894
1783169520508182500,5.9921826171875,0.0005264059873297811,-0.0023169666528701782,0.002793886698782444
1783169520518251800,6.002251708984375,0.000071005430072546,-0.0001784488558769226,-0.00031615281477570534
1783169520528321500,6.012321533203125,0.00011303066276013851,-0.00014494732022285461,0.0006022886373102665
1783169520538390500,6.022390625,0.0013087899424135685,-0.0009979577735066414,-0.0014408885035663843
1783169520548460500,6.03246044921875,0.0016352818347513676,-0.0001405123621225357,-0.0033267291728407145
1783169520558529300,6.042529296875,-0.0006766082951799035,-0.003246556967496872,-0.00011149467900395393
1783169520568598300,6.052598388671875,0.00040699413511902094,0.0006784219294786453,-0.0005560843273997307
1783169520578668300,6.062668212890625,-0.0005690543912351131,-0.00019988883286714554,0.0030948433559387922
1783169520588737300,6.0727373046875,0.00013772875536233187,0.0005619595758616924,-0.0013596697244793177
1783169520598806300,6.08280615234375,-0.0009278018260374665,-0.0012417994439601898,0.0015482357703149319
1783169520608876300,6.092876220703125,-0.0010064138332381845,0.0003056684508919716,0.0002956134267151356
1783169520618945300,6.1029453125,-0.0006522134644910693,0.00125828105956316,0.0019726059399545193
1783169520629015300,6.113015380859375,0.0016216860385611653,0.000603820662945509,0.0012552523985505104
1783169520639084300,6.123084228515625,0.0008437766809947789,-0.0013173837214708328,-0.001128809293732047
1783169520649153300,6.1331533203125,-0.0009873583912849426,-0.000715058296918869,0.002949707442894578
1783169520659223300,6.143223388671875,0.00323321926407516,0.0018727355636656284,-0.0007409011013805866
1783169520669292300,6.153292236328125,-0.00003611436113715172,-0.00027927570044994354,0.0025540399365127087
1783169520679361300,6.163361328125,0.00015350268222391605,-0.0015991386026144028,-0.0023581604473292828
1783169520689431300,6.173431396484375,0.0023195610847324133,0.002949973102658987,0.0005745217204093933
1783169520699500300,6.183500244140625,-0.002417936222627759,-0.0011654095724225044,-0.0007900819182395935
1783169520709570300,6.1935703125,0.0021600662730634212,0.00038241781294345856,-0.001428383868187666
1783169520719639300,6.203639404296875,0.001450866460800171,0.0005336855538189411,0.0014534227084368467
1783169520729708300,6.213708251953125,0.0008138019475154579,-0.0006418162956833839,0.00035902694799005985
1783169520739778300,6.2237783203125,0.0021461814176291227,0.0019398522563278675,-0.001200254075229168
1783169520749847300,6.233847412109375,-0.000685771694406867,-0.0017250161617994308,-0.0022451907861977816
1783169520759916300,6.243916259765625,0.0018002891447395086,0.0003309445455670357,-0.0008584826719015837
1783169520769986300,6.253986328125,0.0018027947517111897,-0.0009187562391161919,0.0008644049521535635
1783169520780055300,6.26405517578125,0.0010147654684260488,-0.0014180988073349,0.001647374127060175
1783169520790125300,6.274125244140625,0.00032306858338415623,-0.00008672475814819336,-0.00036979373544454575
1783169520800194300,6.2841943359375,0.0027998085133731365,0.00004430301487445831,0.004031079821288586
1783169520810263300,6.29426318359375,-0.0009485528571531177,-0.0007744794711470604,-0.0020409985445439816
1783169520820333300,6.304333251953125,-0.002344581764191389,0.00024018483236432076,0.0008205678313970566
1783169520830402300,6.31440234375,0.001790929469279945,-0.00099283829331398,-0.0030544991604983807
1783169520840472300,6.324472412109375,-0.0013063267106190324,0.0010937484912574291,0.0006595449522137642
1783169520850541300,6.334541259765625,-0.0022671022452414036,-0.0027323225513100624,0.00006251409649848938
1783169520860610300,6.3446103515625,-0.0019046460511162877,-0.0010627871379256248,0.00015998585149645805
1783169520870680300,6.354680419921875,-0.0009511288953945041,0.000004759989678859711,-0.0001920647919178009
1783169520880749300,6.364749267578125,0.0005223980406299233,-0.0023774374276399612,0.0015195489395409822
1783169520890818300,6.374818359375,-0.00037688249722123146,-0.001668998971581459,0.0006505283527076244
1783169520900888300,6.384888427734375,0.0006817240500822663,0.0018266662955284119,-0.0011095546651631594
1783169520910957300,6.394957275390625,0.0005148024065420032,0.00181294372305274,0.0012078492436558008
1783169520921027300,6.40502734375,-0.0008679107995703816,0.0008531403727829456,0.00002194358967244625
1783169520931096300,6.415096435546875,-0.00033433258067816496,-0.0018244404345750809,-0.0010458917822688818
1783169520941165300,6.425165283203125,-0.002916799858212471,0.0009076967835426331,-0.00005652732215821743
1783169520951235300,6.4352353515625,-0.0019851529505103827,-0.0011934246867895126,0.00152116478420794
1783169520961304000,6.445303955078125,0.001042062183842063,0.0013088816776871681,-0.0032522850669920444
1783169520971374300,6.455374267578125,-0.0013442400377243757,-0.0004998669028282166,0.0015896728727966547
1783169520981443300,6.465443359375,-0.00021852192003279924,-0.0025209402665495872,0.00028232717886567116
1783169520991512300,6.47551220703125,-0.0018331371247768402,-0.00029312167316675186,-0.0036106437910348177
1783169521001582300,6.485582275390625,-0.00011300132609903812,0.0018448643386363983,-0.0008460159879177809
1783169521011651300,6.4956513671875,0.00020657689310610294,-0.00006302911788225174,-0.001746288500726223
1783169521021720300,6.50572021484375,-0.00003550434485077858,0.0017638998106122017,0.002007436938583851
1783169521031790300,6.515790283203125,-0.0017406987026333809,-0.00019952096045017242,-0.0003017275594174862
1783169521041859300,6.525859375,0.0011256615398451686,0.000753890722990036,0.0005451575852930546
1783169521051929300,6.535929443359375,0.0027685537934303284,0.0034349635243415833,-0.0017403850797563791
1783169521061998300,6.545998291015625,0.0006311005563475192,-0.0014580627903342247,-0.0011068189051002264
1783169521072067300,6.5560673828125,-0.00097703339997679,0.0007515745237469673,0.0030919606797397137
1783169521082137300,6.566137451171875,-0.0033349962905049324,-0.0010580429807305336,0.004110087174922228
1783169521092206300,6.576206298828125,-0.0004466644022613764,-0.001131352037191391,0.0016080618370324373
1783169521102275300,6.586275390625,-0.003484798362478614,-0.0002077678218483925,0.0013531972654163837
1783169521112345300,6.596345458984375,-0.0016599595546722412,0.0009924699552357197,-0.0003530422691255808
1783169521122414300,6.606414306640625,0.00027243001386523247,0.00006542354822158813,-0.0018044647295027971
1783169521132484000,6.616484130859375,0.00010170857422053814,-0.0005361763760447502,-0.0020648909267038107
1783169521142553300,6.62655322265625,-0.0002679381286725402,-0.00018730200827121735,0.0014014795888215303
1783169521152622300,6.636622314453125,-0.00045520823914557695,0.0004084915854036808,-0.000020871171727776527
1783169521162692400,6.6466923828125,0.0007426816737279296,0.0006305989809334278,0.00032161129638552666
1783169521172761000,6.656760986328125,0.0004597513470798731,0.0012288768775761127,-0.0002131264191120863
1783169521182831400,6.666831298828125,-0.0010420052567496896,-0.0016156453639268875,-0.0010056830942630768
1783169521192900400,6.676900390625,0.0002829821314662695,-0.00021312851458787918,0.001124231843277812
1783169521202969300,6.68696923828125,0.00036154536064714193,0.000588749535381794,-0.0014142931904643774
1783169521213039400,6.697039306640625,-0.0005761882057413459,-0.0006107352674007416,-0.003580162301659584
1783169521223108400,6.7071083984375,-0.0007556852651759982,-0.0031199660152196884,0.0019506907556205988
1783169521233177000,6.717177001953125,-0.001108019263483584,-0.002556956373155117,-0.0006056260317564011
1783169521243247400,6.727247314453125,0.0018944283947348595,0.00003350060433149338,-0.0011904560960829258
1783169521253316400,6.73731640625,-0.000022575841285288334,0.00008063856512308121,-0.0007427986711263657
1783169521263386400,6.747386474609375,0.00009700004011392593,-0.002646171487867832,-0.0008940664120018482
1783169521273455400,6.757455322265625,-0.000018820283003151417,-0.0016575837507843971,0.00038313446566462517
1783169521283524400,6.7675244140625,-0.0008654393022879958,0.0008979854173958302,0.0017224381444975734
1783169521293594400,6.777594482421875,-0.0009282008977606893,-0.0011422736570239067,0.0020722493063658476
1783169521303663400,6.787663330078125,-0.00022139784414321184,0.0013160905800759792,-0.0005144788883626461
1783169521313732400,6.797732421875,0.0001622076379135251,-0.0004330817610025406,0.0000044316984713077545
1783169521323802000,6.807802001953125,0.0022455984726548195,0.002539538312703371,0.00025050784461200237
1783169521333871400,6.817871337890625,-0.0018407305469736457,0.0008983826264739037,0.003057538066059351
1783169521343941000,6.827941162109375,-0.0024077175185084343,0.0008770772255957127,0.0013517832849174738
1783169521354010400,6.83801025390625,-0.0004255130188539624,-0.0010477378964424133,0.0003004767931997776
1783169521364079400,6.848079345703125,-0.0011805191170424223,0.0019898638129234314,-0.0008707812521606684
1783169521374149400,6.8581494140625,-0.0007948350394144654,-0.0016992762684822083,0.0005794288590550423
1783169521384218000,6.868218017578125,-0.00018337322399020195,0.0012283367104828358,-0.002388397930189967
1783169521394287400,6.878287353515625,-0.00044819130562245846,0.0004964321851730347,-0.00199018488638103
1783169521404357000,6.888357177734375,0.00028843898326158524,-0.0014609917998313904,0.0034274838399142027
1783169521414426400,6.89842626953125,0.0010053938021883368,0.00023782579228281975,-0.0005147389601916075
1783169521424496400,6.908496337890625,-0.00333475973457098,0.0014002956449985504,-0.00023990077897906303
1783169521434565400,6.9185654296875,-0.0002972484799101949,-0.0011410163715481758,-0.00105180568061769
1783169521444634000,6.928634033203125,0.001802387647330761,-0.0008307583630084991,-0.000813985476270318
1783169521454704400,6.938704345703125,-0.002845719223842025,-0.0004492131993174553,0.002041226252913475
1783169521464773400,6.9487734375,-0.0008475496433675289,-0.0009650671854615211,0.0017874271143227816
1783169521474843100,6.958843017578125,0.0004934290773235261,-0.0010435078293085098,-0.002505345270037651
1783169521484912400,6.968912353515625,0.0006675997865386307,-0.0009335186332464218,0.002807394601404667
1783169521494981400,6.9789814453125,-0.002113944850862026,-0.0010359352454543114,0.00029069697484374046
1783169521505051400,6.989051513671875,0.0008176628616638482,0.002011253498494625,0.003947483375668526
1783169521515120400,6.999120361328125,-0.0007149953162297606,-0.0013738377019762993,-0.000598591985180974
1783169521525189400,7.009189453125,0.0019210015889257193,-0.0004936624318361282,-0.00296667474322021
1783169521535259100,7.019259033203125,-0.0008957840036600828,-0.0020821336656808853,-0.001989490119740367
1783169521545328400,7.029328369140625,-0.0008744788356125355,0.0008462783880531788,0.0009288017172366381
1783169521555397600,7.039397705078125,-0.0005110710626468062,-0.0011611655354499817,0.0014551619533449411
1783169521565466600,7.049466552734375,0.00017069815658032894,0.0003214161843061447,0.0010538236238062382
1783169521575535900,7.059535888671875,-0.00041402631904929876,0.0012523955665528774,0.00291485246270895
1783169521585606000,7.06960595703125,0.002876309212297201,-0.00046214740723371506,-0.0010708344634622335
1783169521595675000,7.0796748046875,-0.0013450931292027235,-0.0011337120085954666,0.00027682282961905
1783169521605743600,7.08974365234375,-0.0007767744828015566,0.00042583514004945755,-0.0007993606850504875
1783169521615813600,7.099813720703125,-0.003101581707596779,-0.000029579736292362213,0.000806824304163456
1783169521625883000,7.1098828125,0.001401823479682207,0.0012037302367389202,-0.0029602167196571827
1783169521635952600,7.11995263671875,0.00011219899170100689,0.000987873412668705,-0.00013373070396482944
1783169521646022000,7.13002197265625,-0.0003953995183110237,0.000021678395569324493,0.001108367694541812
1783169521656090600,7.140090576171875,0.000576243968680501,-0.0005749398842453957,0.0017480687238276005
1783169521666161000,7.150160888671875,0.0005829018773511052,0.0008874014019966125,0.0032876422628760338
1783169521676229600,7.160229736328125,-0.0021274033933877945,0.002157975919544697,0.0007278425619006157
1783169521686299000,7.170298828125,0.0006108588422648609,-0.0019502164795994759,0.0027028429321944714
1783169521696368600,7.18036865234375,0.0011012402828782797,-0.00018739886581897736,-0.0002803630195558071
1783169521706438000,7.19043798828125,0.00019283604342490435,0.001635535154491663,-0.001137102022767067
1783169521716507600,7.200507568359375,-0.0007842470658943057,0.0016999500803649426,0.0006704875268042088
1783169521726577000,7.210576904296875,0.0006682409439235926,0.0003177695907652378,0.00012347428128123283
1783169521736645600,7.220645751953125,0.001257070922292769,0.0003495435230433941,0.0002687701489776373
1783169521746716000,7.2307158203125,-0.00007477588951587677,-0.00032982882112264633,-0.00010593654587864876
1783169521756784600,7.24078466796875,-0.00086371717043221,0.00048571033403277397,0.00034357327967882156
1783169521766854700,7.250854736328125,-0.001113521633669734,-0.0014711804687976837,-0.0003384621813893318
1783169521776923600,7.260923583984375,0.0023968839086592197,0.0008173249661922455,-0.0013842589687556028
1783169521786993000,7.270992919921875,0.00013213162310421467,0.0006317025981843472,0.0007025941740721464
1783169521797063000,7.28106298828125,-0.00013521756045520306,0.0020955423824489117,0.0015657548792660236
1783169521807131600,7.291131591796875,-0.0007243088912218809,0.0009682262316346169,-0.001797018339857459
1783169521817200600,7.30120068359375,-0.0004874839214608073,-0.0014736056327819824,0.0005887453444302082
1783169521827270700,7.311270751953125,-0.0003130468539893627,-0.0012738686054944992,0.0022979620844125748
1783169521837340000,7.32133984375,0.0011720764450728893,-0.0005213730037212372,-0.002777236048132181
1783169521847409700,7.33140966796875,-0.0024154677521437407,0.0019484423100948334,-0.000982798170298338
1783169521857479000,7.34147900390625,-0.0008988981135189533,0.0002718553878366947,0.0006754703354090452
1783169521867547600,7.351547607421875,0.0015320352977141738,0.0003397660329937935,0.0011069024913012981
1783169521877618000,7.361617919921875,0.00005265988875180483,0.0002897428348660469,-0.002289147349074483
1783169521887686700,7.371686767578125,0.002296373015269637,0.0008721761405467987,-0.001395656494423747
1783169521897756000,7.381755859375,-0.00019128923304378986,0.0008566225878894329,-0.0019548730924725533
1783169521907825700,7.39182568359375,0.0027634878642857075,0.0006219982169568539,-0.000643798615783453
1783169521917895000,7.40189501953125,-0.0010293470695614815,-0.001312105916440487,0.0023675491102039814
1783169521927964700,7.411964599609375,0.001908385893329978,0.0018725018016994,0.0016546209808439016
1783169521938034000,7.422033935546875,0.0007649960462003946,0.00023959297686815262,0.0008365742396563292
1783169521948102700,7.4321025390625,-0.0004928149282932281,0.0001863297075033188,0.0018815986113622785
1783169521958172700,7.442172607421875,-0.002770148916170001,-0.0003900798037648201,0.0006036895792931318
1783169521968241700,7.45224169921875,-0.00040020199958235025,0.000031764619052410126,0.0020958587992936373
1783169521978311000,7.462310791015625,0.00033088482450693846,0.000029606744647026062,-0.0011131293140351772
1783169521988380700,7.472380615234375,0.0003034543478861451,-0.0006247321143746376,0.0011305841617286205
1783169521998450000,7.482449951171875,-0.0011271893745288253,-0.00247200857847929,0.0025665550492703915
1783169522008519700,7.492519775390625,0.0012797755189239979,0.002832475584000349,0.0019249995239078999
1783169522018588700,7.502588623046875,-0.002613353542983532,-0.00070211011916399,0.00070383888669312
1783169522028657700,7.51265771484375,0.0005121322465129197,-0.002044876106083393,0.00029797316528856754
1783169522038727700,7.522727783203125,0.0004947569104842842,0.001265164464712143,0.00038273679092526436
1783169522048796700,7.532796630859375,-0.0006690444424748421,-0.0021138545125722885,-0.0027938818093389273
1783169522058866700,7.54286669921875,-0.0006352146156132221,-0.0021384041756391525,0.0007156587671488523
1783169522068936000,7.55293603515625,-0.0013145871926099062,0.0018352982588112354,-0.00034348038025200367
1783169522079004700,7.563004638671875,0.00155729241669178,-0.0008912775665521622,0.0011149507481604815
1783169522089075000,7.573074951171875,-0.0003199698403477669,0.00009782053530216217,-0.000049383146688342094
1783169522099143700,7.583143798828125,-0.001214601332321763,0.0003098160959780216,-0.0014118615072220564
1783169522109213000,7.593212890625,-0.0008020775858312845,-0.0011802222579717636,0.00040867552161216736
1783169522119282700,7.60328271484375,-0.0007204506546258926,-0.0005556000396609306,0.00015047448687255383
1783169522129352000,7.61335205078125,-0.00033029750920832157,0.0004891576245427132,-0.00229297555051744
1783169522139421700,7.623421630859375,-0.001544663798995316,0.001758502796292305,0.0012017872650176287
1783169522149491000,7.633490966796875,0.0028484866488724947,-0.0020961565896868706,-0.0012437936384230852
1783169522159559700,7.6435595703125,-0.0007515546167269349,-0.001612105406820774,-0.00011700973846018314
1783169522169629700,7.653629638671875,-0.00020161177963018417,0.0015376154333353043,-0.003138099331408739
1783169522179698700,7.66369873046875,-0.00031369144562631845,-0.00025202706456184387,0.00009754486382007599
1783169522189768000,7.673767822265625,0.0009499784791842103,-0.000060012564063072205,-0.0009205816313624382
1783169522199837700,7.683837646484375,-0.0021392800845205784,0.0019416343420743942,-0.0011140769347548485
1783169522209907000,7.693906982421875,-0.0007488436531275511,0.0028766700997948647,0.0007932791486382484
1783169522219976700,7.703976806640625,0.0007999801891855896,0.000008410774171352386,0.0009064178448170424
1783169522230045700,7.714045654296875,-0.0011217568535357714,0.0007812604308128357,0.0004113360773772001
1783169522240114700,7.72411474609375,0.0017238680738955736,-0.0010851388797163963,0.0000835685059428215
1783169522250184700,7.734184814453125,0.0005406255950219929,-0.000027864240109920502,0.0012588214594870806
1783169522260253700,7.744253662109375,0.0010563577525317669,-0.0028126537799835205,0.0005844586994498968
1783169522270322700,7.75432275390625,0.0012542306212708354,-0.001046711578965187,0.0007218779064714909
1783169522280392700,7.764392822265625,0.00023806269746273756,-0.000014611519873142242,0.00043464661575853825
1783169522290461700,7.774461669921875,-0.0015020468272268772,-0.001439669169485569,-0.00007348461076617241
1783169522300532000,7.784531982421875,0.0016363085014745593,0.0014444882981479168,-0.004445991478860378
1783169522310600700,7.7946005859375,-0.0006292426260188222,-0.0021947212517261505,0.0019120393553748727
1783169522320669700,7.804669677734375,0.0010969550348818302,0.000372918788343668,-0.0012761091347783804
1783169522330739700,7.81473974609375,-0.000307862414047122,0.0008554835803806782,-0.00046943756751716137
1783169522340809000,7.82480908203125,-0.0001438455656170845,-0.0008438266813755035,-0.0009426064789295197
1783169522350877700,7.834877685546875,-0.0005097638349980116,-0.0004329010844230652,-0.0010563232935965061
1783169522360948000,7.844947998046875,0.00032507942523807287,0.0005886428989470005,-0.0008767996914684772
1783169522371016700,7.8550166015625,0.0013770280638709664,0.000702359713613987,-0.0004749288782477379
1783169522381086700,7.865086669921875,-0.0011864659609273076,0.0003547295928001404,0.0008821452502161264
1783169522391155700,7.87515576171875,-0.0002655449789017439,0.0008008088916540146,0.00006135902367532253
1783169522401225000,7.885224853515625,0.001752025680616498,-0.0011631576344370842,0.002084344858303666
1783169522411294700,7.895294677734375,0.0003397514228709042,-0.00010002404451370239,0.0022372102830559015
1783169522421363700,7.90536376953125,0.00019396725110709667,0.0016542067751288414,-0.0033182851038873196
1783169522431433700,7.915433837890625,0.00024137157015502453,0.0007892120629549026,-0.003429605159908533
1783169522441502700,7.925502685546875,-0.0002201317111030221,-0.0005831066519021988,-0.0010175856295973063
1783169522451571700,7.93557177734375,0.00016496132593601942,-0.0017453106120228767,0.00023010536096990108
1783169522461641700,7.945641845703125,-0.0010005843359977007,-0.0002804286777973175,-0.0012424292508512735
1783169522471710700,7.955710693359375,0.0006385913584381342,-0.001148885115981102,-0.0018237971235066652
1783169522481779700,7.96577978515625,-0.0003264443948864937,-0.0008853208273649216,0.000052624382078647614
1783169522491849700,7.975849609375,-0.0005842383252456784,0.0012577250599861145,-0.0017231712117791176
1783169522501918700,7.985918701171875,0.0006178570329211652,-0.0005052052438259125,0.0007313203532248735
1783169522511989000,7.995989013671875,-0.002111084060743451,-0.0005866978317499161,0.0034416194539517164
1783169522522057700,8.0060576171875,0.0024780540261417627,0.0002518855035305023,0.00425611762329936
1783169522532126700,8.016126708984375,-0.0001379691530019045,0.00011766189709305763,0.00041610561311244965
1783169522542196700,8.02619677734375,0.002109505934640765,-0.0008746720850467682,0.0026251170784235
1783169522552265700,8.036265625,0.000036767683923244476,0.001554663758724928,0.0003523754421621561
1783169522562334700,8.046334716796874,0.00044884643284603953,0.0001984192058444023,-0.00018059369176626205
1783169522572404700,8.05640478515625,-0.0002877839142456651,-0.0016681905835866928,0.0016205022111535072
1783169522582473700,8.0664736328125,-0.002068393398076296,0.0009639579802751541,-0.0007785246707499027
1783169522592543500,8.07654345703125,-0.000952795147895813,-0.000933278352022171,0.002957890508696437
1783169522602612700,8.08661279296875,0.002056246856227517,-0.0020174579694867134,-0.003146237228065729
1783169522612681700,8.096681640625,0.0026464033871889114,0.002459049690514803,-0.003229327965527773
1783169522622751700,8.106751708984374,0.00013299239799380302,-0.0011632153764367104,-0.0005235397256910801
1783169522632820500,8.116820556640626,-0.0019400122109800577,0.0006485329940915108,-0.0002058246172964573
1783169522642889700,8.1268896484375,-0.001249710563570261,-0.001742897555232048,-0.003223641077056527
1783169522652959500,8.13695947265625,0.0015868223272264004,0.0022973837330937386,-0.0007644782308489084
1783169522663028700,8.14702880859375,-0.0009868692141026258,-0.0010984623804688454,0.0010705133900046349
1783169522673098500,8.157098388671875,-0.001336009707301855,0.0015766825526952744,0.0010585291311144829
1783169522683167700,8.167167724609374,-0.00021136493887752295,-0.00316486693918705,-0.0001472968142479658
1783169522693236500,8.177236572265626,0.0013399263843894005,0.00026555033400654793,-0.0005006981082260609
1783169522703306800,8.187306640625,-0.0012954570120200515,-0.0010764338076114655,0.0005290338303893805
1783169522713375500,8.19737548828125,0.0010398689191788435,-0.0003925347700715065,-0.00027124607004225254
1783169522723444700,8.20744482421875,-0.0009902439778670669,0.00017899461090564728,0.001085164025425911
1783169522733514800,8.2175146484375,0.002370931673794985,0.00047220848500728607,0.003709709271788597
1783169522743583700,8.227583740234374,-0.0012615337036550045,0.0000898502767086029,0.0002887693699449301
1783169522753653800,8.23765380859375,0.00027777336072176695,-0.00041668303310871124,0.003796152537688613
1783169522763722800,8.24772265625,-0.0012718383222818375,-0.0006007915362715721,0.00176385254599154
1783169522773791700,8.257791748046875,0.0000445622717961669,0.0006173383444547653,0.0005979205016046762
1783169522783861800,8.26786181640625,0.0011602719314396381,0.0003558425232768059,0.000022427178919315338
1783169522793930800,8.2779306640625,0.0010332391830161214,0.0014432109892368317,-0.0002809066791087389
1783169522803999700,8.287999755859374,-0.0013100220821797848,-0.0005486709997057915,0.0015021793078631163
1783169522814069800,8.29806982421875,0.002414408605545759,0.0022673560306429863,0.00144252460449934
1783169522824138800,8.308138671875,-0.0009098388254642487,0.0009616739116609097,-0.0006148372776806355
1783169522834208800,8.318208740234375,-0.0014198343269526958,0.0008056126534938812,-0.002104077022522688
1783169522844277500,8.328277587890625,-0.0014297965681180358,-0.0002488894388079643,0.0005163017194718122
1783169522854346800,8.3383466796875,-0.0002260478213429451,-0.0011807288974523544,-0.00005867471918463707
1783169522864416500,8.34841650390625,0.000483291398268193,0.0007504532113671303,-0.0009430765639990568
1783169522874485800,8.35848583984375,0.0008007402066141367,-0.00011853687465190887,0.0014726766385138035
1783169522884554800,8.3685546875,-0.001164099434390664,-0.0008662482723593712,-0.000833430327475071
1783169522894624800,8.378624755859375,-0.0007699516136199236,0.0016003716737031937,0.0036278970073908567
1783169522904693500,8.388693603515625,0.001037232461385429,-0.00007415236905217171,-0.0043465495109558105
1783169522914763800,8.398763671875,0.0011576073011383414,0.0013612913899123669,-0.001821340061724186
1783169522924832500,8.40883251953125,0.0019879434257745743,-0.0005049011670053005,-0.0014831440057605505
1783169522934901800,8.41890185546875,-0.001088806428015232,-0.0011773495934903622,0.0018479377031326294
1783169522944971500,8.428971435546876,-0.000580601510591805,-0.00046519236639142036,0.001896400237455964
1783169522955040800,8.439040771484375,-0.0006154888542369008,-0.0014417734928429127,-0.0005702197086066008
1783169522965109500,8.449109619140625,0.0008914258796721697,0.0015576118603348732,-0.0009051233064383268
1783169522975179800,8.4591796875,0.0009055406553670764,0.0018585491925477982,-0.0009187052492052317
1783169522985248500,8.46924853515625,0.000154237262904644,0.0016828919760882854,0.0005427675787359476
1783169522995318500,8.479318603515624,0.0004186891601420939,0.0006304108537733555,0.000984053360298276
1783169523005387800,8.4893876953125,0.0008049742318689823,0.0004622838459908962,0.004072228446602821
1783169523015456800,8.499456787109375,-0.00018945010378956795,0.00006174435839056969,0.00032010069116950035
1783169523025526800,8.50952685546875,0.0010660529369488358,-0.0007435404695570469,-0.003431828925386071
1783169523035595800,8.519595703125,-0.003535090247169137,-0.0011616568081080914,-0.0007721299771219492
1783169523045665800,8.529665771484375,0.0010371108073741198,-0.0007718508131802082,0.0027810130268335342
1783169523055734500,8.539734619140624,-0.0014012794708833098,-0.00010765856131911278,-0.0006936131976544857
1783169523065803800,8.5498037109375,-0.0009908238425850868,-0.0010842219926416874,0.0005181576125323772
1783169523075873500,8.55987353515625,0.000056597404181957245,0.0013469774276018143,-0.0029402230866253376
1783169523085942800,8.56994287109375,0.0007084184908308089,-0.0006151185370981693,0.00024605123326182365
1783169523096011500,8.580011474609375,-0.0021550124511122704,-0.0031690900214016438,-0.00016700499691069126
1783169523106081800,8.590081787109375,0.0007186736911535263,-0.001132739707827568,-0.0008484241552650928
1783169523116150500,8.600150634765624,0.0008283959468826652,-0.0003795977681875229,-0.0017331261187791824
1783169523126220800,8.610220703125,0.0006487153586931527,0.00009148940443992615,-0.0016548384446650743
1783169523136289500,8.62028955078125,-0.0014874060871079564,-0.0016872361302375793,0.0019377657445147634
1783169523146358800,8.63035888671875,-0.0011977115646004677,-0.0010933387093245983,-0.0007540660444647074
1783169523156428500,8.640428466796875,-0.0011236758437007666,-0.000029406044632196426,0.00021079718135297298
1783169523166497800,8.650497802734375,0.0019470399711281061,0.07132644206285477,0.03092283196747303
1783169523176566500,8.66056640625,-0.00032410374842584133,0.23312413692474365,0.116185262799263
1783169523186636800,8.67063671875,0.008441148325800896,0.006155844312161207,0.024495553225278854
1783169523196705500,8.68070556640625,-0.003273298963904381,0.018053783103823662,0.012381632812321186
1783169523206775600,8.690775634765625,-0.001363013288937509,0.003781636245548725,0.0015662696678191423
1783169523216844800,8.7008447265625,0.0001869464758783579,0.008818472735583782,0.004938097670674324
1783169523226913800,8.710913818359375,0.001244734157808125,-0.05382375419139862,-0.029354963451623917
1783169523236983800,8.72098388671875,-0.003171053249388933,-0.241151824593544,-0.12189635634422302
1783169523247052500,8.731052490234376,0.0007898756884969771,-0.10999248176813126,-0.04392565041780472
1783169523257121500,8.74112158203125,0.0008742979262024164,0.0651170164346695,0.027381818741559982
1783169523267191600,8.751191650390625,0.0029901396483182907,-0.05798148363828659,-0.026713808998465538
1783169523277260800,8.7612607421875,-0.00005092390347272158,0.03607577458024025,0.018788961693644524
