time,seconds_elapsed,z,y,x
1783170091456316700,0.063316650390625,0.09302081352472305,-0.19685820461809633,0.35706294123008847
1783170091466386700,0.07338671875,-0.15851649126410483,-0.18187457049787042,0.3612107450919226
1783170091476455700,0.08345556640625,-0.2976864770233631,-0.09483853047117591,0.1892901805166155
1783170091486525700,0.093525634765625,-0.2664554724574089,-0.024189123230427503,0.2666457343325019
1783170091496594700,0.1035947265625,-0.22208149320185183,0.030025574298948046,0.27455493655446916
1783170091506664700,0.113664794921875,-0.0226958159327507,-0.004107435318827629,0.31205888391006736
1783170091516733700,0.123733642578125,0.24675533120930193,0.027825726167112586,0.2363810540480539
1783170091526803700,0.1338037109375,0.39501346330940723,0.07318024089261889,0.15568196195792405
1783170091536873000,0.143873046875,0.5035638543993234,0.06389978685006499,0.1579255761662498
1783170091546942700,0.153942626953125,0.6055605860620736,0.005946633444726466,0.2881589163519442
1783170091557012000,0.164011962890625,0.5227338342934846,-0.008107464740425348,0.1414755958205089
1783170091567081700,0.174081787109375,0.7006424237698317,0.10776742401868104,0.16078085599951444
1783170091577150700,0.184150634765625,0.9179986420154571,0.13247560268715022,0.1531372093785554
1783170091587220700,0.194220703125,0.9087105891883372,0.06057677990719676,0.23182002974282948
1783170091597289700,0.204289794921875,0.7170633972167968,0.10657134610190987,0.11138298416733741
1783170091607359700,0.21435986328125,0.58714113227427,0.24164924024194478,-0.17055771525688468
1783170091617428700,0.2244287109375,0.4478530730932951,0.30169732009992,-0.2547728161113337
1783170091627497700,0.234497802734375,0.3055781070560217,0.28875892807170744,-0.34413755481392144
1783170091637567700,0.244567626953125,0.3520505198955536,0.26594679228290913,-0.30887904829755425
1783170091647636700,0.25463671875,0.64600073300004,0.18232509074434636,-0.2276824550140649
1783170091657706800,0.264706787109375,0.8776660471051931,0.015362842696160077,-0.2745403965724632
1783170091667775700,0.274775634765625,0.9554039513021707,-0.034110943916440005,-0.29118926049117
1783170091677845800,0.284845703125,0.9468366139650344,0.039838089391589164,-0.21656316817179322
1783170091687914800,0.294914794921875,0.8897229801237583,-0.02094166574180126,-0.21347002446204422
1783170091697984800,0.30498486328125,0.772651428925991,-0.12516878680512308,-0.25016791613176464
1783170091708053800,0.3150537109375,0.53594695160985,-0.13870572924837468,-0.29091292776782063
1783170091718123800,0.325123779296875,0.21015023238956926,-0.11580489226281643,-0.2850680011318996
1783170091728192800,0.33519287109375,-0.11655191123783588,-0.173522044955194,-0.25242285545170307
1783170091738262500,0.345262451171875,-0.34867899763584137,-0.20489494220986962,-0.1807551380138844
1783170091748331800,0.355331787109375,-0.44593291868567464,-0.2045228940270841,-0.10396247877776622
1783170091758401800,0.36540185546875,-0.46707858256697654,-0.15836057005003093,-0.05502166653070598
1783170091768470800,0.375470703125,-0.43767187081873415,-0.07536459919437766,-0.06295267872568219
1783170091778540800,0.385540771484375,-0.539607812204957,0.04899477092400193,-0.14029120834153144
1783170091788609800,0.39560986328125,-0.7838345017194748,0.17946517126858233,-0.12491280275005846
1783170091798679800,0.4056796875,-0.924530089610815,0.22581059672757983,-0.1828167832514271
1783170091808748800,0.415748779296875,-0.8876099334925412,0.17355697013810276,-0.2747618207708001
1783170091818818800,0.42581884765625,-0.7245107906132936,0.1279812138773501,-0.2536327061655
1783170091828887800,0.4358876953125,-0.614413170081377,0.08494213648736476,-0.16445110547747463
1783170091838957800,0.445957763671875,-0.5103191738784313,0.030659342157840726,-0.1566759414313361
1783170091849026600,0.456026611328125,-0.34855215638577935,-0.018233868087828158,-0.1281507252253592
1783170091859096800,0.466096923828125,-0.18529051642119884,-0.01585223364830017,-0.18518163095293566
1783170091869165600,0.47616552734375,0.07685469162166118,0.016342209122329948,-0.3275722775254398
1783170091879235800,0.48623583984375,0.22208558485507965,0.0954109235316515,-0.37283454739023
1783170091889304800,0.496304931640625,0.22447744842767714,0.20706351842060683,-0.38095969391781836
1783170091899374800,0.506374755859375,0.14179858069717882,0.3038819706626236,-0.3255662714652717
1783170091909443800,0.51644384765625,0.09118132313787937,0.30414734360054135,-0.34523093954119827
1783170091919513600,0.526513671875,0.15606208384931086,0.3109574620068073,-0.3461456797659397
1783170091929582800,0.536582763671875,0.2319692654877901,0.32427769295945763,-0.31097532645706083
1783170091939652600,0.546652587890625,0.25661446192264553,0.30976284539476034,-0.2622111311522312
1783170091949721900,0.556721923828125,0.23275720099508762,0.25020824814215303,-0.2376768477459438
1783170091959791600,0.56679150390625,0.16583178271353244,0.21254545696303248,-0.16882468091920017
1783170091969860900,0.57686083984375,0.039249475848674775,0.1657734766550362,-0.1483546238776762
1783170091979931000,0.586930908203125,-0.07671206828057765,0.16225597005337475,-0.17668721272153778
1783170091989999900,0.596999755859375,-0.0870014071047306,0.19526245985925197,-0.22001489779455585
1783170092000070000,0.60706982421875,-0.05507949766516685,0.18126973647251723,-0.23043664909303188
1783170092010138600,0.617138671875,-0.04649170206189155,0.19307196407765148,-0.24498583731874823
1783170092020209000,0.627208984375,-0.026965163815021512,0.20584698223769662,-0.27024317430257794
1783170092030277600,0.637277587890625,-0.020138532665371894,0.20710560399666428,-0.2894167161270045
1783170092040348000,0.647347900390625,-0.16658873856067657,0.21151143774017692,-0.2749681935304776
1783170092050416600,0.657416748046875,-0.29521336490809913,0.1944735014386475,-0.2968750145100057
1783170092060487000,0.66748681640625,-0.3451876483887434,0.2125010332994163,-0.26873001152696085
1783170092070555600,0.6775556640625,-0.33721476981341836,0.1780282703332603,-0.22162969431374221
1783170092080625700,0.687625732421875,-0.28834231009483335,0.1385883864790201,-0.1745290848395787
1783170092090694700,0.697694580078125,-0.25034838726520536,0.12294292744919658,-0.17746859062388537
1783170092100764700,0.7077646484375,-0.23003157542347907,0.060355684502422804,-0.17895183318527413
1783170092110834000,0.717833984375,-0.19346447052657603,-0.018124562494456768,-0.16591805449118838
1783170092120902700,0.727902587890625,-0.1321919634401798,-0.012883300840109586,-0.180923772579059
1783170092130973000,0.737972900390625,-0.09545300910770893,0.0023556232154369355,-0.20803229038752613
1783170092141042000,0.7480419921875,-0.028203765699267386,-0.03682122578844428,-0.2229481930337846
1783170092151112000,0.75811181640625,0.06732815386354923,-0.046736178342252965,-0.196463341815304
1783170092161181000,0.768180908203125,0.15904139192104338,-0.050775955252349375,-0.19811803195346145
1783170092171251000,0.7782509765625,0.16475684695839882,-0.062373600196093316,-0.15469373637186362
1783170092181320000,0.78831982421875,0.12200842307806015,-0.051143473390489816,-0.0889284479108639
1783170092191389700,0.7983896484375,0.11093524039983749,-0.043228170221298934,-0.051306997955706896
1783170092201459000,0.808458984375,0.16347382141053676,-0.08279577210843563,-0.019038677098113112
1783170092211528700,0.81852880859375,0.1798807663321495,-0.08914251078665256,0.018842542604659684
1783170092221598000,0.828597900390625,0.1905903763949871,-0.1218785130880773,0.003571894536865875
1783170092231668000,0.83866796875,0.2633341255664825,-0.15696853116974233,0.0074361961490474636
1783170092241737000,0.848737060546875,0.25397008489370343,-0.1662258965976536,0.03678751531508751
1783170092251807000,0.858806884765625,0.20582827753722666,-0.1799672755718231,0.008652284807385877
1783170092261876000,0.8688759765625,0.14953998860418796,-0.21437954052239655,0.010673378838831559
1783170092271946000,0.878946044921875,0.06481295617222786,-0.16939108263030647,-0.014073551804292947
1783170092282014700,0.8890146484375,-0.47384325439631936,-0.04945449739024043,-0.5549265600310638
1783170092292085000,0.8990849609375,-0.03859948750734329,-0.0902836436457932,-0.26559817977463823
1783170092302153700,0.90915380859375,0.1844283466339111,-0.2718326354511082,0.22699713963102547
1783170092312224000,0.91922412109375,0.1218751520872116,-0.236019271530956,-0.15872666341606526
1783170092322292700,0.929292724609375,0.13880407505631445,-0.07365969497263432,-0.278990635713283
1783170092332363000,0.939363037109375,0.23073826238811015,-0.12445537783876061,-0.1832266061613336
1783170092342431700,0.949431640625,0.3042611792385578,-0.18695406571924686,-0.008750018693972378
1783170092352501800,0.959501708984375,0.33278467841148374,-0.19165318332090972,-0.027649036159645764
1783170092362571000,0.969571044921875,0.34895430744588374,-0.16850041740089655,-0.03407720604361966
1783170092372640800,0.979640869140625,0.31694705781042576,-0.21575930444300173,-0.02231227824157104
1783170092382710000,0.9897099609375,0.3620025895893574,-0.27078663352951404,0.02962128608068451
1783170092392779800,0.99977978515625,0.41243630727529523,-0.28192148326709865,0.1185064793717116
1783170092402849000,1.00984912109375,0.5064192438304423,-0.25361981015130874,0.16096083394261076
1783170092412918800,1.019918701171875,0.47838323591351506,-0.2657236510515213,0.11416585635151713
1783170092422988000,1.029988037109375,0.37465105876028537,-0.20762232134714723,0.07225733562773093
1783170092433057800,1.040057861328125,0.24856676454544066,-0.12268836816623806,0.03961008932199329
1783170092443127000,1.050126953125,0.125565238776803,-0.061141574183106416,0.06894886866686865
1783170092453197000,1.060197021484375,0.09929857861995696,-0.05041399007216096,0.09869637494310736
1783170092463265800,1.070265869140625,0.18595277972221375,-0.07982713156118988,0.04491610504193231
1783170092473336000,1.080336181640625,0.2753863824099302,-0.07464768309667706,-0.007760021275933831
1783170092483404800,1.09040478515625,0.3213327255487442,-0.10000789593309163,-0.017371826164703816
1783170092493475000,1.10047509765625,0.4042138378530741,-0.12735402188971637,0.07003264531558379
1783170092503543800,1.110543701171875,0.49892158155143257,-0.13412833833023904,0.1304720991113223
1783170092513613800,1.12061376953125,0.6768634887754916,-0.09322948783934115,0.07150691911922767
1783170092523682800,1.130682861328125,0.8397147943735123,-0.06558540184944868,0.021270678500458596
1783170092533752000,1.140751953125,1.0412293003648518,-0.04407601922228932,0.10128989856764674
1783170092543821800,1.15082177734375,1.2116612703502176,-0.0460443966858089,0.19689490163298323
1783170092553890800,1.160890869140625,1.276580024984479,0.00996390626206994,0.1732251443678513
1783170092563960800,1.1709609375,1.4544541276693344,0.14799714307636022,0.08902999032288789
1783170092574029800,1.18102978515625,1.7291443445086478,0.27061244600638745,0.04482952273702249
1783170092584099800,1.191099853515625,1.9546663335531949,0.3601473171114921,0.008807740230578929
1783170092594168800,1.2011689453125,2.1701345460951327,0.38917555093616246,-0.020057996508758513
1783170092604239000,1.211239013671875,2.510974520668387,0.5140580681458116,-0.021448738481104374
1783170092614307800,1.221307861328125,2.606761876296997,0.6974293069422245,-0.01807552658780478
1783170092624377900,1.2313779296875,2.6674422627091405,0.8422535190708935,-0.1055912490233779
1783170092634446800,1.24144677734375,2.9198195254534483,1.0694339428469537,-0.15107714417674578
1783170092644516900,1.251516845703125,3.317351109063625,1.2419741371579467,-0.14958785546706058
1783170092654585900,1.2615859375,3.7536551986604927,1.3133219019263982,-0.2720061653871089
1783170092664656000,1.27165576171875,4.1329233958274125,1.359290310766548,-0.46300815479028967
1783170092674724900,1.281724853515625,4.519776349034905,1.3736846006914973,-0.6073551413286477
1783170092684795000,1.291794921875,4.569705624330044,1.380243374685198,-0.8388141922719776
1783170092694864000,1.30186376953125,4.763884380605816,1.3506681745022535,-0.8378228431470691
1783170092704934000,1.311933837890625,4.727822887143493,1.4013621505595744,-0.9700102034773677
1783170092715003000,1.3220029296875,4.442499048087001,1.454769769489765,-1.0188611089512705
1783170092725073000,1.332072998046875,4.042316657707095,1.4591364402666687,-0.9715957191031426
1783170092735142000,1.342141845703125,3.619495734539628,1.3478633462145924,-0.7579385745711624
1783170092745212000,1.3522119140625,3.1103333294808864,1.1333633941829204,-0.4209009879555553
1783170092755281000,1.362281005859375,2.4832868877977132,0.901520531553775,0.013947514271829277
1783170092765351000,1.372350830078125,1.8264777605354785,0.6866429783813655,0.17508235307447612
1783170092775420000,1.382419921875,1.5230957022190093,0.4525181422948837,-0.15434017369383946
1783170092785490000,1.392489990234375,1.5313731166988611,0.07553396441191434,-0.34904651577398177
1783170092795559000,1.402558837890625,1.6394436153173446,-0.3567414541907608,-0.6115388932866975
1783170092805628000,1.4126279296875,1.3615613244384526,-0.9163971981681883,-0.8505427701190114
1783170092815698000,1.422697998046875,0.016710311782360075,-1.0949851482108235,-0.5749305065313354
1783170092825767000,1.432766845703125,-2.7203695507764816,-1.083703437348455,-0.18476026373570784
1783170092835837000,1.4428369140625,-6.329522170478105,-1.164024782167375,-0.236184928687755
1783170092845905700,1.45290576171875,-9.671443657174706,-1.6249959877699613,-0.40502793071493504
1783170092855976000,1.462975830078125,-11.914260577642917,-1.8483336185127495,-0.1580929320897907
1783170092866045000,1.473044921875,-13.434620717418193,-1.8371132824487983,0.028964575737621633
1783170092876115000,1.483114990234375,-14.316971707469223,-1.71288674492985,0.1284110018630512
1783170092886184000,1.493183837890625,-14.887078118312358,-1.3617664916217327,0.07569722868222743
1783170092896254000,1.50325390625,-16.011529891765118,-0.88628832949996,0.06487146316012367
1783170092906323000,1.513322998046875,-17.944292436546085,-0.30802856894806024,0.01627403925694525
1783170092916392700,1.523392822265625,-19.54538907781243,0.23786723748520014,-0.5116015418391674
1783170092926462000,1.5334619140625,-21.65680255486965,0.9569088029071688,-0.7371069450750947
1783170092936531700,1.54353173828125,-24.6079296572566,1.547362128469348,-0.1452598088006489
1783170092946601000,1.55360107421875,-28.4914346401453,2.194611984747648,0.9059238810792565
1783170092956671000,1.5636708984375,-32.8646871335268,2.819341966181993,1.6370530669189989
1783170092966740000,1.573739990234375,-35.001617329156396,3.3782112359568472,1.2918790086641907
1783170092976810000,1.58381005859375,-33.36978886501789,3.2588632642596957,0.25968152134306727
1783170092986879000,1.59387890625,-27.485126431035994,2.8189170187681913,-1.3269412619560956
1783170092996949000,1.603948974609375,-18.372576301294565,1.3871106301061809,-0.8854707295067608
1783170093007017700,1.614017822265625,-7.5005153303533785,-0.1963875183664262,0.5899461797576397
1783170093017088000,1.624087890625,3.2189789976388212,-1.6008825601242482,1.2305074251174926
1783170093027156700,1.63415673828125,11.173079807257652,-2.5933646345853805,1.6844459556043148
1783170093037226000,1.64422607421875,15.614095923310517,-3.0510657324761152,2.1345988300725818
1783170093047295700,1.654295654296875,17.35363774319291,-3.3082787448137996,1.9289710435435174
1783170093057365000,1.664364990234375,18.028149115884304,-3.6983413077175613,1.3079925235971808
1783170093067434800,1.674434814453125,19.36894413114786,-4.068948351784051,1.4579045603841543
1783170093077504000,1.68450390625,21.098415807914733,-3.797179867610335,2.0290248244449494
1783170093087573800,1.69457373046875,21.11272490377426,-3.085798023161292,2.058095436106622
1783170093097643000,1.70464306640625,19.55606361656189,-2.3475885236717757,2.1351213926419614
1783170093107713000,1.714713134765625,17.536243550574778,-0.9737773739911615,1.670840331839025
1783170093117781800,1.72478173828125,15.66808587217331,0.5303247278138995,1.0170543517902493
1783170093127852000,1.73485205078125,13.956490043836832,1.718716766257584,0.18539280775189398
1783170093137920800,1.744920654296875,11.621377701508997,2.7745746036946772,-0.6119240566793829
1783170093147991000,1.754990966796875,8.041482740473747,2.9427310299634932,-1.249160395400226
1783170093158059800,1.765059814453125,4.5092192991852755,2.382309562310576,-1.2328086877971887
1783170093168130000,1.775130126953125,2.6951392479300496,1.6720257422313094,-0.5367189588956535
1783170093178198800,1.78519873046875,2.3972762452960015,0.9099783441018313,0.22787856210805474
1783170093188268800,1.795268798828125,2.9323592735528945,0.2575813341934234,0.5766634312711656
1783170093198337800,1.805337890625,4.323535399532318,-0.039096111917868256,0.7953277364406734
1783170093208407800,1.81540771484375,5.683598594367504,-0.1714267531763762,0.9835159470647573
1783170093218476800,1.825476806640625,7.009003148275613,-0.2112333514511585,0.9710297557834535
1783170093228546800,1.835546875,8.156709540587663,-0.05856792430281639,0.9202315886992961
1783170093238616000,1.845615966796875,8.906089984041452,0.1605300230436027,0.921727014888823
1783170093248685800,1.855685791015625,8.661662803518771,0.23126287078410385,0.7762959229081868
1783170093258755000,1.865755126953125,7.830112610900402,0.30304230496808887,0.34781744890306143
1783170093268824800,1.875824951171875,7.258111764612793,0.386912282179296,0.038891163930296895
1783170093278893800,1.885893798828125,7.278565939098596,0.4584149452485144,-0.007207447160780429
1783170093288962800,1.895962890625,7.644251016592979,0.541522267524153,0.19452391645163297
1783170093299032800,1.90603271484375,8.110677857252956,0.6629110973991453,0.5909650014113634
1783170093309101800,1.916101806640625,8.496643506231903,0.8107001506827771,0.5627867354795336
1783170093319171800,1.926171875,8.899095010587573,1.0175805676214396,0.42422896333448584
1783170093329240800,1.93624072265625,9.206939893531798,1.2311319867566226,0.3912464389260858
1783170093339310800,1.946310791015625,9.546820667684077,1.4495892981119454,0.40247810010164975
1783170093349379800,1.9563798828125,9.41846725949347,1.7962930501520633,0.2628826372056268
1783170093359449900,1.966449951171875,8.939633941724896,2.113740604830533,-0.0660212907823734
1783170093369519000,1.97651904296875,8.339961244657635,2.4309654566690324,-0.22003352942978963
1783170093379588900,1.9865888671875,7.678467758971452,2.823889546483755,0.019488663055049253
1783170093389657900,1.996657958984375,7.3176909117847675,3.2174884668201207,-0.010103150335978715
1783170093399727900,2.006727783203125,7.594430462369322,3.5835219193607566,-0.2130667774233967
1783170093409796900,2.016796875,8.173697500267624,3.9868499142900107,-0.32220826627425847
1783170093419867000,2.026866943359375,8.647914848673343,4.260982204985618,-0.31724509090892966
1783170093429935900,2.036935791015625,8.70842397017181,4.471205502611398,-0.28255050188563763
1783170093440006000,2.047005859375,7.948928375416994,4.761580779838562,-0.21989037636574357
1783170093450075000,2.057074951171875,6.665797613614798,4.332320763534307,-0.3469443923955783
1783170093460145000,2.067144775390625,5.318822448411583,3.2015596608042713,-0.48270044152550395
1783170093470214000,2.0772138671875,3.969976813161373,1.8450453906223176,-0.46099838587045666
1783170093480284000,2.087283935546875,1.8712112207531928,0.8021233148649335,-0.2417973800083622
1783170093490353000,2.097352783203125,-1.0855910046607256,-0.08828530943542719,0.29376046268604694
1783170093500422000,2.107421875,-4.536144130989909,-0.9860425429329276,0.7194893091894686
1783170093510492000,2.117491943359375,-8.097350758168101,-1.9171660394594072,0.7126717381291091
1783170093520561000,2.127560791015625,-12.245317409348488,-2.94432268306911,-0.39870764165222644
1783170093530631000,2.137630859375,-16.624000111085177,-3.9118908271566033,-2.384195814448595
1783170093540700000,2.147699951171875,-19.524087931108472,-4.586259868767857,-2.7120816149026155
1783170093550770000,2.15777001953125,-20.43123317067623,-5.326951978853344,-0.6044667994759977
1783170093560839000,2.1678388671875,-22.08633262028694,-5.723015827998519,2.8204680476024744
1783170093570908700,2.17790869140625,-25.21898884073496,-5.739176689204573,5.03656091953516
1783170093580978000,2.18797802734375,-28.51877155988216,-5.6782706773430105,5.274257330498099
1783170093591048000,2.1980478515625,-30.93889793488979,-5.043860428893566,4.471694747433066
1783170093601117000,2.208116943359375,-32.02800717680454,-4.2175615809321405,3.1530034274280068
1783170093611187000,2.21818701171875,-32.21085263816118,-3.506643262341618,1.1649915813729166
1783170093621256000,2.228255859375,-31.28097651134729,-2.9612928148314355,-1.1952033258937298
1783170093631326000,2.238325927734375,-29.282970802283284,-2.2425606076195836,-2.8629715568110345
1783170093641395000,2.24839501953125,-25.95252406480312,-1.4065996128216385,-3.516587440989911
1783170093651465000,2.25846484375,-20.944190876364708,-1.2181624689377843,-3.3963071568787098
1783170093661534000,2.268533935546875,-14.881333437180519,-1.0841839143417775,-2.252832410787046
1783170093671604000,2.27860400390625,-8.830164682224392,-0.9422171374708413,-0.8972890314638614
1783170093681672700,2.288672607421875,-3.4927579448521135,-1.1726949953570962,-0.3074375442523509
1783170093691742000,2.298741943359375,0.8490203828573226,-1.1041564427904784,0.17800503558814523
1783170093701811700,2.308811767578125,4.719116433596611,-0.7081643437072634,0.36790764891467986
1783170093711881000,2.318880859375,7.79384068955779,-0.01706307074278593,0.17151625809073448
1783170093721950700,2.32895068359375,9.865772051054238,0.6086670276448131,-0.04869052728042006
1783170093732020000,2.33902001953125,11.416311055994033,1.2633479107066987,-0.3622250732336193
1783170093742090000,2.349090087890625,12.961858243995904,1.9326900640666484,-0.5463704382076859
1783170093752159000,2.359158935546875,13.816215311706065,2.4426950574293733,-0.3707275286410004
1783170093762229000,2.36922900390625,13.936528621304035,2.891798130583763,-0.1980980486113578
1783170093772298000,2.379298095703125,14.194445397996901,3.111438075852394,-0.2958530510511249
1783170093782368000,2.389367919921875,14.386858313643932,3.2611355931058523,-0.6194237647850066
1783170093792436700,2.399436767578125,14.147386709702014,3.214774239425361,-0.9778249688815325
1783170093802507000,2.409507080078125,13.609739968436955,3.081830873095989,-0.8916382391605525
1783170093812575700,2.41957568359375,12.78026950470209,2.882167255668342,-0.4866155691426247
1783170093822646000,2.42964599609375,11.80576630065441,2.6187363917291164,-0.1041594626545906
1783170093832714800,2.43971484375,11.18095214806795,2.35756295132786,0.2775246365476399
1783170093842784800,2.44978466796875,10.901546008622645,2.3034470379978416,0.7850523530766368
1783170093852853800,2.459853759765625,10.431319191157817,2.3881680790804327,1.3714756924703717
1783170093862923000,2.469923095703125,9.52810953747332,2.3900547696098684,1.8023837682425974
1783170093872993000,2.479992919921875,8.566991300177573,2.3442899205178023,1.917386696472764
1783170093883061800,2.490061767578125,7.861337185725569,2.4170760475263,2.014427851554751
1783170093893132000,2.500132080078125,7.483383578288555,2.533455524806678,1.9777499797597526
1783170093903200800,2.51020068359375,7.450589562189578,2.564403913038969,1.5349574049264192
1783170093913271000,2.52027099609375,7.587768081870674,2.5260750591665504,1.1956157060869037
1783170093923339800,2.53033984375,7.9159829681485885,2.4272888139829036,1.0564243122134358
1783170093933410000,2.54041015625,8.205855556550622,2.239813208607584,0.7450312352683395
1783170093943478800,2.550478759765625,8.54217425430715,1.96870494190827,0.2918374222015962
1783170093953548800,2.560548828125,8.701993060341477,1.8064042559303342,0.12662136023361234
1783170093963617800,2.57061767578125,8.701731194534897,1.799436316613853,0.14146816143272445
1783170093973687800,2.580687744140625,8.464056995403766,1.9063436166718601,-0.004296098891878501
1783170093983756800,2.5907568359375,8.035739812907575,2.1158919376455247,-0.3211929517518729
1783170093993826800,2.600826904296875,7.722215715283155,2.2704376255825163,-0.5889743025181815
1783170094003896000,2.61089599609375,7.786146627923846,2.354098928479105,-0.7527965355075895
1783170094013965800,2.6209658203125,7.90303814637959,2.500129301527142,-0.6625327656060457
1783170094024035000,2.63103515625,7.901308546108007,2.608971953561902,-0.46258605692069976
1783170094034104800,2.641104736328125,8.08325267471075,2.722593656566739,-0.3407381581665948
1783170094044174000,2.651174072265625,8.349297812801598,2.9730536875128744,-0.2624802486835047
1783170094054242800,2.661242919921875,8.329781211426853,3.153381905351579,-0.30362034231806173
1783170094064312800,2.671312744140625,8.141658101928234,3.165540252918005,-0.4954863464057445
1783170094074381800,2.6813818359375,7.624887559953332,3.03967983058691,-0.8543086254585534
1783170094084451800,2.691451904296875,7.11262952696681,2.6719550639584657,-1.3305806413717567
1783170094094520800,2.701520751953125,6.339184901836514,1.979768187714368,-1.6786317163676023
1783170094104590800,2.7115908203125,4.68403693690896,1.187815845990926,-1.9939659321539103
1783170094114659600,2.72165966796875,2.235840067192912,0.05079962838888168,-2.3589729642562567
1783170094124729600,2.7317294921875,-1.078424766293168,-1.1645511441290377,-1.9706091680943965
1783170094134798600,2.741798583984375,-5.304432688531279,-2.4420056138604878,-0.7036740465506911
1783170094144868600,2.75186865234375,-10.003532170015573,-3.9815754810184236,0.2102538023618981
1783170094154937900,2.761937744140625,-14.718526555246115,-5.441344666230679,0.2493687103117816
1783170094165007600,2.772007568359375,-19.11336427296996,-7.353206461802125,-0.02390359342047013
1783170094175076600,2.78207666015625,-22.453152839291093,-8.537540164765716,0.7160354424085468
1783170094185146600,2.792146728515625,-24.39409050722122,-8.269839076161384,2.5970693343222138
1783170094195215600,2.802215576171875,-25.95823601270914,-7.815186259925365,5.106694778469205
1783170094205285600,2.81228564453125,-28.910735572493074,-7.002504433906078,6.973042777100205
1783170094215354600,2.822354736328125,-33.618061030530924,-5.975766600230336,6.5040995697051285
1783170094225423600,2.832423583984375,-37.0920219204545,-4.150372543278336,3.6686312291085716
1783170094235493600,2.84249365234375,-36.28151451586485,-2.8292256468147037,0.4788689370712265
1783170094245562600,2.852562744140625,-31.924214793896674,-2.341515633498877,-1.5681266840785741
1783170094255632600,2.862632568359375,-25.614156033301352,-2.3891497835941613,-2.836528371043503
1783170094265701600,2.87270166015625,-18.81477997032404,-2.8476746189579365,-3.4852143976047634
1783170094275771600,2.882771728515625,-12.911592868614196,-3.3439000932931897,-2.6844968578845263
1783170094285840600,2.892840576171875,-7.683336826312542,-3.1963755361646413,-0.9918030061557889
1783170094295910700,2.90291064453125,-3.6540941697120664,-2.491529815486073,0.5575019269444048
1783170094305979600,2.912979736328125,-0.831464267900586,-1.6399804986730218,1.0343673056408762
1783170094316049700,2.923049560546875,1.303212011322379,-0.4585642905913293,0.7383017808828503
1783170094326118700,2.93311865234375,2.7586025430589913,0.5092747793920338,0.40768787063919004
1783170094336188700,2.943188720703125,3.427161144825816,1.1737053414434193,0.43543921639584005
1783170094346257700,2.953257568359375,4.103970273065567,1.5504329142168163,0.5437644934929907
1783170094356327400,2.963327392578125,5.478842914497852,1.6215106298722326,0.5077929433364421
1783170094366396700,2.973396728515625,7.485955474603176,1.5698299808651208,0.5371296585883945
1783170094376466700,2.983466796875,9.83589129205346,1.6533075977578757,0.5572001675188542
1783170094386535700,2.99353564453125,11.979520108538866,1.6662918747544289,0.40762963764593
1783170094396604400,3.0036044921875,12.696485306078195,1.6687909980937838,0.4681834020037204
1783170094406674700,3.0136748046875,12.217526900625229,1.8206493466429412,0.4756029575452208
1783170094416743400,3.023743408203125,11.71898701186776,1.8100773914851247,0.48531639617756006
1783170094426813700,3.033813720703125,11.472200700998306,1.8330898721516131,0.6091444358982145
1783170094436882700,3.043882568359375,11.334793633258341,1.9090897005096077,0.7307050421435386
1783170094446952700,3.05395263671875,11.313826833075284,1.977686705265194,0.817761832697317
1783170094457021700,3.064021728515625,11.348999853265285,2.015795048254728,0.8806067767322063
1783170094467091500,3.074091552734375,11.362037029492855,1.9718485006310045,0.8301860646583139
1783170094477160700,3.08416064453125,11.642705736219883,1.8065315355718135,0.6388805987965315
1783170094487230500,3.09423046875,12.013736850917338,1.630104709085822,0.5792650651369243
1783170094497299700,3.1042998046875,12.007960605603456,1.6187681992962955,0.7250080726109445
1783170094507369500,3.114369384765625,11.82691547166705,1.57708623560369,0.8748763433214276
1783170094517438700,3.124438720703125,11.627931360936165,1.6226182988531888,1.0146382305592299
1783170094527508700,3.1345087890625,11.1748170063138,1.7045532163485884,1.251027358315885
1783170094537577700,3.14457763671875,10.282753600543737,1.8615910133622586,1.4066612798810005
1783170094547647700,3.154647705078125,9.380019747677444,2.0527768714323638,1.3586135805487631
1783170094557716700,3.164716796875,8.777633699998258,2.258448643233627,1.3003116137057542
1783170094567785700,3.17478564453125,8.48083452720344,2.4212847512625157,1.2885504487633705
1783170094577855500,3.18485546875,8.389182079422474,2.5471125864982604,1.204453019471839
1783170094587924700,3.1949248046875,8.51278098656237,2.6449726567476985,0.9100797586496919
1783170094597994500,3.204994384765625,8.623109493240714,2.800653632324934,0.7610952119711786
1783170094608063700,3.215063720703125,8.605276899430155,2.862490787556767,0.7015121923416853
1783170094618133500,3.225133544921875,8.521694360858202,2.875725532183051,0.6762867118008434
1783170094628202800,3.23520263671875,8.434167468574643,2.899096178637445,0.5216742057053372
1783170094638272500,3.2452724609375,8.084227072700857,2.951416440722346,0.30548717736955733
1783170094648341800,3.255341796875,7.80441644410789,2.874977636425197,0.18067852911371737
1783170094658411800,3.265411865234375,7.778579992061853,2.812584308615327,0.3563771874556318
1783170094668480500,3.27548046875,8.095639862596988,2.661581261721253,0.39592586544658986
1783170094678550800,3.28555078125,8.28614665236175,2.3455862439386546,0.36597485422119497
1783170094688619500,3.29561962890625,8.101672713020443,1.9193990592084824,0.23260957268532365
1783170094698689800,3.305689697265625,7.1606100062817335,1.274561963160336,0.12796597977560012
1783170094708758500,3.315758544921875,5.411946722310781,0.4001265685394406,-0.26896997602898626
1783170094718827800,3.325827880859375,2.2620874381273985,-0.6692774175606667,-0.6804600519627332
1783170094728897500,3.3358974609375,-2.2307219935268163,-1.2522991318173706,-0.31961317174714055
1783170094738966800,3.345966796875,-8.11260970209837,-1.4375060616083442,0.5640183231011032
1783170094749036500,3.35603662109375,-14.890031122899055,-1.5098495594158767,1.1716392026938498
1783170094759105800,3.366105712890625,-20.838277848041056,-2.0277064353227616,0.8533577544745057
1783170094769175600,3.376175537109375,-23.175446538376807,-3.1850112615853545,-0.23374151759101078
1783170094779244500,3.38624462890625,-21.580440615200995,-4.205917904889583,-1.038370476867631
1783170094789314800,3.396314697265625,-19.213568860518933,-5.350702856796979,-0.6037149947280064
1783170094799383600,3.406383544921875,-19.023213461923596,-6.17926848064661,0.5441841802097857
1783170094809453800,3.416453857421875,-21.569937925887107,-6.088188279795646,1.3766263532318175
1783170094819522600,3.4265224609375,-25.786723261749742,-4.839482350164651,1.3907020787268876
1783170094829592800,3.4365927734375,-30.43954789879322,-2.822457175593078,0.23049444369487462
1783170094839661600,3.44666162109375,-34.856707338440415,-0.5867341589085757,-1.6470193112686276
1783170094849731600,3.456731689453125,-36.231818464803695,0.852492808208242,-3.2179993389517065
1783170094859800600,3.466800537109375,-33.68318378330469,1.172357360900566,-3.315012436982989
1783170094869870600,3.47687060546875,-28.284766404652594,0.6306261998660863,-2.121107334206253
1783170094879939600,3.486939697265625,-21.385607778930662,-0.42939533312171696,-0.9509777323577553
1783170094890008600,3.497008544921875,-14.237426461589335,-1.161650454251468,-0.4545088046554476
1783170094900078600,3.50707861328125,-7.001684349694847,-1.502324862999469,0.06448883878439665
1783170094910147600,3.517147705078125,-0.7834206602215766,-1.4102385538458824,0.6420446888506413
1783170094920217900,3.5272177734375,3.653309741336107,-1.088348486675322,1.1992273207128048
1783170094930286600,3.53728662109375,6.101819330263138,-0.8430676119327545,1.489526317833364
1783170094940356600,3.547356689453125,6.856174054998159,-0.4559622913993895,1.3841110098987817
1783170094950425600,3.557425537109375,6.798334444969892,0.08744666665419935,1.3965171947464345
1783170094960495600,3.56749560546875,6.965733915391564,0.43659255114942785,1.3006506364017725
1783170094970564600,3.577564697265625,7.075352227973937,0.6730436382263898,1.0071337732132524
1783170094980634600,3.587634521484375,7.258740710166096,0.9283015709735453,0.8192313937932253
1783170094990703600,3.59770361328125,8.137903133308887,1.1963149403974414,0.5664483267270028
1783170095000773600,3.607773681640625,9.961029245328902,1.5398182889610528,0.3879438171841204
1783170095010842600,3.617842529296875,11.920955691367388,2.0286580369591714,0.30130189104154703
1783170095020912600,3.62791259765625,13.110541908031701,2.245184964773804,0.24580972092226147
1783170095030981600,3.637981689453125,13.404483937829733,2.1092099756635725,0.6170344584956765
1783170095041050600,3.648050537109375,13.091599891674518,2.0170827499777078,0.9224705267325043
1783170095051120600,3.65812060546875,12.673767278313637,2.0697806132033465,1.1136711439803242
1783170095061189600,3.668189697265625,12.47841655564904,1.949018683055043,1.3964553815566003
1783170095071259600,3.678259765625,12.343608272230625,1.7964532091498373,1.8762062525615095
1783170095081328600,3.68832861328125,12.033112582516669,1.6946484929278491,2.420884499898553
1783170095091398700,3.698398681640625,11.770318555176257,1.6246180943682789,2.716739962102473
1783170095101467600,3.708467529296875,11.269114415645598,1.6468071298226714,2.8498364731669423
1783170095111537700,3.71853759765625,10.922130531489849,1.7286171057641506,2.8028514346301554
1783170095121607000,3.72860693359375,10.776540157294273,1.8290832668587564,2.568608963513374
1783170095131677000,3.738677001953125,10.555971991264819,1.9721734948016703,2.266803068472445
1783170095141746000,3.748745849609375,10.200732319939135,2.12793864153102,1.9154183190092444
1783170095151816000,3.75881591796875,9.506747600492835,2.1769158767983314,1.5312190951809286
1783170095161884700,3.768884765625,8.626774445489048,2.3311733954437077,1.3015985847763716
1783170095171954000,3.778953857421875,8.036969646963477,2.53203455209285,1.039302716216445
1783170095182023700,3.789023681640625,7.849725073865056,2.6641765389114616,0.8712503348439932
1783170095192093000,3.799093017578125,7.674265046584606,2.63971985078603,0.7610359560646116
1783170095202162700,3.80916259765625,7.635006218385696,2.5341473064631224,0.6772029498629272
1783170095212232000,3.81923193359375,7.817364188486337,2.5211259123265743,0.6869678264215588
1783170095222301700,3.8293017578125,8.046345378074049,2.5570810228049754,0.5903573543744162
1783170095232371000,3.839370849609375,8.325521800416707,2.6538684953868388,0.26181919095888734
1783170095242440700,3.849440673828125,8.587881527993083,2.7619237964361902,0.14724036989230663
1783170095252510000,3.859510009765625,8.558440913975238,2.8523113388478754,0.09542487899176776
1783170095262580000,3.869580078125,8.253799210986495,2.932610325704515,-0.07960837424397468
1783170095272648700,3.879648681640625,7.716924623137712,3.0024586456954476,-0.21871256475802509
1783170095282719000,3.889718994140625,7.3700044518679375,2.8700106616675853,-0.36753110721986737
1783170095292787700,3.89978759765625,7.5775763582021,2.5292642105966805,-0.4918796636832878
1783170095302858000,3.90985791015625,7.521634106227755,1.9549147553563118,-0.36246918418779966
1783170095312926700,3.9199267578125,6.918969826129079,1.3646554910615085,-0.14015625685025004
1783170095322996700,3.929996826171875,5.991241232737899,0.6926867885902523,0.08164707699734718
1783170095333065700,3.940065673828125,4.487831643241644,-0.0816324274174869,0.13761676496788858
1783170095343135000,3.950135009765625,2.32909468947351,-0.7205708208158612,0.11271653432603924
1783170095353204700,3.960204833984375,-1.3338444654732942,-0.9893221491254865,0.3463171638753265
1783170095363274000,3.97027392578125,-6.9570479201108215,-1.0824114978417754,0.32762046404872086
1783170095373343700,3.98034375,-13.039652262294291,-1.6073555555306374,-0.28538937857337293
1783170095383412700,3.990412841796875,-17.819504027360676,-2.603199215379357,-1.0349951552156358
1783170095393482800,4.000482666015625,-20.935850918042657,-3.2272353693306446,-1.1926008152451366
1783170095403551700,4.0105517578125,-22.609725210750103,-3.3423680614203213,0.1534616372936405
1783170095413622000,4.0206220703125,-24.135334357094763,-3.6254619494676588,2.251462583738565
1783170095423690800,4.030690673828125,-26.607270414316652,-3.34511180717051,3.4296281194612384
1783170095433760800,4.0407607421875,-29.57317890625,-2.2943631294406948,2.6140768754854795
1783170095443829800,4.050829833984375,-31.355065829908845,-1.6163449176721274,-0.014724503693426958
1783170095453899800,4.060899658203125,-32.25032189424038,-1.2211010066077113,-2.4678522950395942
1783170095463968800,4.07096875,-32.17152132924795,-1.1634436212785542,-3.379079250963032
1783170095474037800,4.081037841796875,-30.47598465530872,-1.67067228179574,-2.930981847719848
1783170095484107800,4.091107666015625,-27.01552855912447,-2.0722291753992437,-2.197552275983244
1783170095494176800,4.1011767578125,-22.223049952197073,-2.387852875651419,-1.645608567687869
1783170095504246800,4.111246826171875,-16.81503706220388,-2.41391466088593,-1.0177211451359092
1783170095514315800,4.121315673828125,-11.46243801639676,-2.1195842162922025,-0.4165460441490635
1783170095524385800,4.1313857421875,-6.649456135144829,-1.8131513921029865,-0.08288030858673155
1783170095534454800,4.141454833984375,-2.842441102218628,-1.296344317509979,0.06924330330248922
1783170095544524800,4.15152490234375,0.19400515327453613,-0.7168975391305983,0.07213548108004034
1783170095554593800,4.16159375,2.7081442754536864,-0.1428171100899577,0.16948453306742012
1783170095564663800,4.171663818359375,4.479507467010617,-0.007740384993702173,0.17627799259983
1783170095574732800,4.18173291015625,5.814504609650373,-0.1581827292650938,0.23577903303429482
1783170095584802800,4.191802734375,7.129476032349467,-0.13631503471955655,0.39493404139764604
1783170095594871800,4.201871826171875,8.485769645518063,-0.03850654852688312,0.4792432868089527
1783170095604940800,4.21194091796875,9.947554846727847,0.33619814011678095,0.5156107774805277
1783170095615010800,4.2220107421875,11.093965938532351,0.6701650140501558,0.531518467643112
1783170095625079800,4.232079833984375,11.940142037874459,0.8999426147125661,0.4691142531130463
1783170095635149800,4.24214990234375,12.669417266410589,1.2588399317629635,0.34936603005193173
1783170095645218800,4.25221875,13.3416548489511,1.5065437958687542,0.2469738693308085
1783170095655288600,4.26228857421875,13.725185379737615,1.5623774729020892,0.2920907759081572
1783170095665357800,4.27235791015625,13.695980328041314,1.5269382029913365,0.4139293953772634
1783170095675427800,4.282427734375,13.400053261905908,1.4380869302362203,0.5166210505016148
1783170095685496800,4.292496826171875,12.77825641131401,1.2448970388673246,0.7947394882239401
1783170095695566800,4.30256689453125,12.005588615775107,1.0513827378496527,1.1080752236694096
1783170095705635800,4.3126357421875,11.28104801454544,0.9398805112168193,1.3247683018311858
1783170095715705900,4.322705810546875,10.787094284534454,0.9564736263602972,1.425704856916517
1783170095725774800,4.33277490234375,10.484923355573414,1.1501371265903115,1.4422735682711005
1783170095735844900,4.342844970703125,10.330154818665982,1.2586267274037002,1.2851505771920084
1783170095745913900,4.352913818359375,10.251925916081666,1.3490867505297064,1.0208879386037588
1783170095755982800,4.36298291015625,10.148213028150796,1.6108993656173347,0.6435927220102399
1783170095766052600,4.373052490234375,9.868230550122261,1.7642717719912528,0.2970075731148012
1783170095776121900,4.383121826171875,9.374777170848846,1.9941664231620728,0.3126120608134195
1783170095786191600,4.393191650390625,8.955067073178292,2.176295260681957,0.6570509731940924
1783170095796260900,4.4032607421875,8.518196581870317,2.252025916709751,0.9423913249939679
1783170095806331000,4.413330810546875,8.019754892790317,2.3160222958020866,0.9633858899667859
1783170095816400000,4.42339990234375,7.739933742803335,2.3019027311652898,0.8864389169517904
1783170095826470000,4.433469970703125,7.872001203081012,2.2774477966055273,0.7319475164853037
1783170095836539000,4.443538818359375,8.419442193129658,2.3043469094470144,0.4308902478545904
1783170095846609000,4.45360888671875,9.152381789392232,2.3184604827344417,0.1995382192160003
1783170095856678000,4.463677978515625,9.56440133256018,2.356087910339236,0.14350856295283884
1783170095866747000,4.473746826171875,9.740631175169348,2.356043194414675,0.011629903245531021
1783170095876816600,4.483816650390625,9.489795296648143,2.3334423632889987,-0.1663017200465314
1783170095886886000,4.493885986328125,8.97545519669056,2.222627826659381,-0.14322348066745325
1783170095896955600,4.50395556640625,8.40466957141161,2.014068370592594,-0.0811547451694496
1783170095907025000,4.51402490234375,8.087022840899229,1.9269228788420556,-0.12730452019218355
1783170095917094700,4.5240947265625,7.93310069168806,1.858219052711129,-0.1635770443229936
1783170095927164000,4.534163818359375,7.565924498853087,1.6027828407876192,-0.09120536160059273
1783170095937233700,4.544233642578125,6.94097415266633,1.1939385666549205,0.11790741750001907
1783170095947303000,4.554302978515625,6.014993864247202,0.7637547135040164,0.17223768596677108
1783170095957373000,4.564373046875,3.857113819569349,0.4464645413443446,-0.12580365977571345
1783170095967442000,4.57444189453125,-0.01296703360080719,-0.23120485698655246,-0.6273109378382563
1783170095977512000,4.584511962890625,-5.501150023373961,-1.0742341827355324,-0.9289275939173995
1783170095987580700,4.59458056640625,-10.892488257420062,-2.0935174626216293,-0.5271089806377888
1783170095997651000,4.60465087890625,-15.425014782434701,-2.8366765473425386,0.17276965568531302
1783170096007719700,4.6147197265625,-18.518207592022417,-3.7798692518472667,0.23956328254705295
1783170096017789000,4.624788818359375,-20.459313602256774,-4.5171489231407636,0.09734686003029346
1783170096027858700,4.634858642578125,-21.872762350320816,-4.742054533852636,-0.24471341358553617
1783170096037928000,4.644927978515625,-22.552799792957305,-4.75368593493551,-0.6288266761634499
1783170096047997700,4.654997802734375,-24.26777766494751,-4.090324317289888,-0.1560487859763205
1783170096058067000,4.66506689453125,-28.399648336851595,-2.858311456045508,0.5304499981613829
1783170096068136700,4.67513671875,-33.38805868120193,-1.6319345548614859,-0.11108980990704148
1783170096078205700,4.685205810546875,-36.47033612902164,-0.4947212072521448,-1.9571976055964826
1783170096088276000,4.69527587890625,-36.776931888687606,0.31846944507211444,-3.311467603982985
1783170096098344700,4.7053447265625,-33.60380804877281,0.6352724913019686,-3.0961510748714205
1783170096108415000,4.7154150390625,-28.267515994644164,0.36960057043768463,-2.4631769967049357
1783170096118483500,4.7254833984375,-22.085402061438558,0.05480732966028153,-2.127683789987117
1783170096128552400,4.735552490234375,-15.35258199890852,0.01595094478242099,-1.6372341225743292
1783170096138622500,4.74562255859375,-9.16956556390524,-0.22967121767848728,-1.1214742920119314
1783170096148691500,4.75569140625,-3.9755525674670933,-0.41051030764877794,-0.3550177722033113
1783170096158761500,4.765761474609375,0.4291711689770221,-0.305414294796437,0.32242008239403364
1783170096168830500,4.77583056640625,3.475087848126888,-0.18396058299168944,0.5249897965267301
1783170096178900500,4.785900390625,5.091437588104605,-0.03462006248235702,0.7765062777232379
1783170096188969500,4.795969482421875,5.943180089402198,0.11007847744002938,1.1229461181301623
1783170096199039500,4.80603955078125,6.613615590956806,0.19307897834032772,1.198954641251266
1783170096209108500,4.8161083984375,7.105339369958639,0.46901641876176,0.9998801488231867
1783170096219178500,4.826178466796875,7.5770672396361824,0.8132097954161465,0.6448415530275553
1783170096229247200,4.836247314453125,8.535600136613846,1.2056669983714818,0.429949167612195
1783170096239317500,4.8463173828125,9.580269932821393,1.5490497892953454,0.36745932062529024
1783170096249386200,4.85638623046875,10.68081534550786,1.823259383010864,0.2515210112411529
1783170096259456500,4.86645654296875,11.723344038033485,2.1436099656544623,0.24787395997568965
1783170096269525500,4.876525390625,12.585691519975661,2.324979947631061,0.2623659381214529
1783170096279594500,4.886594482421875,13.107452125322817,2.2615246896781027,0.1078373474497348
1783170096289664500,4.89666455078125,13.060592174470424,1.9953515412934124,-0.000883650966733694
1783170096299733500,4.9067333984375,12.386741311514378,1.7692644657120107,0.1676893932789564
1783170096309803500,4.916803466796875,11.710686801034212,1.581351784093678,0.5298180934660136
1783170096319872300,4.926872314453125,11.02116023004055,1.4358284837849438,0.9141608904834836
1783170096329942500,4.936942626953125,10.594468602919578,1.3831246292099355,1.064763612948358
1783170096340011300,4.94701123046875,10.443412949055432,1.4197532550357281,1.18286823352091
1783170096350081500,4.95708154296875,10.491355434447525,1.408360046622902,1.4353297404825687
1783170096360150300,4.967150390625,10.755127951431273,1.395170894704014,1.652113711798191
1783170096370220500,4.977220458984375,10.973148771065473,1.4670153569482267,1.6239954324252903
1783170096380289300,4.987289306640625,10.980781457901001,1.6086057017222046,1.346115771894902
1783170096390358500,4.997358642578125,11.034348212915658,1.7098793798074126,1.1333654400095343
1783170096400428500,5.007428466796875,10.856128657793999,1.8755847596623003,1.1441735420107841
1783170096410497500,5.01749755859375,10.331687435060738,2.085969385329634,1.1444126845289022
1783170096420567600,5.027567626953125,9.677492874211072,2.37912786353454,0.9952952321857214
1783170096430636300,5.03763623046875,9.147071408024429,2.6743478043138977,0.7271889237813651
1783170096440706600,5.04770654296875,8.75741391879022,2.812900534957647,0.5589728762798011
1783170096450775300,5.057775390625,8.68453222245276,2.7854432037115093,0.5446402168815955
1783170096460845600,5.067845458984375,8.938478926470875,2.660742472809553,0.6036179275617003
1783170096470914300,5.077914306640625,9.011517274674773,2.67913737667799,0.6578123860206455
1783170096480984600,5.087984619140625,8.921059589636325,2.6830101264581083,0.540305804406479
1783170096491053300,5.09805322265625,8.835198000216483,2.7222657397866246,0.35167653548400846
1783170096501123300,5.108123291015625,8.655055368077754,2.657406606385112,0.2649007172960788
1783170096511192300,5.1181923828125,8.32562935244441,2.527541916848719,0.1419346281670034
1783170096521261600,5.128261474609375,8.232332644587755,2.374990179207921,0.15318612655419855
1783170096531331600,5.13833154296875,8.30970171547234,2.1986136216044425,0.22860220020748673
1783170096541400300,5.148400390625,8.093672361916303,1.946598908562213,0.33583946287222205
1783170096551470600,5.158470703125,7.444846050101519,1.5216248990140855,0.45213480553310365
1783170096561539300,5.168539306640625,6.438983831194043,0.9415956445716321,0.3320551585605368
1783170096571609600,5.178609619140625,4.348451814123988,0.22825521340072152,0.13509166693706065
1783170096581678300,5.18867822265625,0.8779507092654705,-0.7042649981811642,0.14191190487854183
1783170096591748400,5.198748291015625,-3.877397898185253,-1.423776226941496,0.12361852515581995
1783170096601817300,5.2088173828125,-9.001633594042062,-2.0790189816698432,0.22836512178229168
1783170096611887400,5.218887451171875,-13.315984985643624,-2.518297703163326,0.4752666017303243
1783170096621956400,5.228956298828125,-16.674426814508436,-3.515976323354244,0.0751636560950661
1783170096632026400,5.2390263671875,-19.106915827482936,-4.744307865737379,-0.45512295449841766
1783170096642095400,5.249095458984375,-20.294092644917963,-5.028590379047394,0.5928895397331565
1783170096652164400,5.259164306640625,-20.98273424977064,-5.087883695015311,2.2953302209071813
1783170096662234400,5.269234375,-22.51946100245714,-5.324565960499644,3.9366125959590077
1783170096672303400,5.279303466796875,-25.83574126741886,-4.734004206126928,4.8728076966613525
1783170096682373600,5.28937353515625,-29.938395197188854,-3.4445044938147067,3.9770068579286333
1783170096692442400,5.2994423828125,-32.95341054211855,-2.282062596924603,1.8717548261106014
1783170096702512400,5.309512451171875,-33.60897054610252,-1.6874840081259608,-0.4112148757215589
1783170096712580400,5.319580322265625,-30.60131783889532,-1.6336222156874836,-1.9974591810971498
1783170096722650600,5.329650634765625,-25.923157685065267,-1.970252317480743,-2.5979484552443024
1783170096732719400,5.33971923828125,-21.590265259122848,-2.4307924381896853,-2.6403888360887766
1783170096742789600,5.34978955078125,-17.851719366788863,-2.6825091911986467,-2.412668021825701
1783170096752858400,5.3598583984375,-14.843548773187399,-2.5782430532991887,-1.782820989638567
1783170096762928400,5.369928466796875,-11.967905658590793,-1.885119919118285,-0.7478373787302524
1783170096772997400,5.379997314453125,-9.347846493825315,-0.8734035673551261,0.199692003271915
1783170096783067400,5.3900673828125,-8.148492916384338,0.45427039278969167,0.6170463681291788
1783170096793136400,5.400136474609375,-7.784838467934727,1.5894117564305663,0.010843611706048249
1783170096803206400,5.410206298828125,-6.404370198452472,2.1998436017908154,-0.9182089237652719
1783170096813275400,5.420275390625,-3.5070296313107012,2.1068745184533295,-1.3315011172175406
1783170096823345400,5.430345458984375,0.20014380216002464,1.6317504304662347,-1.02609383668378
1783170096833414400,5.440414306640625,4.7656361927092075,1.0847415482245386,-0.681045304504782
1783170096843483400,5.4504833984375,9.018550826573371,0.5127016851007938,-0.1581861267985776
1783170096853553400,5.460553466796875,11.79578734295368,0.6944216495588421,0.4217129984581843
1783170096863622400,5.470622314453125,12.922434580624103,1.5929069050699471,0.88126655581519
1783170096873692400,5.4806923828125,12.643418901801109,2.505547819444537,0.7515968043290078
1783170096883761400,5.490761474609375,12.329950333756207,2.9722084688603876,0.306246069445461
1783170096893831400,5.50083154296875,12.582277912139892,3.1540263407349585,0.03340352629944682
1783170096903900400,5.510900390625,13.063904075497389,3.211706376287341,-0.05881828233469277
1783170096913970400,5.520970458984375,13.31034434940815,2.947996110884845,-0.09051328768320381
1783170096924039400,5.531039306640625,13.212049979394674,2.519904261577129,0.04581442385483533
1783170096934109400,5.541109375,12.875324454402923,2.082836201870441,0.19125574496854095
1783170096944178400,5.551178466796875,12.725360687428712,1.7991253509685396,0.3920147929500788
1783170096954247400,5.561247314453125,12.886853564155102,1.4192121338963508,0.5813858932157978
1783170096964317400,5.5713173828125,12.783386175417899,1.229376375260949,0.8356591623071581
1783170096974386400,5.581386474609375,12.117699914216994,1.2328797072067856,1.0409795633874832
1783170096984456400,5.59145654296875,11.478014355713128,1.3724299244552849,1.213188333787024
1783170096994525400,5.601525390625,11.211102956181763,1.5881678938493131,1.372773331065476
1783170097004595500,5.611595458984375,11.113472603034973,1.8117141989067196,1.4139415000170468
1783170097014664400,5.62166455078125,11.126939987373351,2.1376909508690236,1.4056580941878258
1783170097024734500,5.631734375,11.107542043942212,2.561093473316729,1.2232459827471525
1783170097034803500,5.641803466796875,10.840744041657446,2.946507625892758,0.8923035712014883
1783170097044873500,5.65187353515625,10.18899512039423,3.264731864032149,0.5560975400391965
1783170097054942500,5.6619423828125,9.336950421279669,3.471524310426414,0.30270772098517046
1783170097065011500,5.672011474609375,8.356294539821148,3.513861523157358,0.04206283450266346
1783170097075081500,5.68208154296875,7.6611209028512235,3.3792052154302596,-0.24995745171885936
1783170097085150500,5.692150390625,7.0480901270389555,3.2259634496986864,-0.4088840216211974
1783170097095221500,5.702221435546875,6.589032353842258,3.0283886212438342,-0.22557737249359489
1783170097105290500,5.71229052734375,6.9201377008646725,2.7112165225058793,-0.02214696814464405
1783170097115359000,5.72235888671875,7.869330522567033,2.6231021857231855,0.0953120845333673
1783170097125429200,5.73242919921875,8.64808903619647,2.657812849098444,0.12103435388151555
1783170097135498000,5.742498046875,9.401855147388577,2.596044082927704,0.03910140914749354
1783170097145568300,5.752568359375,10.175525397968292,2.5664409718245267,-0.01738326087417081
1783170097155637000,5.762636962890625,10.631875665771961,2.671899242118001,0.06476449565431103
1783170097165707000,5.77270703125,10.692000756388902,2.712636326175928,0.21638275183727965
1783170097175776300,5.7827763671875,10.305684394276142,2.693711845475435,0.3714360422365367
1783170097185846000,5.792845947265625,9.311438963404298,2.686861833450198,0.40606772209145126
1783170097195915300,5.802915283203125,8.242835333901644,2.526337217234075,0.37600780713148413
1783170097205985000,5.812985107421875,7.222966216951608,2.2682691955022514,0.16208991103777662
1783170097216054300,5.82305419921875,5.8689750355064865,2.069485868040472,-0.17598364929575472
1783170097226123000,5.833123046875,4.022644573509693,1.695252888561785,-0.27901929555218663
1783170097236193300,5.843193359375,2.8261376176714896,0.8822130428850651,-0.4480803059779107
1783170097246262000,5.853261962890625,1.36240537404716,-0.21332959307804703,-0.5272723179733381
1783170097256332000,5.86333203125,-0.9435077618032693,-1.619022758579254,-0.224670084922947
1783170097266401000,5.873401123046875,-4.676564409071207,-2.736444779525697,0.31642321659941225
1783170097276471000,5.883470947265625,-9.966493355953693,-3.0309789299979806,0.7014592931106686
1783170097286540000,5.8935400390625,-15.493625961846112,-3.529246139293909,-0.06346815396714955
1783170097296610000,5.903610107421875,-20.415413670253752,-3.9300948846280575,-1.310360714033246
1783170097306679300,5.91367919921875,-23.51658754172325,-3.495297400201857,-1.7320191692925988
1783170097316749000,5.9237490234375,-24.643040718126297,-2.890406968486309,-1.3192092063993215
1783170097326818300,5.933818359375,-26.19201437344551,-2.495454295453429,-0.5823482354419306
1783170097336888000,5.94388818359375,-28.724418051111698,-2.2514134838998316,-0.24628798769218846
1783170097346957300,5.953957275390625,-31.00609924750328,-2.0714821564242243,-0.46302105080448086
1783170097357026000,5.964026123046875,-31.936653419709202,-1.9862481973834334,-0.943323929668963
1783170097367096000,5.974095947265625,-31.98091809337139,-2.0224607897542417,-1.7790800495445727
1783170097377165000,5.9841650390625,-31.16805857269764,-2.0489371471390125,-2.855510719411075
1783170097387235000,5.994235107421875,-29.115224710381028,-1.9122228839688002,-3.581392798377573
1783170097397304000,6.004303955078125,-26.2990473457098,-1.819669541825354,-3.028773528908193
1783170097407374000,6.0143740234375,-22.922484169220922,-2.0268805058926342,-1.6010136391580103
1783170097417443000,6.024443115234375,-18.393644808286428,-2.1889650649018586,-0.40396768107227976
1783170097427513000,6.03451318359375,-13.024618359291553,-2.188618589551747,0.44880818186104293
1783170097437582000,6.04458203125,-7.434861831703782,-2.09788398726806,1.001947895007953
1783170097447652000,6.054652099609375,-2.8635809208810326,-1.7673166926451027,1.0082412229984998
1783170097457721300,6.064721435546875,-0.08955109158754349,-1.3358540517300366,0.6543648028500377
1783170097467790000,6.0747900390625,1.6118699642151593,-0.737672323872894,0.18310966525077818
1783170097477860000,6.084860107421875,2.936054620939493,-0.07259411156773567,-0.22965536252222954
1783170097487929000,6.09492919921875,3.9812697760701177,0.6686243604794144,-0.4492865399625152
1783170097497999000,6.1049990234375,5.011573193272948,1.5804130419388414,-0.4962585728872567
1783170097508068000,6.115068115234375,5.99925795045495,2.2930339266635476,-0.04447992384806275
1783170097518138000,6.12513818359375,7.252490417599677,2.721647900149226,0.478124658042565
1783170097528207000,6.13520703125,9.051292235702276,3.4707512802273035,0.6499767239589244
1783170097538277000,6.145277099609375,11.359387976288795,4.37397174756676,0.6682265202682465
1783170097548346000,6.15534619140625,13.611923742216824,4.946961312630772,0.797745611237362
1783170097558416100,6.165416015625,14.944022240805625,4.886944358563423,0.9160338447485119
1783170097568485000,6.175485107421875,15.344958664423226,4.334249978031218,0.8310612400576471
1783170097578554000,6.18555419921875,14.815347930097579,3.9975513410463925,0.8789197734933346
1783170097588624100,6.1956240234375,14.04224758836031,3.745721483051777,0.9301555282771586
1783170097598693000,6.205693115234375,13.554500311774015,3.4087937134861943,0.9682575876563787
1783170097608763100,6.21576318359375,13.028977723544836,3.165601627716422,1.0682186487730592
1783170097618832100,6.22583203125,12.231395266979932,3.013917028298974,1.085607152077928
1783170097628902100,6.235902099609375,11.537138744854927,2.815404042211175,1.089128969528526
1783170097638971100,6.24597119140625,11.190821215653418,2.609329388697445,1.1006203776188195
1783170097649041200,6.256041259765625,11.236910766655207,2.4025673374414445,1.312839086845517
1783170097659110100,6.266110107421875,11.053346343374251,2.393163695410639,1.4080315453208982
1783170097669180200,6.27618017578125,10.649935054075717,2.3695124784491957,1.3978010970771313
1783170097679249200,6.286249267578125,10.109569116979836,2.414024551001191,1.3788424218460917
1783170097689318100,6.296318115234375,9.562638414540887,2.3667007820293304,1.1124344417922198
1783170097699388000,6.306387939453125,9.098426911842823,2.2947452606260774,0.823376969165355
1783170097709457200,6.31645703125,8.524057582858203,2.20605020134598,0.5298086680505425
1783170097719527200,6.326527099609375,7.814804567131399,2.092881941197067,0.341575193512626
1783170097729596200,6.33659619140625,7.42117525165677,1.86572884381935,0.2786448727492243
1783170097739666200,6.346666259765625,7.514716874185204,1.663812625159323,0.22103048631157723
1783170097749735200,6.356735107421875,8.101531258723139,1.6645197505153715,0.1493205554335378
1783170097759805200,6.36680517578125,8.528796301817893,1.6531439316287635,0.060814808180462566
1783170097769874200,6.376874267578125,8.760433558872341,1.4880091912686824,-0.10505005481876432
1783170097779944200,6.386944091796875,8.806788482812047,1.5099332921765745,-0.18148063927683977
1783170097790013200,6.39701318359375,8.425887716007232,1.5776124514348804,-0.2100871040254831
1783170097800083200,6.407083251953125,7.86226832909584,1.6551514720588922,-0.2756577466972172
1783170097810152000,6.41715185546875,7.299690560191869,1.7172516621410845,-0.4512689459513873
1783170097820221200,6.42722119140625,6.760760793378949,1.6220912062391637,-0.6815024006225169
1783170097830291000,6.437291015625,6.16981383908093,1.5150177558340132,-0.7368833654522895
1783170097840360200,6.447360107421875,5.264961678886413,1.1853889111049472,-0.7964968532852829
1783170097850430200,6.45743017578125,4.233903643923997,0.8343874618709087,-0.7650524251643568
1783170097860499200,6.467499267578125,3.3072476482003927,0.42674101922065016,-0.7056476847112179
1783170097870569200,6.4775693359375,2.44780173291862,-0.00040083588585257526,-0.5895806343808769
1783170097880638200,6.48763818359375,0.6292430749446153,-0.221695124232769,-0.4989730925429612
1783170097890708200,6.497708251953125,-1.9744155746400356,-0.6615703503146767,-0.48107284032367165
1783170097900777200,6.507777099609375,-4.651553301933408,-1.3055962761104105,-0.5924914072610438
1783170097910847200,6.51784716796875,-6.9593579506188625,-1.662027056916803,-1.2382786436408757
1783170097920916000,6.527916015625,-9.14317089345455,-1.8838890621490776,-1.6964982124477623
1783170097930985200,6.537985107421875,-11.351318067079783,-2.180668361199647,-1.012023444950953
1783170097941055000,6.548054931640625,-13.50814421879053,-2.359721882927418,0.14945768061559647
1783170097951124200,6.558124267578125,-16.106811635959147,-2.160283744818717,1.1593728647083044
1783170097961194000,6.568194091796875,-19.44096891839504,-1.8265644159056245,2.0758640247702598
1783170097971263200,6.57826318359375,-22.683241697859764,-1.1160342198498547,2.497419458046555
1783170097981333000,6.5883330078125,-25.868095723056793,-0.44340150051191446,1.7665002616956829
1783170097991402200,6.59840234375,-28.823003513026237,-0.1742282935284078,-0.02922952855043113
1783170098001472300,6.60847216796875,-29.838874500250814,-0.23114655092805622,-1.699086621505767
1783170098011541200,6.618541259765625,-28.563134433221816,-1.1410206309378146,-2.2548666930936276
1783170098021610000,6.62860986328125,-25.971319950687885,-2.1622033147044477,-2.31945124733746
1783170098031680000,6.638679931640625,-23.199400245416165,-2.6129133846640586,-2.7070141023799774
1783170098041749200,6.648749267578125,-20.564246971893308,-2.6682389660447834,-2.7083488581150768
1783170098051819000,6.658819091796875,-18.316330097937584,-2.4743036631360646,-2.3532930189237
1783170098061888300,6.66888818359375,-15.95120723274946,-2.3367859746284783,-1.7032075008280574
1783170098071958000,6.6789580078125,-13.126236320769786,-2.0446590314283966,-0.783257870875299
1783170098082027300,6.68902734375,-10.479942060029506,-1.6065569524988532,0.29574018352748827
1783170098092097000,6.699096923828125,-7.846687898126244,-1.3751083498843013,1.2221664438821374
1783170098102166300,6.709166259765625,-4.934192431950569,-1.1378764876931906,1.7207155388593673
1783170098112236000,6.719236083984375,-2.0152368298500773,-0.9268151318080723,1.9443248261503874
1783170098122305300,6.72930517578125,0.4414771083205938,-0.7263536420010029,1.6384912830285727
1783170098132374500,6.73937451171875,2.4651170248568057,-0.4701337323538959,0.9648740826979278
1783170098142444500,6.749444580078125,4.208413228836656,-0.060253393171727655,0.5022568634539842
1783170098152513500,6.759513427734375,5.679535582712292,0.4858605860568583,0.4263578651219606
1783170098162583600,6.76958349609375,6.870517637649178,1.1465801647610963,0.4138891364321112
1783170098172652500,6.779652587890625,8.047173645591736,1.8801865543693304,0.23600407396182416
1783170098182722600,6.78972265625,9.543630347210168,2.4426108862772584,0.11397343905195594
1783170098192791600,6.79979150390625,11.254950281214713,2.8276450996249913,0.09142207309119403
1783170098202861600,6.809861572265625,13.19763917672634,2.908342438149452,-0.06720481974482535
1783170098212930600,6.8199306640625,14.705020592463015,2.772475001066923,-0.035655543009936806
1783170098223000600,6.83000048828125,15.738611945295332,2.651874106699228,-0.006445376747101545
1783170098233069300,6.8400693359375,16.23888435693383,2.4249285145923496,-0.010180179361253976
1783170098243138600,6.850138671875,16.237087536644935,2.198929117294401,0.1672675146050751
1783170098253208300,6.860208251953125,15.720419286000727,1.9996924931071698,0.6157382081400603
1783170098263277600,6.870277587890625,14.776848980355261,1.9229224110290406,1.0000039943985641
1783170098273347600,6.88034765625,13.511542629057168,1.981733642568439,1.2930623732298612
1783170098283416600,6.89041650390625,12.283479674482345,2.056265882591903,1.3578398196972905
1783170098293486600,6.900486572265625,11.522123546552658,2.1191592688784002,1.474891351020336
1783170098303555600,6.9105556640625,11.393965953195094,2.145504108837992,1.6395117121174931
1783170098313625600,6.92062548828125,11.400979046827555,2.25623725079447,1.9067530742555856
1783170098323694600,6.930694580078125,11.286336768603324,2.399319587691873,2.0927222205907103
1783170098333764600,6.9407646484375,10.928756671631335,2.632752057600021,1.9677663458839059
1783170098343833300,6.950833251953125,10.391782130539417,2.96292596899122,1.8727520204544066
1783170098353902600,6.960902587890625,9.677152097949385,3.1552783866226672,1.7260224130958317
1783170098363972400,6.970972412109375,9.047475892284512,3.057578475371003,1.5071815092504024
1783170098374041600,6.98104150390625,8.771113942840694,2.9969127020061013,1.3796617754049598
1783170098384111400,6.991111328125,8.800864353460073,2.9896546937018633,1.1192205217357725
1783170098394180600,7.0011806640625,8.842657668572663,2.857884755066037,0.8552849962100386
1783170098404250600,7.011250732421875,8.840825776970386,2.6604338452517986,0.7505816359370946
1783170098414319600,7.021319580078125,9.00311009633541,2.4346326008744534,0.8652028713732958
1783170098424389600,7.0313896484375,9.237745950683951,2.2748947511218485,0.9244815012287348
1783170098434458400,7.041458251953125,9.054357468491792,2.195655064059794,0.7257825641147791
1783170098444528600,7.051528564453125,8.595807644817233,2.210674792406708,0.44490700970403846
1783170098454597400,7.061597412109375,7.901419020745157,2.0277328849382696,0.0606412234455347
1783170098464666600,7.07166650390625,7.33870564276278,1.6632319026619196,-0.11426095075644552
1783170098474736400,7.081736328125,6.971282781690359,1.3113786589041352,-0.060622153418883676
1783170098484805600,7.0918056640625,6.342966173940897,0.7773990618444979,0.06677227354645729
1783170098494875400,7.10187548828125,5.295247511556744,0.04956774850636721,0.4166039483487606
1783170098504944600,7.111944580078125,4.320207716414332,-0.9939218980059027,0.9030402884669602
1783170098515014400,7.122014404296875,3.36197175655663,-1.9173384734168648,1.629062214295566
1783170098525083600,7.132083740234375,1.8822674522966145,-2.468386255785823,2.099971314936131
1783170098535153700,7.142153564453125,-1.5988427248597143,-2.726398309546709,1.635578464321792
1783170098545222400,7.152222412109375,-7.093188328915834,-2.4212188464194533,1.2232733822107313
1783170098555291400,7.16229150390625,-12.97753395203352,-2.237907667247206,0.4770557136368006
1783170098565361400,7.172361328125,-18.58439768176675,-2.2359539028309285,-0.6956548446156084
1783170098575430400,7.182430419921875,-22.51943995966911,-2.1144778330639005,-1.4144699078053236
1783170098585500400,7.19250048828125,-23.916206453001497,-2.312752918742597,-1.2595806671276688
1783170098595569700,7.202569580078125,-23.654810602021215,-2.846357398879528,0.000585727466084063
1783170098605639400,7.212639404296875,-23.813576099610327,-3.250736364166438,1.093700588293001
1783170098615708700,7.222708740234375,-25.672678364896772,-2.8819141576901077,0.6885846870336682
1783170098625778400,7.2327783203125,-28.02997798911333,-2.167929145005345,-0.6719532126411796
1783170098635847700,7.24284765625,-30.258222194349763,-1.6113307427719235,-1.9099995088309047
1783170098645917400,7.25291748046875,-31.978580005812642,-1.047288746534288,-3.376709014700353
1783170098655986400,7.262986328125,-31.601231378531455,-0.6259614229254424,-4.4008419265747065
1783170098666055400,7.273055419921875,-29.214280127894877,-0.4659793160881847,-4.038518142206967
1783170098676125400,7.28312548828125,-25.939949829912184,-0.5020758077986538,-3.1331738145813346
1783170098686194400,7.2931943359375,-22.274300831484794,-0.7977814862683414,-2.3869031737111506
1783170098696264400,7.303264404296875,-18.27849516506195,-1.066414668091014,-1.3807520548596977
1783170098706333400,7.31333349609375,-14.74376737948656,-1.011976610134542,-0.37766668025441463
1783170098716403500,7.323403564453125,-11.590821235203743,-0.9852237738959491,0.1770961040496826
1783170098726472700,7.33347265625,-8.112997824633121,-0.6547488337315619,0.7707677340712398
1783170098736542500,7.34354248046875,-4.833970308744907,-0.31826340110599993,1.321229898571968
1783170098746611700,7.35361181640625,-1.9606904161483047,0.18168313957899807,1.5238929900765419
1783170098756681500,7.363681396484375,0.4212707711160183,0.8920410478077828,1.630957964914292
1783170098766750500,7.37375048828125,2.3207588228046894,1.3373324537195264,1.7399381257236002
1783170098776819500,7.3838193359375,4.34568761010766,1.6706253739140926,1.5696566701248287
1783170098786889500,7.393889404296875,6.670064038887619,2.196152784448862,1.2200708598423748
1783170098796958500,7.40395849609375,9.043362611746787,2.2413320887379347,0.9567409720595925
1783170098807028500,7.414028564453125,11.048898131793736,2.259914039611071,0.708230394680798
1783170098817097500,7.424097412109375,12.60301908687353,2.640713537998497,0.37770518563389777
1783170098827167500,7.43416748046875,13.525944079375266,3.0396579110160467,0.09062310473322868
1783170098837236500,7.444236572265625,13.83191089348793,3.3198587079703805,-0.010446940538659692
1783170098847306500,7.454306396484375,13.833169953638315,3.584925648678839,-0.19839498573131858
1783170098857375700,7.464375732421875,13.899974960410594,3.6926620930373666,-0.4477240398861468
1783170098867444500,7.474444580078125,14.242733920347689,3.7560391711875796,-0.3011909049477428
1783170098877514500,7.484514404296875,14.611623346841334,3.837811153206229,-0.16467654826380312
1783170098887583500,7.49458349609375,14.675072028923033,3.685151571276784,-0.036231443201750514
1783170098897653500,7.504653564453125,14.32486859819889,3.602268705406785,0.5531744921993464
1783170098907722500,7.514722412109375,13.285721949326991,3.2790070576220747,1.2569202157467603
1783170098917792500,7.52479248046875,12.041625559318065,3.1075451600670814,1.8559166209876536
1783170098927861500,7.534861572265625,11.073181509178877,3.1275057058170437,2.2524451650351285
1783170098937931500,7.544931640625,10.534071125102043,3.0904072705224155,2.467380001352727
1783170098948000500,7.55500048828125,10.342867000722885,3.223032364682853,2.462605918818712
1783170098958070500,7.565070556640625,10.518878232145308,3.4030157146066426,2.4061612702801822
1783170098968139500,7.575139404296875,10.801840602767466,3.5483705264806744,2.306502480045706
1783170098978208500,7.58520849609375,10.823877078008652,3.5881904956936834,2.22969878795892
1783170098988278500,7.595278564453125,10.614857895475625,3.55711643525511,2.0839470857217908
1783170098998347500,7.605347412109375,10.303416449344157,3.626253684367239,1.6826066113479434
1783170099008417500,7.61541748046875,9.702160282477736,3.743521342658996,1.3393527075007556
1783170099018486500,7.625486572265625,9.192675221335888,3.8443864399433134,1.3037637999862433
1783170099028556500,7.635556640625,9.077163174539804,3.8341470777407287,1.2207919406585395
1783170099038625500,7.64562548828125,9.27215733885169,3.695630295193195,0.9981476259421557
1783170099048695600,7.655695556640625,9.865177007770537,3.5659926924109455,0.6328674759868532
1783170099058764500,7.6657646484375,10.37570076431036,3.4496783893212672,0.37021512213945384
1783170099068833500,7.67583349609375,10.508681832301615,3.2313194237738845,0.2560790398716926
1783170099078903600,7.685903564453125,10.155336011898518,2.9853350769370794,0.2941235969100147
1783170099088972500,7.69597265625,9.057706194397806,3.1076468668758865,0.29282756575010715
1783170099099042300,7.706042236328125,7.6528627775937315,3.2554958336532116,-0.090843980942294
1783170099109111600,7.716111572265625,6.806213800042867,3.085611560678482,-0.22912337453737855
1783170099119180800,7.726180908203125,6.24206191368997,2.7080937143102286,0.06247866800576448
1783170099129249800,7.736249755859375,5.9459828718632455,2.092730403897166,0.13772249036468565
1783170099139319800,7.74631982421875,5.618123374894261,1.483310219797492,0.07674173276647925
1783170099149389000,7.75638916015625,5.309530888453126,0.6452417313262819,0.10171265402436255
1783170099159458800,7.766458740234375,4.483893134748936,-0.47275312107205386,0.16925313546434043
1783170099169528000,7.776528076171875,2.359271801072359,-1.7158485173448919,0.32623087285384533
1783170099179596800,7.7865966796875,-1.181636134442687,-2.7921014925569296,0.7803371611230074
1783170099189667000,7.7966669921875,-5.8992608681768175,-3.3903666609138248,1.9210401044137775
1783170099199735800,7.80673583984375,-10.368037682336569,-3.334939957246184,3.1473291811838746
1783170099209806000,7.81680615234375,-12.91912267959714,-3.360223743845522,3.187962512606382
1783170099219874800,7.826874755859375,-14.171152200692891,-2.955237460315227,2.2136004705950616
1783170099229944800,7.83694482421875,-15.233530087548493,-2.6445193600222465,0.24555779198780656
1783170099240013800,7.847013916015625,-17.140007851994035,-2.617484053580463,-1.872850220131874
1783170099250083800,7.857083740234375,-20.619736803925036,-2.6809377040982243,-3.0088895555257795
1783170099260152800,7.86715283203125,-24.615451284933087,-2.7767034324169155,-3.935670054411888
1783170099270221800,7.877221923828125,-27.653660458445547,-2.5877210757404563,-5.050402982404828
1783170099280292000,7.8872919921875,-29.287170007538794,-2.259252799223363,-5.5536278141081326
1783170099290360800,7.89736083984375,-28.955290169012546,-2.2287236593164503,-5.294775217869877
1783170099300431000,7.90743115234375,-26.608834594893455,-2.277597726470232,-4.29418450962454
1783170099310499800,7.917499755859375,-23.7852057451725,-2.441071255619824,-2.924211915193498
1783170099320570000,7.927570068359375,-21.981562916779517,-2.5767867170110343,-1.6337196847125888
1783170099330638800,7.937638916015625,-21.545701310253143,-2.309012709300965,-0.9715626205511391
1783170099340708900,7.947708984375,-21.6169451762557,-1.3755338818199931,-0.9194429225396364
1783170099350777900,7.95777783203125,-21.226786167240142,-0.8002822170428932,-1.1264661820150912
1783170099360848000,7.967847900390625,-19.32152070119381,-1.1971087211236358,-1.0548002181429414
1783170099370916900,7.977916748046875,-15.577753859341144,-1.3098070256732404,-0.3287965586233884
1783170099380985900,7.98798583984375,-10.852531510084868,-1.2909122094586492,0.43932252410259093
1783170099391056000,7.998055908203125,-6.0798325393825765,-1.6353711051814257,0.592780197607167
1783170099401124900,8.008124755859376,-1.6412065333366392,-1.6286222154431045,0.7564399335112423
1783170099411195100,8.018195068359375,1.6542589071333407,-1.099176754681766,0.9808598795980215
1783170099421264000,8.028263916015625,3.384344331884384,-0.6711591396540403,0.6796645176708698
1783170099431334100,8.038334228515625,4.366079240751266,-0.23054668533876538,-0.007898242436535656
1783170099441403000,8.04840283203125,5.00724247059226,0.38735271942317484,-0.19073110003992913
1783170099451473000,8.058472900390624,4.672106845140457,0.9844250247336923,-0.07571352222990244
1783170099461542000,8.0685419921875,4.223994828850031,1.5739876850664614,0.12329126596283167
1783170099471611100,8.078611083984375,4.586080420547724,2.209953638525307,0.3211951437089592
1783170099481681000,8.088680908203125,6.165999249228835,2.6903394464328882,0.4622237994795665
1783170099491750000,8.09875,8.71487475374639,3.2093948844745754,0.32971107965242114
1783170099501820000,8.10881982421875,11.363435205852985,3.7828295629575845,-0.303735146070458
1783170099511889000,8.118888916015624,13.597061688649653,4.064207586997747,-0.9179445737406611
1783170099521959000,8.128958984375,14.497579619032143,3.840962602974474,-1.2139891287758946
1783170099532028000,8.13902783203125,14.151129987883566,3.3636534260332582,-1.1642946851499378
1783170099542098000,8.149097900390625,13.266654845285414,2.948461098048091,-0.6313439927466213
1783170099552167000,8.1591669921875,12.093175713813304,2.6833339515849945,-0.12558891191333532
1783170099562236000,8.16923583984375,10.964622934782504,2.5498040175393224,0.23662253465373068
1783170099572306000,8.179305908203125,10.167169073033332,2.6672113765627143,0.7267607614971697
1783170099582375000,8.189375,10.082579403245449,2.6847087470695374,1.2561352028489112
1783170099592445000,8.19944482421875,10.589119058585167,2.789558530075848,1.4090128114432097
1783170099602514000,8.209513916015625,11.358031885504722,3.113827601337433,1.4497799983784556
1783170099612584000,8.219583984375,11.710767465054989,3.3130101572498676,1.689144196423143
1783170099622653000,8.22965283203125,11.526438487142324,3.324399274009466,1.696362603369355
1783170099632723000,8.239722900390625,11.301796203541755,3.3674536950990555,1.6214987933039664
1783170099642792000,8.2497919921875,10.861558866149187,3.335389454579353,1.549345995762944
1783170099652862000,8.259862060546874,10.126706129741669,3.289076323954761,1.3950157041423021
1783170099662931000,8.269930908203126,9.96444752933979,3.289001505152881,1.1530918847426772
1783170099673000000,8.28,10.257321053123473,3.3312460711643097,1.0563802538760005
1783170099683070000,8.290070068359375,10.41050085953474,3.3741026315942406,0.9073732031047343
1783170099693139000,8.300138916015625,10.41341177854538,3.432686630249023,0.692164737477526
1783170099703209000,8.310208984375,10.171007043761014,3.545338903699815,0.5725297655325383
1783170099713277700,8.320277587890626,9.837563024657964,3.635470717784762,0.4233636517420411
1783170099723348000,8.330347900390626,9.45621334504187,3.628622751586139,0.31331359667889774
1783170099733417000,8.3404169921875,9.05654358035922,3.4260657508045433,0.26426399029511954
1783170099743487000,8.350487060546875,8.810318995025753,3.2514097333833574,0.40813744103759525
1783170099753556000,8.360555908203125,8.246693762895465,3.0564006637632843,0.27630892234863713
1783170099763625000,8.370625,7.529755453363061,2.832587524463236,-0.16682568912170825
1783170099773695000,8.380695068359374,7.329425773242115,2.6767449285835028,-0.4904716600488871
1783170099783764000,8.390763916015626,7.696628269562125,2.3510031544208525,-0.6849595553390682
1783170099793834000,8.400833984375,7.592054380887746,1.8731854434356092,-0.9450192623447626
1783170099803903000,8.410903076171875,6.660765464666485,1.2598781887695192,-0.9467783809717744
1783170099813973000,8.420972900390625,5.294412814298272,0.523755286295712,-0.5645089561622589
1783170099824041700,8.431041748046875,3.2124662547439335,-0.4180462561115622,0.31634689996019005
1783170099834112000,8.441112060546875,0.2594189979493618,-1.04638975186795,1.4878922868907452
1783170099844180700,8.4511806640625,-3.280940656033158,-1.3354805422425269,1.9248272217370568
1783170099854250000,8.46125,-6.890903423073888,-1.3238522098995744,1.437116477768868
1783170099864320000,8.471320068359375,-9.7054552323699,-1.3706858572669327,0.6541265371147543
1783170099874389000,8.481388916015625,-10.92843167746067,-1.8335287019602953,-0.15239440992092712
1783170099884459000,8.491458984375,-11.29413896678686,-2.4765610866740344,-0.24331940194386986
1783170099894528000,8.501528076171875,-11.780400388729571,-2.8111247574567795,0.19089204448899252
1783170099904598000,8.511597900390624,-12.24428865082264,-3.2983015406787395,1.0070846733745187
1783170099914667000,8.5216669921875,-13.228155895543098,-3.014489275228977,2.0847215772256256
1783170099924737000,8.531737060546876,-15.718205117082595,-1.842626054520905,2.2381603268340227
1783170099934805800,8.5418056640625,-19.139056348109243,-0.7374982824802399,1.3608337408162652
1783170099944875000,8.551875,-22.097866406214237,0.0019786065965890884,-0.05921249668351374
1783170099954944800,8.56194482421875,-23.524892428731917,0.7243826341889799,-2.0882608572676777
1783170099965014000,8.572013916015624,-22.36641914321184,1.1527032507512718,-3.660352353323996
1783170099975083800,8.582083740234374,-19.592213957351444,0.7280632223978638,-3.856375568422675
1783170099985153000,8.592153076171876,-16.625673012733458,-0.3750606624744832,-2.650454595290124
1783170099995222800,8.602222900390625,-14.185457789421081,-1.2436200046688317,-1.651116663584858
1783170100005292000,8.6122919921875,-12.156145087945461,-1.6971283270448445,-1.1081014540892093
1783170100015362000,8.622362060546875,-9.963746103072166,-1.9705045386761426,-0.3440184219462797
1783170100025431000,8.63243115234375,-7.5832012123465535,-1.9844921474963426,0.2849414156101644
1783170100035499800,8.642499755859374,-5.7195805928528305,-1.8040302202753722,0.5767619232095778
1783170100045569800,8.65256982421875,-4.701958378046751,-1.6092971911177039,0.6355798767507076
1783170100055639000,8.66263916015625,-3.995954719504714,-1.4848831682026384,0.5882642180200666
1783170100065708800,8.672708740234375,-3.133246003034711,-1.3038076391279696,0.5969169686183333
1783170100075778000,8.682778076171875,-2.1713643801510334,-1.156886746980995,0.6722177818614989
1783170100085847800,8.692847900390625,-0.9295458719462156,-1.0180632365718483,0.5884209794843569
1783170100095917000,8.7029169921875,0.5272638789385556,-0.8814652201924472,0.5949378505650907
1783170100105986800,8.71298681640625,1.7513099990874528,-0.6786223151415586,0.516209400960803
1783170100116056000,8.72305615234375,2.7744880944550037,-0.4064963958323002,0.3888822670780122
1783170100126126800,8.733126953125,3.863517256870866,0.010624708258360623,0.36319015540611
1783170100136195600,8.743195556640625,5.020655494394898,0.3477481465265155,0.15374920379705725
1783170100146264800,8.753264892578125,6.007200433892011,0.5216447238825261,-0.3077911434629932
1783170100156334800,8.7633349609375,6.822628928270936,0.5899747482649982,-0.7985862267799675
1783170100166403800,8.77340380859375,7.428251473653316,0.7751039366446435,-1.1830148754499852
1783170100176473900,8.783473876953124,7.777274170160293,1.069821188598871,-1.3024061017669737
1783170100186542800,8.79354296875,7.748397035244107,1.2481349978752434,-1.5336346318900584
1783170100196612900,8.80361279296875,7.6766060567528,1.3585165499150753,-1.6606318031661211
1783170100206681900,8.813681884765625,7.741700752475857,1.3147976735673843,-1.7056792977690696
1783170100216751900,8.823751953125,7.4359882053852076,1.144599073946476,-1.8086255852416158
1783170100226820600,8.833820556640624,8.095179843869804,0.7237858373396098,-1.2882497122511267
1783170100236889900,8.843889892578124,8.679710501384735,0.9984504813462495,-0.6185478587333113
1783170100246959600,8.853959716796876,8.419022506412864,0.7482305427663027,-0.8163860142994671
1783170100257028900,8.86402880859375,7.627338460236787,0.6951900035828351,-0.9826085498962551
1783170100267098600,8.8740986328125,6.5559916695058345,0.6900890271820127,-0.9491335657957941
