time,seconds_elapsed,z,y,x
1783170091456316700,0.063316650390625,-0.17474967241287231,-0.07775920629501343,0.014791707508265972
1783170091466386700,0.07338671875,-0.17964573204517365,-0.025773223489522934,0.09877285361289978
1783170091476455700,0.08345556640625,-0.1868370622396469,-0.027590829879045486,0.1750497817993164
1783170091486525700,0.093525634765625,-0.19769372045993805,-0.06673639267683029,0.22427716851234436
1783170091496594700,0.1035947265625,-0.20831440389156342,-0.10424834489822388,0.21429485082626343
1783170091506664700,0.113664794921875,-0.2279866337776184,-0.14125722646713257,0.16795212030410767
1783170091516733700,0.123733642578125,-0.24321380257606506,-0.16860470175743103,0.11698134988546371
1783170091526803700,0.1338037109375,-0.24946229159832,-0.17846384644508362,0.0726485624909401
1783170091536873000,0.143873046875,-0.2179509848356247,-0.19335810840129852,0.05119919776916504
1783170091546942700,0.153942626953125,-0.1923488974571228,-0.20816515386104584,0.07845164835453033
1783170091557012000,0.164011962890625,-0.17819713056087494,-0.19148071110248566,0.08256063610315323
1783170091567081700,0.174081787109375,-0.1526128053665161,-0.14225472509860992,0.06526895612478256
1783170091577150700,0.184150634765625,-0.09533620625734329,-0.06761057674884796,0.052119869738817215
1783170091587220700,0.194220703125,-0.056291744112968445,0.03312095254659653,0.05519764497876167
1783170091597289700,0.204289794921875,-0.02575673907995224,0.05306403338909149,0.0649605244398117
1783170091607359700,0.21435986328125,-0.02334059588611126,0.01631375029683113,0.07514802366495132
1783170091617428700,0.2244287109375,-0.06369094550609589,-0.014734446071088314,0.08576072007417679
1783170091627497700,0.234497802734375,-0.11556052416563034,-0.0826084315776825,0.10052521526813507
1783170091637567700,0.244567626953125,-0.1441250443458557,-0.12884943187236786,0.07047330588102341
1783170091647636700,0.25463671875,-0.1544002741575241,-0.11679822206497192,-0.001582454890012741
1783170091657706800,0.264706787109375,-0.1578860878944397,-0.07889024913311005,-0.06949412822723389
1783170091667775700,0.274775634765625,-0.14978857338428497,-0.04638651758432388,-0.1161947026848793
1783170091677845800,0.284845703125,-0.13872820138931274,-0.014163864776492119,-0.16104045510292053
1783170091687914800,0.294914794921875,-0.12157721817493439,0.019548553973436356,-0.19689154624938965
1783170091697984800,0.30498486328125,-0.10728296637535095,0.010502062737941742,-0.23711353540420532
1783170091708053800,0.3150537109375,-0.10192745178937912,-0.002770431339740753,-0.2789980173110962
1783170091718123800,0.325123779296875,-0.10316076129674911,-0.028962353244423866,-0.30919721722602844
1783170091728192800,0.33519287109375,-0.11159679293632507,-0.04852770268917084,-0.3177512288093567
1783170091738262500,0.345262451171875,-0.12081053107976913,-0.06906759738922119,-0.31401482224464417
1783170091748331800,0.355331787109375,-0.11988908052444458,-0.08735312521457672,-0.299903005361557
1783170091758401800,0.36540185546875,-0.1096646711230278,-0.09920073300600052,-0.29965585470199585
1783170091768470800,0.375470703125,-0.10273116827011108,-0.10773707926273346,-0.30103346705436707
1783170091778540800,0.385540771484375,-0.08382751792669296,-0.10197559744119644,-0.27758514881134033
1783170091788609800,0.39560986328125,-0.07361729443073273,-0.10728022456169128,-0.22689087688922882
1783170091798679800,0.4056796875,-0.07342980802059174,-0.10014960169792175,-0.17245133221149445
1783170091808748800,0.415748779296875,-0.07772232592105865,-0.09910207986831665,-0.13106954097747803
1783170091818818800,0.42581884765625,-0.08554749190807343,-0.10059504210948944,-0.10176411271095276
1783170091828887800,0.4358876953125,-0.09439197182655334,-0.11166363954544067,-0.0683646947145462
1783170091838957800,0.445957763671875,-0.09856567531824112,-0.14142847061157227,-0.03832690790295601
1783170091849026600,0.456026611328125,-0.10259705036878586,-0.17766277492046356,-0.01951730065047741
1783170091859096800,0.466096923828125,-0.11269495636224747,-0.19834674894809723,-0.01880596950650215
1783170091869165600,0.47616552734375,-0.11961708217859268,-0.2096884697675705,-0.030397891998291016
1783170091879235800,0.48623583984375,-0.11422524601221085,-0.18604731559753418,-0.031425606459379196
1783170091889304800,0.496304931640625,-0.09402626007795334,-0.15188910067081451,-0.0321042537689209
1783170091899374800,0.506374755859375,-0.07154891639947891,-0.12763702869415283,-0.020119229331612587
1783170091909443800,0.51644384765625,-0.04845975711941719,-0.10319480299949646,-0.015819571912288666
1783170091919513600,0.526513671875,-0.03276494890451431,-0.09505405277013779,-0.03624601662158966
1783170091929582800,0.536582763671875,-0.02322101965546608,-0.09009231626987457,-0.05334177240729332
1783170091939652600,0.546652587890625,-0.013975324109196663,-0.09411635249853134,-0.072704017162323
1783170091949721900,0.556721923828125,-0.006582573987543583,-0.10502785444259644,-0.08351486921310425
1783170091959791600,0.56679150390625,0.00006094714626669884,-0.11901398003101349,-0.07916726171970367
1783170091969860900,0.57686083984375,0.00922754779458046,-0.11949947476387024,-0.059185564517974854
1783170091979931000,0.586930908203125,0.00622163712978363,-0.10993258655071259,-0.03555773198604584
1783170091989999900,0.596999755859375,0.007809844799339771,-0.10091367363929749,-0.03344176337122917
1783170092000070000,0.60706982421875,0.006541380658745766,-0.09461529552936554,-0.03964373096823692
1783170092010138600,0.617138671875,0.0036828462034463882,-0.10551095008850098,-0.050592076033353806
1783170092020209000,0.627208984375,0.0010327345225960016,-0.11535292863845825,-0.07119748741388321
1783170092030277600,0.637277587890625,0.002417476149275899,-0.12508799135684967,-0.08289080113172531
1783170092040348000,0.647347900390625,-0.0005098704714328051,-0.12843771278858185,-0.0803312435746193
1783170092050416600,0.657416748046875,-0.002394323470070958,-0.1319030225276947,-0.06849828362464905
1783170092060487000,0.66748681640625,-0.0012465007603168488,-0.12890084087848663,-0.05004870146512985
1783170092070555600,0.6775556640625,-0.002116986084729433,-0.12385053932666779,-0.04293442144989967
1783170092080625700,0.687625732421875,-0.008384202606976032,-0.11764377355575562,-0.04061480611562729
1783170092090694700,0.697694580078125,-0.016584381461143494,-0.1168307214975357,-0.03738585114479065
1783170092100764700,0.7077646484375,-0.018158044666051865,-0.10652748495340347,-0.0244562029838562
1783170092110834000,0.717833984375,-0.025445641949772835,-0.09312725812196732,-0.01271470170468092
1783170092120902700,0.727902587890625,-0.03780430555343628,-0.08346956968307495,0.004929007031023502
1783170092130973000,0.737972900390625,-0.049231868237257004,-0.08819708228111267,0.01753327064216137
1783170092141042000,0.7480419921875,-0.05319252237677574,-0.09352792799472809,0.019443290308117867
1783170092151112000,0.75811181640625,-0.05720987915992737,-0.09627031534910202,-0.002867146860808134
1783170092161181000,0.768180908203125,-0.05457361787557602,-0.08500514924526215,-0.017629314213991165
1783170092171251000,0.7782509765625,-0.047487251460552216,-0.0660712942481041,-0.02004028484225273
1783170092181320000,0.78831982421875,-0.04251965880393982,-0.05300449579954147,-0.02002323977649212
1783170092191389700,0.7983896484375,-0.03718440607190132,-0.03740328550338745,-0.01638984866440296
1783170092201459000,0.808458984375,-0.03531912714242935,-0.032130490988492966,-0.019107338041067123
1783170092211528700,0.81852880859375,-0.030951296910643578,-0.04938189685344696,-0.026987146586179733
1783170092221598000,0.828597900390625,-0.03808563947677612,-0.06075572595000267,-0.053055230528116226
1783170092231668000,0.83866796875,-0.036747317761182785,-0.06888783723115921,-0.07954639196395874
1783170092241737000,0.848737060546875,-0.030478235334157944,-0.0759529322385788,-0.09224461019039154
1783170092251807000,0.858806884765625,-0.02450290322303772,-0.07311879843473434,-0.09577782452106476
1783170092261876000,0.8688759765625,-0.021997667849063873,-0.07374011725187302,-0.0883641168475151
1783170092271946000,0.878946044921875,-0.05909113585948944,-0.14630195498466492,-0.03656507283449173
1783170092282014700,0.8890146484375,-0.0720953568816185,-0.13198265433311462,-0.03630727902054787
1783170092292085000,0.8990849609375,-0.04296940565109253,-0.0747838020324707,-0.04731084778904915
1783170092302153700,0.90915380859375,-0.04786482825875282,-0.0294546689838171,-0.01813352108001709
1783170092312224000,0.91922412109375,-0.060448549687862396,-0.02219049632549286,-0.002294566947966814
1783170092322292700,0.929292724609375,-0.07575320452451706,-0.05295400321483612,-0.010599369183182716
1783170092332363000,0.939363037109375,-0.0670090839266777,-0.08362922817468643,-0.04013506695628166
1783170092342431700,0.949431640625,-0.04735388979315758,-0.09368985146284103,-0.06349951028823853
1783170092352501800,0.959501708984375,-0.0492846816778183,-0.06148477643728256,-0.07194492965936661
1783170092362571000,0.969571044921875,-0.051494840532541275,-0.03460177034139633,-0.06983090937137604
1783170092372640800,0.979640869140625,-0.038827307522296906,-0.02681775391101837,-0.06904906034469604
1783170092382710000,0.9897099609375,-0.02596956677734852,-0.02800232544541359,-0.07298867404460907
1783170092392779800,0.99977978515625,-0.008304020389914513,-0.046456169337034225,-0.10518496483564377
1783170092402849000,1.00984912109375,0.011250772513449192,-0.04767083749175072,-0.15486197173595428
1783170092412918800,1.019918701171875,0.030354486778378487,-0.04019520431756973,-0.18961137533187866
1783170092422988000,1.029988037109375,0.04259810224175453,-0.021313659846782684,-0.2031620740890503
1783170092433057800,1.040057861328125,0.05120472237467766,-0.0024932492524385452,-0.19786840677261353
1783170092443127000,1.050126953125,0.06456207484006882,0.0026234816759824753,-0.16732941567897797
1783170092453197000,1.060197021484375,0.07743911445140839,0.011536027304828167,-0.14068171381950378
1783170092463265800,1.070265869140625,0.07189041376113892,0.0313321016728878,-0.12256181985139847
1783170092473336000,1.080336181640625,0.059477873146533966,0.051433101296424866,-0.09313813596963882
1783170092483404800,1.09040478515625,0.05695372819900513,0.0627475380897522,-0.05605681985616684
1783170092493475000,1.10047509765625,0.06103869155049324,0.06736772507429123,-0.01708737201988697
1783170092503543800,1.110543701171875,0.06496285647153854,0.07213585078716278,0.01291393768042326
1783170092513613800,1.12061376953125,0.058607716113328934,0.07288967072963715,0.016902312636375427
1783170092523682800,1.130682861328125,0.0591784305870533,0.05817331373691559,0.006292013451457024
1783170092533752000,1.140751953125,0.07800957560539246,0.019454538822174072,-0.04373445734381676
1783170092543821800,1.15082177734375,0.096805639564991,0.010766241699457169,-0.057374633848667145
1783170092553890800,1.160890869140625,0.10953222960233688,-0.012754539027810097,-0.050491541624069214
1783170092563960800,1.1709609375,0.12268318235874176,0.0003639254719018936,-0.058076221495866776
1783170092574029800,1.18102978515625,0.1279473751783371,0.01286734826862812,-0.06552651524543762
1783170092584099800,1.191099853515625,0.14883559942245483,0.057118162512779236,-0.07486435770988464
1783170092594168800,1.2011689453125,0.15609532594680786,0.07374174892902374,-0.08004319667816162
1783170092604239000,1.211239013671875,0.16427282989025116,0.08411049842834473,-0.06204421818256378
1783170092614307800,1.221307861328125,0.16842730343341827,0.1119903028011322,-0.008938072249293327
1783170092624377900,1.2313779296875,0.1629832684993744,0.14260999858379364,0.07798350602388382
1783170092634446800,1.24144677734375,0.15568099915981293,0.1893523633480072,0.15898621082305908
1783170092644516900,1.251516845703125,0.15391771495342255,0.2249191552400589,0.20640672743320465
1783170092654585900,1.2615859375,0.14438867568969727,0.2148904651403427,0.21837687492370605
1783170092664656000,1.27165576171875,0.13243348896503448,0.19198913872241974,0.17773331701755524
1783170092674724900,1.281724853515625,0.11468028277158737,0.13442108035087585,0.11627770960330963
1783170092684795000,1.291794921875,0.1112741008400917,0.06020650267601013,0.048115432262420654
1783170092694864000,1.30186376953125,0.10205423831939697,0.024248233065009117,-0.034814607352018356
1783170092704934000,1.311933837890625,0.09823925793170929,-0.00870439037680626,-0.08696702122688293
1783170092715003000,1.3220029296875,0.06949937343597412,-0.05545550584793091,-0.1321331411600113
1783170092725073000,1.332072998046875,0.04627607390284538,-0.14310041069984436,-0.16919182240962982
1783170092735142000,1.342141845703125,0.035403452813625336,-0.218165323138237,-0.18996794521808624
1783170092745212000,1.3522119140625,0.03691426292061806,-0.2471650242805481,-0.16630202531814575
1783170092755281000,1.362281005859375,0.052977219223976135,-0.22457502782344818,-0.06546725332736969
1783170092765351000,1.372350830078125,0.053392939269542694,-0.21661964058876038,0.06649716943502426
1783170092775420000,1.382419921875,0.014092834666371346,-0.23366907238960266,0.12074904888868332
1783170092785490000,1.392489990234375,-0.03505180776119232,-0.2672209143638611,0.05591145530343056
1783170092795559000,1.402558837890625,-0.113813117146492,-0.2860608994960785,-0.14663954079151154
1783170092805628000,1.4126279296875,-0.18011650443077087,-0.2797103524208069,-0.43106088042259216
1783170092815698000,1.422697998046875,-0.21562384068965912,-0.14907005429267883,-0.6531906723976135
1783170092825767000,1.432766845703125,-0.24368450045585632,0.06952088326215744,-0.6759617924690247
1783170092835837000,1.4428369140625,-0.3181372284889221,0.23638898134231567,-0.49437275528907776
1783170092845905700,1.45290576171875,-0.3848075866699219,0.2692321240901947,-0.27698102593421936
1783170092855976000,1.462975830078125,-0.4500444829463959,0.15357598662376404,-0.09522898495197296
1783170092866045000,1.473044921875,-0.5050765872001648,0.02469123713672161,0.004721577744930983
1783170092876115000,1.483114990234375,-0.5510759353637695,-0.044392749667167664,0.01162900310009718
1783170092886184000,1.493183837890625,-0.5726619362831116,-0.0005869483575224876,-0.042092014104127884
1783170092896254000,1.50325390625,-0.5123556852340698,0.1393612176179886,-0.029690096154808998
1783170092906323000,1.513322998046875,-0.4498974084854126,0.20152711868286133,-0.05691239610314369
1783170092916392700,1.523392822265625,-0.44330543279647827,0.027381690219044685,-0.2764323949813843
1783170092926462000,1.5334619140625,-0.42753496766090393,-0.24407511949539185,-0.6990622282028198
1783170092936531700,1.54353173828125,-0.32725271582603455,-0.670771598815918,-1.1628475189208984
1783170092946601000,1.55360107421875,-0.1623503416776657,-1.0843311548233032,-1.2117317914962769
1783170092956671000,1.5636708984375,-0.002702351426705718,-1.4334543943405151,-0.7580254077911377
1783170092966740000,1.573739990234375,0.08626987040042877,-1.6717116832733154,0.13575699925422668
1783170092976810000,1.58381005859375,-0.051511041820049286,-1.6344915628433228,1.2334188222885132
1783170092986879000,1.59387890625,-0.23230798542499542,-1.4067082405090332,2.0935356616973877
1783170092996949000,1.603948974609375,-0.27428555488586426,-0.9056559801101685,2.5139195919036865
1783170093007017700,1.614017822265625,-0.24815994501113892,-0.38392356038093567,2.1619040966033936
1783170093017088000,1.624087890625,-0.1836051344871521,-0.04503365606069565,1.2785892486572266
1783170093027156700,1.63415673828125,-0.022659670561552048,0.09385871887207031,0.37514886260032654
1783170093037226000,1.64422607421875,0.13657929003238678,0.32757773995399475,-0.12960074841976166
1783170093047295700,1.654295654296875,0.23068128526210785,0.5740716457366943,-0.20053084194660187
1783170093057365000,1.664364990234375,0.24034319818019867,0.6455336213111877,-0.09290170669555664
1783170093067434800,1.674434814453125,0.36638954281806946,0.543302059173584,-0.19424697756767273
1783170093077504000,1.68450390625,0.4651939570903778,0.306522935628891,-0.4561128616333008
1783170093087573800,1.69457373046875,0.5902512073516846,0.05196147412061691,-0.7084388732910156
1783170093097643000,1.70464306640625,0.7054974436759949,-0.12082256376743317,-0.9070390462875366
1783170093107713000,1.714713134765625,0.7752214074134827,-0.30023491382598877,-1.1028891801834106
1783170093117781800,1.72478173828125,0.8106818199157715,-0.49488565325737,-1.349830150604248
1783170093127852000,1.73485205078125,0.8139790296554565,-0.49780794978141785,-1.5886194705963135
1783170093137920800,1.744920654296875,0.7259277701377869,-0.25179174542427063,-1.5794346332550049
1783170093147991000,1.754990966796875,0.5293060541152954,0.09451532363891602,-1.2225031852722168
1783170093158059800,1.765059814453125,0.34627535939216614,0.30880218744277954,-0.6872541308403015
1783170093168130000,1.775130126953125,0.21483556926250458,0.4314711093902588,-0.16827891767024994
1783170093178198800,1.78519873046875,0.09787268191576004,0.4990062117576599,0.2669225037097931
1783170093188268800,1.795268798828125,0.005608803126960993,0.5496084094047546,0.5482447147369385
1783170093198337800,1.805337890625,-0.04945608600974083,0.5846545100212097,0.6888096928596497
1783170093208407800,1.81540771484375,-0.061946313828229904,0.6460923552513123,0.7410159111022949
1783170093218476800,1.825476806640625,-0.05956270545721054,0.7204588651657104,0.681663990020752
1783170093228546800,1.835546875,-0.02380923368036747,0.7600976228713989,0.5032836198806763
1783170093238616000,1.845615966796875,0.03910559415817261,0.7735965847969055,0.332544207572937
1783170093248685800,1.855685791015625,0.08587602525949478,0.7631804347038269,0.3047562539577484
1783170093258755000,1.865755126953125,0.09343325346708298,0.7349915504455566,0.4123461842536926
1783170093268824800,1.875824951171875,0.07101316750049591,0.6612805724143982,0.5637287497520447
1783170093278893800,1.885893798828125,0.04011259227991104,0.5215041637420654,0.668642520904541
1783170093288962800,1.895962890625,0.041224461048841476,0.37850332260131836,0.7307921648025513
1783170093299032800,1.90603271484375,0.06254560500383377,0.28168416023254395,0.7612946033477783
1783170093309101800,1.916101806640625,0.0891476571559906,0.19879139959812164,0.75638747215271
1783170093319171800,1.926171875,0.1389472782611847,0.1592937707901001,0.7240769863128662
1783170093329240800,1.93624072265625,0.2041313350200653,0.13958212733268738,0.6233402490615845
1783170093339310800,1.946310791015625,0.26284146308898926,0.117112897336483,0.5132194757461548
1783170093349379800,1.9563798828125,0.26142174005508423,0.10214672982692719,0.4590156674385071
1783170093359449900,1.966449951171875,0.2072472870349884,0.08954663574695587,0.49807193875312805
1783170093369519000,1.97651904296875,0.14631229639053345,0.04613977670669556,0.624240517616272
1783170093379588900,1.9865888671875,0.09909938275814056,-0.00414735171943903,0.8174905776977539
1783170093389657900,1.996657958984375,0.046869195997714996,-0.053323954343795776,0.9865877032279968
1783170093399727900,2.006727783203125,0.002654824871569872,-0.07928270101547241,1.0565851926803589
1783170093409796900,2.016796875,-0.023273976519703865,-0.11315438151359558,0.9989842176437378
1783170093419867000,2.026866943359375,-0.03248405456542969,-0.12810379266738892,0.8419768214225769
1783170093429935900,2.036935791015625,-0.026861587539315224,-0.15956024825572968,0.6933447122573853
1783170093440006000,2.047005859375,-0.024741915985941887,-0.30040299892425537,0.5575123429298401
1783170093450075000,2.057074951171875,-0.06873706728219986,-0.5129589438438416,0.43208545446395874
1783170093460145000,2.067144775390625,-0.13637641072273254,-0.6319960951805115,0.26652950048446655
1783170093470214000,2.0772138671875,-0.20567798614501953,-0.5141368508338928,0.07032483071088791
1783170093480284000,2.087283935546875,-0.22017459571361542,-0.1220722422003746,-0.09985283017158508
1783170093490353000,2.097352783203125,-0.12378708273172379,0.39564040303230286,-0.21752139925956726
1783170093500422000,2.107421875,0.07983820140361786,0.8845915794372559,-0.27796652913093567
1783170093510492000,2.117491943359375,0.2905121147632599,1.3484476804733276,-0.30009499192237854
1783170093520561000,2.127560791015625,0.28928428888320923,1.6523405313491821,-0.17445966601371765
1783170093530631000,2.137630859375,0.09522347152233124,1.5392707586288452,-0.03670366853475571
1783170093540700000,2.147699951171875,-0.0989065021276474,1.1171448230743408,-0.2162417471408844
1783170093550770000,2.15777001953125,-0.04960979148745537,0.6011850833892822,-0.714605987071991
1783170093560839000,2.1678388671875,0.2578624486923218,0.16029299795627594,-1.1610788106918335
1783170093570908700,2.17790869140625,0.6343314051628113,-0.13239958882331848,-1.3826931715011597
1783170093580978000,2.18797802734375,0.9099891781806946,-0.36535266041755676,-1.3442002534866333
1783170093591048000,2.1980478515625,1.0218840837478638,-0.6896609663963318,-1.103689432144165
1783170093601117000,2.208116943359375,0.9433168172836304,-1.0986815690994263,-0.7641868591308594
1783170093611187000,2.21818701171875,0.6600672602653503,-1.4422935247421265,-0.3966163694858551
1783170093621256000,2.228255859375,0.2640739381313324,-1.5626418590545654,-0.02079017087817192
1783170093631326000,2.238325927734375,-0.1142701581120491,-1.3959671258926392,0.3965553939342499
1783170093641395000,2.24839501953125,-0.39466288685798645,-0.9768518805503845,0.7929785847663879
1783170093651465000,2.25846484375,-0.5164476633071899,-0.5661266446113586,1.013166069984436
1783170093661534000,2.268533935546875,-0.45938798785209656,-0.4103069603443146,1.0425472259521484
1783170093671604000,2.27860400390625,-0.31385210156440735,-0.5563416481018066,0.9781619906425476
1783170093681672700,2.288672607421875,-0.07217828184366226,-0.8864989280700684,0.9315997958183289
1783170093691742000,2.298741943359375,0.2156689465045929,-1.124043345451355,0.8990753889083862
1783170093701811700,2.308811767578125,0.4804971516132355,-1.120895266532898,0.811363160610199
1783170093711881000,2.318880859375,0.6912562847137451,-0.8563650250434875,0.6904447078704834
1783170093721950700,2.32895068359375,0.802657425403595,-0.38154447078704834,0.5912821888923645
1783170093732020000,2.33902001953125,0.8041067123413086,0.1619289666414261,0.431092768907547
1783170093742090000,2.349090087890625,0.7602958679199219,0.5220426917076111,0.18752245604991913
1783170093752159000,2.359158935546875,0.6839619278907776,0.5904427766799927,0.014147749170660973
1783170093762229000,2.36922900390625,0.5558746457099915,0.49874788522720337,-0.09223376214504242
1783170093772298000,2.379298095703125,0.38702061772346497,0.3460155725479126,-0.1700819432735443
1783170093782368000,2.389367919921875,0.1850074678659439,0.2187669426202774,-0.21857097744941711
1783170093792436700,2.399436767578125,-0.027642490342259407,0.12633287906646729,-0.2416432648897171
1783170093802507000,2.409507080078125,-0.2236098200082779,0.06247880309820175,-0.2565310001373291
1783170093812575700,2.41957568359375,-0.3840908408164978,0.006622993387281895,-0.24709144234657288
1783170093822646000,2.42964599609375,-0.484112024307251,0.07843699306249619,-0.26395443081855774
1783170093832714800,2.43971484375,-0.5341485738754272,0.24059581756591797,-0.3625955283641815
1783170093842784800,2.44978466796875,-0.51951003074646,0.45560306310653687,-0.5162922739982605
1783170093852853800,2.459853759765625,-0.44514286518096924,0.6789408326148987,-0.611830472946167
1783170093862923000,2.469923095703125,-0.3271230161190033,0.8701211214065552,-0.6166800856590271
1783170093872993000,2.479992919921875,-0.17774896323680878,1.014212965965271,-0.5151161551475525
1783170093883061800,2.490061767578125,0.00646088644862175,1.0658279657363892,-0.3643750548362732
1783170093893132000,2.500132080078125,0.16081345081329346,1.0149892568588257,-0.22545364499092102
1783170093903200800,2.51020068359375,0.25132298469543457,0.8948203325271606,-0.12823890149593353
1783170093913271000,2.52027099609375,0.2907484173774719,0.7627313137054443,-0.08053875714540482
1783170093923339800,2.53033984375,0.28060489892959595,0.6659416556358337,-0.05099993944168091
1783170093933410000,2.54041015625,0.22612328827381134,0.584695041179657,-0.060730863362550735
1783170093943478800,2.550478759765625,0.1492210328578949,0.5243934392929077,-0.10261677950620651
1783170093953548800,2.560548828125,0.10277070105075836,0.4714069068431854,-0.1551998257637024
1783170093963617800,2.57061767578125,0.06826233118772507,0.4099915027618408,-0.17668119072914124
1783170093973687800,2.580687744140625,0.03656778112053871,0.35750138759613037,-0.13095977902412415
1783170093983756800,2.5907568359375,0.0035314345732331276,0.31190890073776245,-0.007560374215245247
1783170093993826800,2.600826904296875,-0.034658294171094894,0.22381524741649628,0.11183206737041473
1783170094003896000,2.61089599609375,-0.06523893028497696,0.10322289168834686,0.21015475690364838
1783170094013965800,2.6209658203125,-0.07887537777423859,-0.04422008991241455,0.3241689205169678
1783170094024035000,2.63103515625,-0.07911170274019241,-0.18805260956287384,0.41962140798568726
1783170094034104800,2.641104736328125,-0.05527934059500694,-0.30334457755088806,0.43899059295654297
1783170094044174000,2.651174072265625,-0.037278540432453156,-0.38684985041618347,0.4257468283176422
1783170094054242800,2.661242919921875,-0.03027522563934326,-0.4401357173919678,0.37474462389945984
1783170094064312800,2.671312744140625,-0.05619010329246521,-0.4613732397556305,0.31813523173332214
1783170094074381800,2.6813818359375,-0.12720808386802673,-0.5432001948356628,0.23591865599155426
1783170094084451800,2.691451904296875,-0.24532510340213776,-0.6303523778915405,0.09797286242246628
1783170094094520800,2.701520751953125,-0.33905109763145447,-0.6347591280937195,-0.06344372779130936
1783170094104590800,2.7115908203125,-0.43022409081459045,-0.5422652959823608,-0.16934089362621307
1783170094114659600,2.72165966796875,-0.48280954360961914,-0.2852904796600342,-0.25789234042167664
1783170094124729600,2.7317294921875,-0.44776487350463867,0.030935678631067276,-0.32422733306884766
1783170094134798600,2.741798583984375,-0.3505195677280426,0.42187628149986267,-0.39104312658309937
1783170094144868600,2.75186865234375,-0.29213327169418335,0.6915004253387451,-0.4882975220680237
1783170094154937900,2.761937744140625,-0.3293789029121399,0.7909771800041199,-0.5133543610572815
1783170094165007600,2.772007568359375,-0.41991689801216125,0.9016904234886169,-0.4066873788833618
1783170094175076600,2.78207666015625,-0.4669448733329773,1.0962564945220947,-0.4207765758037567
1783170094185146600,2.792146728515625,-0.4466240406036377,0.8903541564941406,-0.7953290939331055
1783170094195215600,2.802215576171875,-0.3096643388271332,0.0992506593465805,-1.4390617609024048
1783170094205285600,2.81228564453125,-0.09450696408748627,-1.0456149578094482,-1.7063345909118652
1783170094215354600,2.822354736328125,0.03559191897511482,-2.202720880508423,-1.2741634845733643
1783170094225423600,2.832423583984375,0.003278842195868492,-2.8992691040039062,-0.4881089925765991
1783170094235493600,2.84249365234375,-0.07112454622983932,-3.017850160598755,0.22708851099014282
1783170094245562600,2.852562744140625,-0.10400182753801346,-2.4083609580993652,0.6598538756370544
1783170094255632600,2.862632568359375,-0.17012305557727814,-1.3641058206558228,0.7904036045074463
1783170094265701600,2.87270166015625,-0.19637161493301392,-0.4310724437236786,0.7076730728149414
1783170094275771600,2.882771728515625,-0.12008775025606155,0.07589859515428543,0.4524484872817993
1783170094285840600,2.892840576171875,0.06520393490791321,0.19458584487438202,0.1107301414012909
1783170094295910700,2.90291064453125,0.31817522644996643,0.07187910377979279,-0.1771993786096573
1783170094305979600,2.912979736328125,0.5160879492759705,-0.13826055824756622,-0.3665114939212799
1783170094316049700,2.923049560546875,0.618338942527771,-0.32697054743766785,-0.4302838146686554
1783170094326118700,2.93311865234375,0.6564558744430542,-0.3992873728275299,-0.3150593340396881
1783170094336188700,2.943188720703125,0.6493375301361084,-0.3981741666793823,-0.032689716666936874
1783170094346257700,2.953257568359375,0.5951592922210693,-0.3825940191745758,0.2954578697681427
1783170094356327400,2.963327392578125,0.4787021577358246,-0.28860199451446533,0.5551615953445435
1783170094366396700,2.973396728515625,0.33145150542259216,-0.10830426216125488,0.6514914035797119
1783170094376466700,2.983466796875,0.1753290295600891,0.026766741648316383,0.5409834980964661
1783170094386535700,2.99353564453125,0.03638215735554695,0.05431622266769409,0.33828678727149963
1783170094396604400,3.0036044921875,-0.09154650568962097,0.03605785220861435,0.23357850313186646
1783170094406674700,3.0136748046875,-0.2116435021162033,0.061937134712934494,0.26201027631759644
1783170094416743400,3.023743408203125,-0.27066874504089355,0.14770689606666565,0.34988126158714294
1783170094426813700,3.033813720703125,-0.28955385088920593,0.19888605177402496,0.45036694407463074
1783170094436882700,3.043882568359375,-0.2839665412902832,0.2508810758590698,0.5241237282752991
1783170094446952700,3.05395263671875,-0.2519952058792114,0.28664451837539673,0.5714771747589111
1783170094457021700,3.064021728515625,-0.19772425293922424,0.31917741894721985,0.6135053634643555
1783170094467091500,3.074091552734375,-0.1648937612771988,0.38070017099380493,0.6035659313201904
1783170094477160700,3.08416064453125,-0.15363284945487976,0.45350247621536255,0.4907802641391754
1783170094487230500,3.09423046875,-0.14470542967319489,0.4645700454711914,0.3304331600666046
1783170094497299700,3.1042998046875,-0.13272519409656525,0.42572012543678284,0.15916739404201508
1783170094507369500,3.114369384765625,-0.1272924393415451,0.3563244044780731,-0.028306016698479652
1783170094517438700,3.124438720703125,-0.10126510262489319,0.26890188455581665,-0.2109554558992386
1783170094527508700,3.1345087890625,-0.05255023390054703,0.20382528007030487,-0.32779785990715027
1783170094537577700,3.14457763671875,0.006496572867035866,0.18361082673072815,-0.3409072756767273
1783170094547647700,3.154647705078125,0.05755658447742462,0.19038204848766327,-0.29091739654541016
1783170094557716700,3.164716796875,0.12497743219137192,0.21918119490146637,-0.21428655087947845
1783170094567785700,3.17478564453125,0.20275147259235382,0.2682375907897949,-0.14543792605400085
1783170094577855500,3.18485546875,0.26141557097435,0.3379082679748535,-0.10659892112016678
1783170094587924700,3.1949248046875,0.2922741174697876,0.39911991357803345,-0.08805009722709656
1783170094597994500,3.204994384765625,0.3180742859840393,0.44525545835494995,-0.06975711137056351
1783170094608063700,3.215063720703125,0.32646486163139343,0.45803213119506836,-0.027279794216156006
1783170094618133500,3.225133544921875,0.3152329921722412,0.4440302848815918,0.02167230285704136
1783170094628202800,3.23520263671875,0.26839450001716614,0.3911663889884949,0.09080099314451218
1783170094638272500,3.2452724609375,0.19111037254333496,0.28331130743026733,0.18112023174762726
1783170094648341800,3.255341796875,0.11687693744897842,0.14441785216331482,0.24127773940563202
1783170094658411800,3.265411865234375,0.06759247928857803,-0.04148516803979874,0.20998692512512207
1783170094668480500,3.27548046875,0.04727134853601456,-0.24999016523361206,0.09087823331356049
1783170094678550800,3.28555078125,0.038706354796886444,-0.33568909764289856,-0.11998739838600159
1783170094688619500,3.29561962890625,0.05220352113246918,-0.24742287397384644,-0.3576393723487854
1783170094698689800,3.305689697265625,0.07858985662460327,-0.02005123719573021,-0.677524983882904
1783170094708758500,3.315758544921875,0.050894297659397125,0.32039666175842285,-1.0915755033493042
1783170094718827800,3.325827880859375,-0.0015625185333192348,0.6532787680625916,-1.4353445768356323
1783170094728897500,3.3358974609375,-0.0053438832983374596,0.9263672232627869,-1.561309814453125
1783170094738966800,3.345966796875,0.09297629445791245,1.090496301651001,-1.3686857223510742
1783170094749036500,3.35603662109375,0.24538274109363556,0.9632501602172852,-0.6955252885818481
1783170094759105800,3.366105712890625,0.3154158890247345,0.7002238631248474,0.17567138373851776
1783170094769175600,3.376175537109375,0.22103586792945862,0.482616662979126,0.656770646572113
1783170094779244500,3.38624462890625,0.07027138769626617,0.3645337224006653,0.48574328422546387
1783170094789314800,3.396314697265625,-0.0337752029299736,0.14434115588665009,-0.1677868515253067
1783170094799383600,3.406383544921875,-0.07300888746976852,-0.2952742874622345,-0.9875770807266235
1783170094809453800,3.416453857421875,-0.03992081806063652,-0.8861931562423706,-1.5750309228897095
1783170094819522600,3.4265224609375,0.012204966507852077,-1.3201022148132324,-1.7720859050750732
1783170094829592800,3.4365927734375,-0.032144296914339066,-1.5001423358917236,-1.3178541660308838
1783170094839661600,3.44666162109375,-0.22005294263362885,-1.3642181158065796,-0.4322640895843506
1783170094849731600,3.456731689453125,-0.44077298045158386,-1.0182092189788818,0.4853270947933197
1783170094859800600,3.466800537109375,-0.5974915027618408,-0.6955454349517822,1.1993037462234497
1783170094869870600,3.47687060546875,-0.6572584509849548,-0.499222069978714,1.6690690517425537
1783170094879939600,3.486939697265625,-0.6803219318389893,-0.3956512212753296,1.9321606159210205
1783170094890008600,3.497008544921875,-0.6447631120681763,-0.39380672574043274,1.9040143489837646
1783170094900078600,3.50707861328125,-0.5509678721427917,-0.5355931520462036,1.603846788406372
1783170094910147600,3.517147705078125,-0.3838965594768524,-0.7033767700195312,1.1068651676177979
1783170094920217900,3.5272177734375,-0.17828799784183502,-0.7189089059829712,0.6061388850212097
1783170094930286600,3.53728662109375,0.0023867199197411537,-0.5963625907897949,0.2458437830209732
1783170094940356600,3.547356689453125,0.16004613041877747,-0.4297427535057068,0.0954982191324234
1783170094950425600,3.557425537109375,0.2739145755767822,-0.35464879870414734,0.05198337137699127
1783170094960495600,3.56749560546875,0.3087750971317291,-0.4003928303718567,0.09131266176700592
1783170094970564600,3.577564697265625,0.26940977573394775,-0.5237945318222046,0.2651543915271759
1783170094980634600,3.587634521484375,0.15103892982006073,-0.6676480770111084,0.4887893497943878
1783170094990703600,3.59770361328125,0.0014246937353163958,-0.7102510333061218,0.6404263377189636
1783170095000773600,3.607773681640625,-0.13215866684913635,-0.6123896837234497,0.5966472029685974
1783170095010842600,3.617842529296875,-0.25483280420303345,-0.4023655951023102,0.4374261796474457
1783170095020912600,3.62791259765625,-0.32531654834747314,-0.12563225626945496,0.2776826024055481
1783170095030981600,3.637981689453125,-0.3635566830635071,0.13644209504127502,0.17270472645759583
1783170095041050600,3.648050537109375,-0.39935970306396484,0.3275284469127655,0.13046672940254211
1783170095051120600,3.65812060546875,-0.43162187933921814,0.4120486378669739,0.1059466153383255
1783170095061189600,3.668189697265625,-0.44374778866767883,0.4119895100593567,0.07916480302810669
1783170095071259600,3.678259765625,-0.40368950366973877,0.37745627760887146,0.04870704561471939
1783170095081328600,3.68832861328125,-0.3244370222091675,0.32441994547843933,-0.015508425422012806
1783170095091398700,3.698398681640625,-0.21782076358795166,0.3010713756084442,-0.05481928586959839
1783170095101467600,3.708467529296875,-0.10298844426870346,0.3674197793006897,-0.08315639197826385
1783170095111537700,3.71853759765625,0.003828674554824829,0.5062810182571411,-0.1613895446062088
1783170095121607000,3.72860693359375,0.08556801080703735,0.6666584014892578,-0.2767113447189331
1783170095131677000,3.738677001953125,0.13058756291866302,0.792656421661377,-0.4015320837497711
1783170095141746000,3.748745849609375,0.13941514492034912,0.8627340793609619,-0.4964756369590759
1783170095151816000,3.75881591796875,0.1312200129032135,0.8521826267242432,-0.49829602241516113
1783170095161884700,3.768884765625,0.11077092587947845,0.6985347270965576,-0.43023204803466797
1783170095171954000,3.778953857421875,0.08313032984733582,0.5173408389091492,-0.3542990982532501
1783170095182023700,3.789023681640625,0.06418061256408691,0.3629818856716156,-0.2727072834968567
1783170095192093000,3.799093017578125,0.04117829352617264,0.23975834250450134,-0.1724792718887329
1783170095202162700,3.80916259765625,0.04079267010092735,0.19766949117183685,-0.1009901762008667
1783170095212232000,3.81923193359375,0.07008044421672821,0.18454822897911072,-0.05154867470264435
1783170095222301700,3.8293017578125,0.0880192294716835,0.16260725259780884,-0.02852644771337509
1783170095232371000,3.839370849609375,0.11394297331571579,0.12308700382709503,-0.046172551810741425
1783170095242440700,3.849440673828125,0.15073905885219574,0.10198970884084702,-0.04841892793774605
1783170095252510000,3.859510009765625,0.1784694790840149,0.1292017549276352,-0.013297890312969685
1783170095262580000,3.869580078125,0.187259241938591,0.13792307674884796,0.08449098467826843
1783170095272648700,3.879648681640625,0.15598933398723602,0.10109876096248627,0.21570105850696564
1783170095282719000,3.889718994140625,0.08749016374349594,0.03468191623687744,0.258319616317749
1783170095292787700,3.89978759765625,-0.006496506277471781,-0.033105142414569855,0.19830983877182007
1783170095302858000,3.90985791015625,-0.10014016926288605,-0.03396747261285782,0.08337367326021194
1783170095312926700,3.9199267578125,-0.15082640945911407,0.044759172946214676,-0.0712820291519165
1783170095322996700,3.929996826171875,-0.14573578536510468,0.24984414875507355,-0.24427351355552673
1783170095333065700,3.940065673828125,-0.12209238111972809,0.5524179935455322,-0.49404531717300415
1783170095343135000,3.950135009765625,-0.06988696753978729,0.8299590349197388,-0.8292757868766785
1783170095353204700,3.960204833984375,0.031046852469444275,1.0239752531051636,-1.045063853263855
1783170095363274000,3.97027392578125,0.0882752537727356,1.2311053276062012,-0.9391136765480042
1783170095373343700,3.98034375,0.06381117552518845,1.3872112035751343,-0.6157412528991699
1783170095383412700,3.990412841796875,-0.10090906172990799,1.321415662765503,-0.29189178347587585
1783170095393482800,4.000482666015625,-0.28591006994247437,0.9909274578094482,-0.27176928520202637
1783170095403551700,4.0105517578125,-0.28964781761169434,0.5179407596588135,-0.585310161113739
1783170095413622000,4.0206220703125,-0.10912752896547318,-0.09125086665153503,-0.947991132736206
1783170095423690800,4.030690673828125,0.13060066103935242,-0.7355574369430542,-1.0971572399139404
1783170095433760800,4.0407607421875,0.2567908763885498,-1.191573977470398,-1.0802584886550903
1783170095443829800,4.050829833984375,0.17351941764354706,-1.4698867797851562,-0.9118854999542236
1783170095453899800,4.060899658203125,-0.025657227262854576,-1.5644700527191162,-0.5540937185287476
1783170095463968800,4.07096875,-0.21939660608768463,-1.4023562669754028,-0.0864170491695404
1783170095474037800,4.081037841796875,-0.35279497504234314,-1.0475519895553589,0.38475561141967773
1783170095484107800,4.091107666015625,-0.41560056805610657,-0.6436121463775635,0.7538894414901733
1783170095494176800,4.1011767578125,-0.4063359200954437,-0.277822345495224,0.9626163244247437
1783170095504246800,4.111246826171875,-0.3261910080909729,-0.02500872127711773,0.9880135655403137
1783170095514315800,4.121315673828125,-0.19860056042671204,0.0592995248734951,0.87755286693573
1783170095524385800,4.1313857421875,-0.03594241291284561,-0.013350711204111576,0.7023690342903137
1783170095534454800,4.141454833984375,0.12220456451177597,-0.2635369896888733,0.5093817114830017
1783170095544524800,4.15152490234375,0.2661486864089966,-0.47325563430786133,0.3475768268108368
1783170095554593800,4.16159375,0.3701002597808838,-0.5472555756568909,0.27004170417785645
1783170095564663800,4.171663818359375,0.41121119260787964,-0.4824472665786743,0.2534281015396118
1783170095574732800,4.18173291015625,0.4009254276752472,-0.33715757727622986,0.29327863454818726
1783170095584802800,4.191802734375,0.33862343430519104,-0.14496548473834991,0.32629838585853577
1783170095594871800,4.201871826171875,0.2506835460662842,0.016657236963510513,0.33308783173561096
1783170095604940800,4.21194091796875,0.16503283381462097,0.10012337565422058,0.30768924951553345
1783170095615010800,4.2220107421875,0.09752713888883591,0.11559353023767471,0.2784205377101898
1783170095625079800,4.232079833984375,0.04949250444769859,0.09623953700065613,0.2529356777667999
1783170095635149800,4.24214990234375,0.01928580179810524,0.11181941628456116,0.21119748055934906
1783170095645218800,4.25221875,-0.0005616729613393545,0.1082017794251442,0.14088097214698792
1783170095655288600,4.26228857421875,-0.0056209564208984375,0.10759526491165161,0.06546256691217422
1783170095665357800,4.27235791015625,-0.02452380768954754,0.1392860859632492,0.006895391270518303
1783170095675427800,4.282427734375,-0.05179592967033386,0.2099875509738922,-0.04187261313199997
1783170095685496800,4.292496826171875,-0.06428802013397217,0.31427159905433655,-0.08260645717382431
1783170095695566800,4.30256689453125,-0.06362752616405487,0.42382165789604187,-0.11064399033784866
1783170095705635800,4.3126357421875,-0.058289479464292526,0.5248771905899048,-0.1364164650440216
1783170095715705900,4.322705810546875,-0.039117343723773956,0.6047698855400085,-0.14580771327018738
1783170095725774800,4.33277490234375,-0.019868280738592148,0.6715254783630371,-0.17150242626667023
1783170095735844900,4.342844970703125,-0.006086106412112713,0.6568118929862976,-0.2191932201385498
1783170095745913900,4.352913818359375,-0.026710158213973045,0.5670117139816284,-0.3064226508140564
1783170095755982800,4.36298291015625,-0.08185117691755295,0.442232608795166,-0.4086306691169739
1783170095766052600,4.373052490234375,-0.14270254969596863,0.29353901743888855,-0.48622560501098633
1783170095776121900,4.383121826171875,-0.16522538661956787,0.1433495283126831,-0.5378487706184387
1783170095786191600,4.393191650390625,-0.11783390492200851,0.04966990649700165,-0.5394700765609741
1783170095796260900,4.4032607421875,-0.043333593755960464,0.01743939518928528,-0.47553709149360657
1783170095806331000,4.413330810546875,0.054752759635448456,0.02064317651093006,-0.35247349739074707
1783170095816400000,4.42339990234375,0.15490227937698364,0.04640806466341019,-0.21194066107273102
1783170095826470000,4.433469970703125,0.23491376638412476,0.09595111757516861,-0.09949801862239838
1783170095836539000,4.443538818359375,0.274772584438324,0.1565285623073578,-0.06911779195070267
1783170095846609000,4.45360888671875,0.2993226945400238,0.18329545855522156,-0.07755015790462494
1783170095856678000,4.463677978515625,0.29821938276290894,0.13520954549312592,-0.09445542097091675
1783170095866747000,4.473746826171875,0.24167221784591675,0.07678164541721344,-0.10042623430490494
1783170095876816600,4.483816650390625,0.1640685498714447,0.012616670690476894,-0.08592527359724045
1783170095886886000,4.493885986328125,0.10249467194080353,-0.035555921494960785,-0.04106352478265762
1783170095896955600,4.50395556640625,0.05066459998488426,-0.06741490215063095,0.01892809569835663
1783170095907025000,4.51402490234375,0.000518344109877944,-0.10220670700073242,0.04665985703468323
1783170095917094700,4.5240947265625,-0.0463494248688221,-0.06625963747501373,0.011923594400286674
1783170095927164000,4.534163818359375,-0.07321379333734512,0.014923899434506893,-0.09408300369977951
1783170095937233700,4.544233642578125,-0.06967286020517349,0.09620235860347748,-0.3351359963417053
1783170095947303000,4.554302978515625,-0.07420849055051804,0.19849783182144165,-0.6722450852394104
1783170095957373000,4.564373046875,-0.10803627967834473,0.32115763425827026,-0.9452933669090271
1783170095967442000,4.57444189453125,-0.17919647693634033,0.4751482605934143,-0.9974777698516846
1783170095977512000,4.584511962890625,-0.23765909671783447,0.6158871054649353,-0.8329177498817444
1783170095987580700,4.59458056640625,-0.22206388413906097,0.7109640836715698,-0.5534306764602661
1783170095997651000,4.60465087890625,-0.1822744607925415,0.6758525967597961,-0.26419946551322937
1783170096007719700,4.6147197265625,-0.11260536313056946,0.44370588660240173,-0.07833719253540039
1783170096017789000,4.624788818359375,-0.005769624374806881,-0.04344126209616661,-0.03448593243956566
1783170096027858700,4.634858642578125,0.07715162634849548,-0.5963950157165527,-0.299135684967041
1783170096037928000,4.644927978515625,0.17356516420841217,-0.9614397883415222,-0.8734034895896912
1783170096047997700,4.654997802734375,0.3467004597187042,-1.0379105806350708,-1.3914788961410522
1783170096058067000,4.66506689453125,0.5019171833992004,-0.9588874578475952,-1.4336988925933838
1783170096068136700,4.67513671875,0.4602496027946472,-0.7873399257659912,-0.9763060212135315
1783170096078205700,4.685205810546875,0.18770572543144226,-0.6998085379600525,-0.1545828878879547
1783170096088276000,4.69527587890625,-0.12686553597450256,-0.731011688709259,0.6327351927757263
1783170096098344700,4.7053447265625,-0.3597342073917389,-0.7786950469017029,1.2169125080108643
1783170096108415000,4.7154150390625,-0.5207191109657288,-0.7409170269966125,1.613301396369934
1783170096118483500,4.7254833984375,-0.5713943839073181,-0.6247695088386536,1.7709585428237915
1783170096128552400,4.735552490234375,-0.5287835001945496,-0.5330300331115723,1.7219481468200684
1783170096138622500,4.74562255859375,-0.3894072473049164,-0.46704232692718506,1.5092226266860962
1783170096148691500,4.75569140625,-0.18865282833576202,-0.34542617201805115,1.121048092842102
1783170096158761500,4.765761474609375,0.0328991562128067,-0.2558775246143341,0.6626654267311096
1783170096168830500,4.77583056640625,0.21526816487312317,-0.16582006216049194,0.3037770390510559
1783170096178900500,4.785900390625,0.3633077144622803,-0.06662650406360626,0.11327040195465088
1783170096188969500,4.795969482421875,0.46747246384620667,-0.0021527018398046494,0.04558403044939041
1783170096199039500,4.80603955078125,0.5219621062278748,0.04333808645606041,0.07097287476062775
1783170096209108500,4.8161083984375,0.5113840103149414,0.046807121485471725,0.18082639575004578
1783170096219178500,4.826178466796875,0.4572901129722595,-0.021702280268073082,0.3019391596317291
1783170096229247200,4.836247314453125,0.3940615952014923,-0.10190417617559433,0.41827481985092163
1783170096239317500,4.8463173828125,0.312892884016037,-0.14850643277168274,0.500331699848175
1783170096249386200,4.85638623046875,0.24165038764476776,-0.12684987485408783,0.4989607036113739
1783170096259456500,4.86645654296875,0.1821865290403366,-0.04449908435344696,0.3946686387062073
1783170096269525500,4.876525390625,0.0968330129981041,0.09162066876888275,0.2393416464328766
1783170096279594500,4.886594482421875,0.0034698410890996456,0.21451930701732635,0.05086526647210121
1783170096289664500,4.89666455078125,-0.11849681288003922,0.28257158398628235,-0.06127485632896423
1783170096299733500,4.9067333984375,-0.22551420331001282,0.2921316921710968,-0.10236924141645432
1783170096309803500,4.916803466796875,-0.30942294001579285,0.2661330997943878,-0.06568313390016556
1783170096319872300,4.926872314453125,-0.37942808866500854,0.230180025100708,0.012022534385323524
1783170096329942500,4.936942626953125,-0.4210125505924225,0.20715859532356262,0.07602442055940628
1783170096340011300,4.94701123046875,-0.40756911039352417,0.19795989990234375,0.11899831146001816
1783170096350081500,4.95708154296875,-0.33339741826057434,0.19348153471946716,0.10950999706983566
1783170096360150300,4.967150390625,-0.22832660377025604,0.1946152150630951,0.05014190450310707
1783170096370220500,4.977220458984375,-0.14180077612400055,0.20373573899269104,-0.030781975015997887
1783170096380289300,4.987289306640625,-0.09515503793954849,0.19920717179775238,-0.13920119404792786
1783170096390358500,4.997358642578125,-0.054909877479076385,0.19829291105270386,-0.26399582624435425
1783170096400428500,5.007428466796875,-0.01594284549355507,0.17166836559772491,-0.354432612657547
1783170096410497500,5.01749755859375,0.023738253861665726,0.13738229870796204,-0.380361407995224
1783170096420567600,5.027567626953125,0.05108208209276199,0.09842637926340103,-0.3478727340698242
1783170096430636300,5.03763623046875,0.06591295450925827,0.07413435727357864,-0.26982852816581726
1783170096440706600,5.04770654296875,0.0945209413766861,0.06722132861614227,-0.17715278267860413
1783170096450775300,5.057775390625,0.13355089724063873,0.058267515152692795,-0.1158209890127182
1783170096460845600,5.067845458984375,0.17830967903137207,0.0652492493391037,-0.07185298204421997
1783170096470914300,5.077914306640625,0.199875146150589,0.07346057146787643,-0.023609556257724762
1783170096480984600,5.087984619140625,0.17759723961353302,0.03158528730273247,0.009301924146711826
1783170096491053300,5.09805322265625,0.14000512659549713,0.0013469578698277473,0.0313640832901001
1783170096501123300,5.108123291015625,0.07844828069210052,0.005872467532753944,0.07802186906337738
1783170096511192300,5.1181923828125,0.033087994903326035,0.04148479178547859,0.12482798844575882
1783170096521261600,5.128261474609375,0.010769810527563095,0.12136764824390411,0.10246273875236511
1783170096531331600,5.13833154296875,0.01058818306773901,0.2121383100748062,-0.00046736421063542366
1783170096541400300,5.148400390625,0.03934937343001366,0.28399476408958435,-0.15689617395401
1783170096551470600,5.158470703125,0.058654896914958954,0.29580268263816833,-0.40406495332717896
1783170096561539300,5.168539306640625,0.06547583639621735,0.22184287011623383,-0.6335234045982361
1783170096571609600,5.178609619140625,0.0655437484383583,0.18048956990242004,-0.7699270844459534
1783170096581678300,5.18867822265625,0.03891880810260773,0.31357651948928833,-0.7633357048034668
1783170096591748400,5.198748291015625,-0.010538225993514061,0.5740360021591187,-0.6188331246376038
1783170096601817300,5.2088173828125,-0.017652755603194237,0.9714823961257935,-0.3846273422241211
1783170096611887400,5.218887451171875,-0.017988312989473343,1.2587082386016846,-0.17653220891952515
1783170096621956400,5.228956298828125,-0.1249837726354599,1.262317419052124,0.004223064053803682
1783170096632026400,5.2390263671875,-0.22844065725803375,1.0185236930847168,0.0964488610625267
1783170096642095400,5.249095458984375,-0.25580570101737976,0.6454405784606934,-0.05395234003663063
1783170096652164400,5.259164306640625,-0.22020402550697327,0.13074475526809692,-0.5295718312263489
1783170096662234400,5.269234375,-0.06752370297908783,-0.38085952401161194,-1.0059221982955933
1783170096672303400,5.279303466796875,0.09174610674381256,-0.8054875135421753,-1.1228327751159668
1783170096682373600,5.28937353515625,0.1619531661272049,-1.1122230291366577,-0.772463858127594
1783170096692442400,5.2994423828125,0.10065198689699173,-1.3593707084655762,-0.04989016801118851
1783170096702512400,5.309512451171875,-0.06037792190909386,-1.425653100013733,0.6359617710113525
1783170096712580400,5.319580322265625,-0.2125605195760727,-1.296426773071289,0.99712073802948
1783170096722650600,5.329650634765625,-0.30672359466552734,-1.0552386045455933,1.054935336112976
1783170096732719400,5.33971923828125,-0.35489726066589355,-0.6853194236755371,0.9020166397094727
1783170096742789600,5.34978955078125,-0.3246039152145386,-0.2481311857700348,0.6634875535964966
1783170096752858400,5.3598583984375,-0.19701695442199707,0.051725834608078,0.3719606399536133
1783170096762928400,5.369928466796875,0.07364189624786377,0.20852944254875183,0.06849652528762817
1783170096772997400,5.379997314453125,0.46306100487709045,0.3328969478607178,-0.039553239941596985
1783170096783067400,5.3900673828125,0.8494387269020081,0.25298959016799927,0.164778470993042
1783170096793136400,5.400136474609375,1.110827922821045,0.06627322733402252,0.6467448472976685
1783170096803206400,5.410206298828125,1.1654434204101562,0.0035388823598623276,1.1912171840667725
1783170096813275400,5.420275390625,1.003920316696167,0.038257449865341187,1.639978289604187
1783170096823345400,5.430345458984375,0.6601845026016235,0.14976201951503754,1.7785743474960327
1783170096833414400,5.440414306640625,0.2624896168708801,0.29190635681152344,1.507450819015503
1783170096843483400,5.4504833984375,-0.05364837124943733,0.36475154757499695,1.0007904767990112
1783170096853553400,5.460553466796875,-0.2191726118326187,0.3780950605869293,0.4873948395252228
1783170096863622400,5.470622314453125,-0.2773723602294922,0.35476943850517273,0.18448427319526672
1783170096873692400,5.4806923828125,-0.26988327503204346,0.224230095744133,0.13437369465827942
1783170096883761400,5.490761474609375,-0.23921993374824524,0.0024802680127322674,0.18682603538036346
1783170096893831400,5.50083154296875,-0.18291565775871277,-0.2580791413784027,0.23785513639450073
1783170096903900400,5.510900390625,-0.15626659989356995,-0.4910658001899719,0.26718708872795105
1783170096913970400,5.520970458984375,-0.12612760066986084,-0.5987051725387573,0.29801130294799805
1783170096924039400,5.531039306640625,-0.1263655722141266,-0.5887102484703064,0.320379376411438
1783170096934109400,5.541109375,-0.14925304055213928,-0.4359361231327057,0.3223290741443634
1783170096944178400,5.551178466796875,-0.186333566904068,-0.125280499458313,0.23238800466060638
1783170096954247400,5.561247314453125,-0.22372542321681976,0.20386970043182373,0.0772538110613823
1783170096964317400,5.5713173828125,-0.24984396994113922,0.44461026787757874,-0.047681257128715515
1783170096974386400,5.581386474609375,-0.2642378509044647,0.6145694255828857,-0.10394266992807388
1783170096984456400,5.59145654296875,-0.23700177669525146,0.728594183921814,-0.1451173573732376
1783170096994525400,5.601525390625,-0.18210150301456451,0.7692409753799438,-0.19775180518627167
1783170097004595500,5.611595458984375,-0.09290860593318939,0.6914721727371216,-0.2703855335712433
1783170097014664400,5.62166455078125,0.004838460590690374,0.5023972988128662,-0.3945288062095642
1783170097024734500,5.631734375,0.09686995297670364,0.24054941534996033,-0.5588796734809875
1783170097034803500,5.641803466796875,0.16198769211769104,0.022903652861714363,-0.7115837335586548
1783170097044873500,5.65187353515625,0.20573383569717407,-0.1252290904521942,-0.8056651949882507
1783170097054942500,5.6619423828125,0.22003261744976044,-0.1896834522485733,-0.8133177757263184
1783170097065011500,5.672011474609375,0.1915673166513443,-0.15686652064323425,-0.7583852410316467
1783170097075081500,5.68208154296875,0.12985388934612274,-0.08744403719902039,-0.6377483010292053
1783170097085150500,5.692150390625,0.05419880896806717,-0.002807977609336376,-0.4279678761959076
1783170097095221500,5.702221435546875,-0.008270958438515663,0.056984249502420425,-0.19441372156143188
1783170097105290500,5.71229052734375,-0.06012720987200737,0.08333343267440796,-0.029998207464814186
1783170097115359000,5.72235888671875,-0.08011716604232788,0.07056570798158646,0.0670175552368164
1783170097125429200,5.73242919921875,-0.08599589765071869,0.030297528952360153,0.1155429258942604
1783170097135498000,5.742498046875,-0.0924103856086731,-0.02911279909312725,0.08457808941602707
1783170097145568300,5.752568359375,-0.09721866995096207,-0.10534633696079254,-0.017501788213849068
1783170097155637000,5.762636962890625,-0.09074000269174576,-0.16988910734653473,-0.1676795780658722
1783170097165707000,5.77270703125,-0.07726228982210159,-0.185100257396698,-0.33132442831993103
1783170097175776300,5.7827763671875,-0.05419744923710823,-0.1860046684741974,-0.42500805854797363
1783170097185846000,5.792845947265625,-0.005665440112352371,-0.17327837646007538,-0.4256114661693573
1783170097195915300,5.802915283203125,0.07962176203727722,-0.11420705914497375,-0.3598811626434326
1783170097205985000,5.812985107421875,0.16570527851581573,-0.00889490731060505,-0.27771154046058655
1783170097216054300,5.82305419921875,0.2731534242630005,-0.03875799849629402,-0.17519447207450867
1783170097226123000,5.833123046875,0.40218138694763184,-0.27457770705223083,-0.2012910693883896
1783170097236193300,5.843193359375,0.5110343098640442,-0.5686450004577637,-0.4538559317588806
1783170097246262000,5.853261962890625,0.6022284626960754,-0.7337661981582642,-0.8320994973182678
1783170097256332000,5.86333203125,0.6743183732032776,-0.42831331491470337,-1.2721750736236572
1783170097266401000,5.873401123046875,0.7106698751449585,0.07704053074121475,-1.6045881509780884
1783170097276471000,5.883470947265625,0.6431411504745483,0.6325889825820923,-1.6749142408370972
1783170097286540000,5.8935400390625,0.4060117304325104,1.0677690505981445,-1.397631287574768
1783170097296610000,5.903610107421875,0.06609783321619034,1.2164874076843262,-1.0073013305664062
1783170097306679300,5.91367919921875,-0.23423165082931519,1.0070486068725586,-0.9126954674720764
1783170097316749000,5.9237490234375,-0.41066715121269226,0.4307895302772522,-1.0156625509262085
1783170097326818300,5.933818359375,-0.4599483609199524,-0.23159508407115936,-1.0588668584823608
1783170097336888000,5.94388818359375,-0.42771798372268677,-0.8769463896751404,-0.9226190447807312
1783170097346957300,5.953957275390625,-0.338485985994339,-1.306569218635559,-0.6462565064430237
1783170097357026000,5.964026123046875,-0.2653678357601166,-1.3772026300430298,-0.3086685836315155
1783170097367096000,5.974095947265625,-0.2531006634235382,-1.0812132358551025,0.07040118426084518
1783170097377165000,5.9841650390625,-0.3717101514339447,-0.6593685746192932,0.42315366864204407
1783170097387235000,5.994235107421875,-0.5209912657737732,-0.26956748962402344,0.7411523461341858
1783170097397304000,6.004303955078125,-0.5867571830749512,-0.0839875191450119,1.0722708702087402
1783170097407374000,6.0143740234375,-0.5831356644630432,-0.13410566747188568,1.360081434249878
1783170097417443000,6.024443115234375,-0.5408771634101868,-0.33429068326950073,1.4889192581176758
1783170097427513000,6.03451318359375,-0.4328768253326416,-0.5641199946403503,1.415382742881775
1783170097437582000,6.04458203125,-0.25376302003860474,-0.6441144347190857,1.1944806575775146
1783170097447652000,6.054652099609375,-0.07980240881443024,-0.5672805905342102,1.0169779062271118
1783170097457721300,6.064721435546875,0.025856105610728264,-0.3374931812286377,0.9438256621360779
1783170097467790000,6.0747900390625,0.07308228313922882,-0.020165525376796722,0.8894332647323608
1783170097477860000,6.084860107421875,0.07015040516853333,0.1701602041721344,0.8519750833511353
1783170097487929000,6.09492919921875,-0.020930670201778412,0.20777015388011932,0.8384576439857483
1783170097497999000,6.1049990234375,-0.14307202398777008,0.1738409548997879,0.928724467754364
1783170097508068000,6.115068115234375,-0.23077237606048584,0.08479125797748566,1.108285903930664
1783170097518138000,6.12513818359375,-0.2721397876739502,0.03307612985372543,1.2953768968582153
1783170097528207000,6.13520703125,-0.28956371545791626,-0.036796290427446365,1.3606765270233154
1783170097538277000,6.145277099609375,-0.26778730750083923,-0.03791961073875427,1.2119534015655518
1783170097548346000,6.15534619140625,-0.2233409881591797,0.000504588708281517,0.9034442901611328
1783170097558416100,6.165416015625,-0.19667741656303406,0.03451874852180481,0.5530516505241394
1783170097568485000,6.175485107421875,-0.21011267602443695,0.03914877399802208,0.27632492780685425
1783170097578554000,6.18555419921875,-0.24666403234004974,0.06334785372018814,0.12022107094526291
1783170097588624100,6.1956240234375,-0.30481505393981934,0.12802955508232117,0.009474748745560646
1783170097598693000,6.205693115234375,-0.3601970672607422,0.20861095190048218,-0.10293621569871902
1783170097608763100,6.21576318359375,-0.4090782105922699,0.2456178218126297,-0.17714790999889374
1783170097618832100,6.22583203125,-0.4590319097042084,0.26689326763153076,-0.20010782778263092
1783170097628902100,6.235902099609375,-0.49165719747543335,0.2909926474094391,-0.19993118941783905
1783170097638971100,6.24597119140625,-0.4858240783214569,0.3158077001571655,-0.2578381597995758
1783170097649041200,6.256041259765625,-0.42539823055267334,0.3213050067424774,-0.3550354242324829
1783170097659110100,6.266110107421875,-0.34027984738349915,0.33093953132629395,-0.45629867911338806
1783170097669180200,6.27618017578125,-0.22004103660583496,0.3796413838863373,-0.5242050886154175
1783170097679249200,6.286249267578125,-0.09267828613519669,0.42678385972976685,-0.5581390857696533
1783170097689318100,6.296318115234375,0.03358570113778114,0.45794087648391724,-0.5840504765510559
1783170097699388000,6.306387939453125,0.1318901628255844,0.4644347131252289,-0.5783385634422302
1783170097709457200,6.31645703125,0.19852206110954285,0.4478369653224945,-0.4969768226146698
1783170097719527200,6.326527099609375,0.22911833226680756,0.3687959313392639,-0.3562857210636139
1783170097729596200,6.33659619140625,0.21866212785243988,0.21334496140480042,-0.203575998544693
1783170097739666200,6.346666259765625,0.1944558471441269,-0.0030435295775532722,-0.11406155675649643
1783170097749735200,6.356735107421875,0.16624121367931366,-0.20638173818588257,-0.07045402377843857
1783170097759805200,6.36680517578125,0.13368992507457733,-0.3310946226119995,-0.05546601489186287
1783170097769874200,6.376874267578125,0.12568853795528412,-0.3769097924232483,-0.0998729020357132
1783170097779944200,6.386944091796875,0.135466068983078,-0.3419067859649658,-0.13409265875816345
1783170097790013200,6.39701318359375,0.14947958290576935,-0.23113182187080383,-0.10895654559135437
1783170097800083200,6.407083251953125,0.15285009145736694,-0.11654958873987198,-0.031346701085567474
1783170097810152000,6.41715185546875,0.11345899850130081,-0.04137680307030678,0.03732024133205414
1783170097820221200,6.42722119140625,0.05501619726419449,-0.011719043366611004,0.10005766153335571
1783170097830291000,6.437291015625,-0.0017566436436027288,0.03213668614625931,0.16068752110004425
1783170097840360200,6.447360107421875,-0.03556680306792259,0.10810202360153198,0.2331010103225708
1783170097850430200,6.45743017578125,-0.052627481520175934,0.21763397753238678,0.32967448234558105
1783170097860499200,6.467499267578125,-0.04552536457777023,0.42887938022613525,0.3244951665401459
1783170097870569200,6.4775693359375,-0.01848338171839714,0.6554303765296936,0.25088971853256226
1783170097880638200,6.48763818359375,0.030889492481946945,0.8962517976760864,0.20038819313049316
1783170097890708200,6.497708251953125,0.05684732273221016,1.0798876285552979,0.1662704348564148
1783170097900777200,6.507777099609375,-0.007752441335469484,1.249112844467163,0.09714463353157043
1783170097910847200,6.51784716796875,-0.187799870967865,1.242775797843933,-0.09784117341041565
1783170097920916000,6.527916015625,-0.3583420515060425,0.9779864549636841,-0.3352249562740326
1783170097930985200,6.537985107421875,-0.41788676381111145,0.7047096490859985,-0.6157112121582031
1783170097941055000,6.548054931640625,-0.3941686451435089,0.482217937707901,-0.9422866702079773
1783170097951124200,6.558124267578125,-0.2561638057231903,0.24015313386917114,-1.233642578125
1783170097961194000,6.568194091796875,0.007505095563828945,-0.06058299541473389,-1.4391499757766724
1783170097971263200,6.57826318359375,0.32268422842025757,-0.4066672921180725,-1.4886976480484009
1783170097981333000,6.5883330078125,0.5391039252281189,-0.7475269436836243,-1.2195162773132324
1783170097991402200,6.59840234375,0.5649585127830505,-0.9493603706359863,-0.7392475008964539
1783170098001472300,6.60847216796875,0.47557532787323,-0.9810045957565308,-0.3072792589664459
1783170098011541200,6.618541259765625,0.3383011519908905,-0.8789981007575989,-0.03795285522937775
1783170098021610000,6.62860986328125,0.13876381516456604,-0.6641057729721069,0.09338545799255371
1783170098031680000,6.638679931640625,-0.06529181450605392,-0.4094393849372864,0.12217354029417038
1783170098041749200,6.648749267578125,-0.20641565322875977,-0.27664804458618164,0.15893901884555817
1783170098051819000,6.658819091796875,-0.2654014229774475,-0.24950191378593445,0.22994063794612885
1783170098061888300,6.66888818359375,-0.25807639956474304,-0.2937375605106354,0.24152618646621704
1783170098071958000,6.6789580078125,-0.19640883803367615,-0.40786558389663696,0.26361972093582153
1783170098082027300,6.68902734375,-0.05731566995382309,-0.47031402587890625,0.30819249153137207
1783170098092097000,6.699096923828125,0.10042931884527206,-0.47340279817581177,0.3358888328075409
1783170098102166300,6.709166259765625,0.26026374101638794,-0.4066341519355774,0.3340153098106384
1783170098112236000,6.719236083984375,0.37214335799217224,-0.3022783100605011,0.3312925398349762
1783170098122305300,6.72930517578125,0.3930835425853729,-0.2510164678096771,0.34844544529914856
1783170098132374500,6.73937451171875,0.32294923067092896,-0.3486354351043701,0.3709666132926941
1783170098142444500,6.749444580078125,0.21162325143814087,-0.5174585580825806,0.41668111085891724
1783170098152513500,6.759513427734375,0.11822535842657089,-0.627305805683136,0.5287506580352783
1783170098162583600,6.76958349609375,0.044404659420251846,-0.6754800081253052,0.7346615195274353
1783170098172652500,6.779652587890625,-0.015024748630821705,-0.653149425983429,0.9630087018013
1783170098182722600,6.78972265625,-0.04295491799712181,-0.5468634366989136,1.163503885269165
1783170098192791600,6.79979150390625,-0.06555512547492981,-0.3211120665073395,1.2451967000961304
1783170098202861600,6.809861572265625,-0.0631532222032547,-0.07122073322534561,1.190301537513733
1783170098212930600,6.8199306640625,-0.06264283508062363,0.08644453436136246,1.027454137802124
1783170098223000600,6.83000048828125,-0.09487027674913406,0.14459332823753357,0.795926570892334
1783170098233069300,6.8400693359375,-0.13615375757217407,0.09056656062602997,0.5265703797340393
1783170098243138600,6.850138671875,-0.16591404378414154,0.01951795071363449,0.2631467282772064
1783170098253208300,6.860208251953125,-0.17366842925548553,0.025067463517189026,0.051305972039699554
1783170098263277600,6.870277587890625,-0.13892722129821777,0.0966913178563118,-0.06962285190820694
1783170098273347600,6.88034765625,-0.110125333070755,0.206857368350029,-0.08662094920873642
1783170098283416600,6.89041650390625,-0.07724914699792862,0.27529314160346985,-0.06351882219314575
1783170098293486600,6.900486572265625,-0.0582006573677063,0.2980394661426544,-0.10210682451725006
1783170098303555600,6.9105556640625,-0.018546458333730698,0.2764953076839447,-0.20144112408161163
1783170098313625600,6.92062548828125,0.04639332741498947,0.23410163819789886,-0.3377194106578827
1783170098323694600,6.930694580078125,0.11420726031064987,0.16734790802001953,-0.4785130023956299
1783170098333764600,6.9407646484375,0.19615918397903442,0.07023374736309052,-0.5890359878540039
1783170098343833300,6.950833251953125,0.29241299629211426,-0.028209472075104713,-0.6644609570503235
1783170098353902600,6.960902587890625,0.3713507354259491,-0.0838041603565216,-0.6677700281143188
1783170098363972400,6.970972412109375,0.4457072615623474,-0.07755798101425171,-0.6128508448600769
1783170098374041600,6.98104150390625,0.48147377371788025,-0.04401681572198868,-0.5435758829116821
1783170098384111400,6.991111328125,0.4610678553581238,-0.023107275366783142,-0.4998624920845032
1783170098394180600,7.0011806640625,0.40114840865135193,-0.05766058340668678,-0.46219801902770996
1783170098404250600,7.011250732421875,0.3360743522644043,-0.08765895664691925,-0.44631174206733704
1783170098414319600,7.021319580078125,0.30198848247528076,-0.10907839238643646,-0.47018304467201233
1783170098424389600,7.0313896484375,0.29677295684814453,-0.11780290305614471,-0.5008978247642517
1783170098434458400,7.041458251953125,0.2919316589832306,-0.11455501616001129,-0.49352797865867615
1783170098444528600,7.051528564453125,0.2712562084197998,-0.07252980768680573,-0.42228788137435913
1783170098454597400,7.061597412109375,0.22897250950336456,0.04428509995341301,-0.30730465054512024
1783170098464666600,7.07166650390625,0.1921425759792328,0.1894579976797104,-0.20051054656505585
1783170098474736400,7.081736328125,0.14428268373012543,0.30290740728378296,-0.11905621737241745
1783170098484805600,7.0918056640625,0.10670895129442215,0.25771865248680115,-0.05036237835884094
1783170098494875400,7.10187548828125,0.10860978811979294,0.033473189920186996,-0.05793981999158859
1783170098504944600,7.111944580078125,0.18707050383090973,-0.23851677775382996,-0.21678166091442108
1783170098515014400,7.122014404296875,0.3570255637168884,-0.4065437316894531,-0.5921103358268738
1783170098525083600,7.132083740234375,0.508499801158905,-0.3102312982082367,-1.0640426874160767
1783170098535153700,7.142153564453125,0.6228646039962769,0.05018628388643265,-1.3936837911605835
1783170098545222400,7.152222412109375,0.6962242722511292,0.560429573059082,-1.4941723346710205
1783170098555291400,7.16229150390625,0.6400882601737976,1.0658015012741089,-1.2640594244003296
1783170098565361400,7.172361328125,0.4299861788749695,1.3372745513916016,-0.7904027700424194
1783170098575430400,7.182430419921875,0.13127830624580383,1.0979912281036377,-0.3911093771457672
1783170098585500400,7.19250048828125,-0.06827128678560257,0.5393672585487366,-0.3333347737789154
1783170098595569700,7.202569580078125,-0.0893860012292862,0.02350589819252491,-0.5292709469795227
1783170098605639400,7.212639404296875,-0.07424646615982056,-0.3300425708293915,-0.7372459769248962
1783170098615708700,7.222708740234375,-0.13699446618556976,-0.6157492995262146,-0.8032600283622742
1783170098625778400,7.2327783203125,-0.2677735388278961,-0.7749636769294739,-0.6949697732925415
1783170098635847700,7.24284765625,-0.4816323518753052,-0.772668719291687,-0.3077060282230377
1783170098645917400,7.25291748046875,-0.7494291663169861,-0.6335265636444092,0.21835961937904358
1783170098655986400,7.262986328125,-0.9288573861122131,-0.41805019974708557,0.6698725819587708
1783170098666055400,7.273055419921875,-0.9980212450027466,-0.23384146392345428,0.9413432478904724
1783170098676125400,7.28312548828125,-1.0206201076507568,-0.17850230634212494,1.042251467704773
1783170098686194400,7.2931943359375,-0.9899477362632751,-0.10365281999111176,0.9926642775535583
1783170098696264400,7.303264404296875,-0.8661943674087524,0.04491241276264191,0.9122474193572998
1783170098706333400,7.31333349609375,-0.705202579498291,0.17910270392894745,1.000265121459961
1783170098716403500,7.323403564453125,-0.46782034635543823,0.25115135312080383,1.1455632448196411
1783170098726472700,7.33347265625,-0.16755373775959015,0.2625320851802826,1.2642477750778198
1783170098736542500,7.34354248046875,0.10901658236980438,0.1909504383802414,1.3308261632919312
1783170098746611700,7.35361181640625,0.30093836784362793,0.0679803118109703,1.3319721221923828
1783170098756681500,7.363681396484375,0.43945711851119995,-0.02820136770606041,1.4149278402328491
1783170098766750500,7.37375048828125,0.5116484761238098,-0.06868167966604233,1.5534870624542236
1783170098776819500,7.3838193359375,0.48289957642555237,-0.15543054044246674,1.6869348287582397
1783170098786889500,7.393889404296875,0.37932658195495605,-0.2814832925796509,1.7152445316314697
1783170098796958500,7.40395849609375,0.224674791097641,-0.403598427772522,1.6192290782928467
1783170098807028500,7.414028564453125,0.048144496977329254,-0.5505577325820923,1.4398115873336792
1783170098817097500,7.424097412109375,-0.13982506096363068,-0.6444847583770752,1.22578763961792
1783170098827167500,7.43416748046875,-0.2902478575706482,-0.6106091141700745,1.0651137828826904
1783170098837236500,7.444236572265625,-0.40494465827941895,-0.4777795672416687,0.9692229628562927
1783170098847306500,7.454306396484375,-0.5029918551445007,-0.32998716831207275,0.9053404331207275
1783170098857375700,7.464375732421875,-0.572188138961792,-0.20599624514579773,0.8137791752815247
1783170098867444500,7.474444580078125,-0.6064134836196899,-0.1425890475511551,0.6516333818435669
1783170098877514500,7.484514404296875,-0.6472339034080505,-0.16497667133808136,0.4071628153324127
1783170098887583500,7.49458349609375,-0.6566247940063477,-0.22472575306892395,0.11482763290405273
1783170098897653500,7.504653564453125,-0.6126998662948608,-0.2657662630081177,-0.10811790078878403
1783170098907722500,7.514722412109375,-0.5214679837226868,-0.22038784623146057,-0.19218911230564117
1783170098917792500,7.52479248046875,-0.3835970163345337,-0.07943658530712128,-0.17355628311634064
1783170098927861500,7.534861572265625,-0.22478526830673218,0.112297423183918,-0.11233155429363251
1783170098937931500,7.544931640625,-0.07721997797489166,0.2948751151561737,-0.047067269682884216
1783170098948000500,7.55500048828125,0.05096888542175293,0.40071576833724976,-0.03699466213583946
1783170098958070500,7.565070556640625,0.15935128927230835,0.3864976763725281,-0.10733485966920853
1783170098968139500,7.575139404296875,0.23206543922424316,0.28672847151756287,-0.2039617896080017
1783170098978208500,7.58520849609375,0.2978423535823822,0.17397911846637726,-0.2747736871242523
1783170098988278500,7.595278564453125,0.3208989202976227,0.1144992932677269,-0.3245500326156616
1783170098998347500,7.605347412109375,0.3197587728500366,0.10048897564411163,-0.29400721192359924
1783170099008417500,7.61541748046875,0.32917144894599915,0.10875250399112701,-0.20725420117378235
1783170099018486500,7.625486572265625,0.34173232316970825,0.11324749886989594,-0.10317699611186981
1783170099028556500,7.635556640625,0.33785876631736755,0.09745681285858154,-0.00687682768329978
1783170099038625500,7.64562548828125,0.2824804186820984,0.04297176003456116,-0.015350351110100746
1783170099048695600,7.655695556640625,0.1741723120212555,-0.07731683552265167,-0.1501811444759369
1783170099058764500,7.6657646484375,0.03909456357359886,-0.2193876951932907,-0.33743783831596375
1783170099068833500,7.67583349609375,-0.09685315191745758,-0.3095647096633911,-0.4980908930301666
1783170099078903600,7.685903564453125,-0.19544750452041626,-0.3387971818447113,-0.5643627047538757
1783170099088972500,7.69597265625,-0.2861989736557007,-0.3454289734363556,-0.5058797001838684
1783170099099042300,7.706042236328125,-0.37685880064964294,-0.29665228724479675,-0.4014343321323395
1783170099109111600,7.716111572265625,-0.40300944447517395,-0.1986367553472519,-0.2913680076599121
1783170099119180800,7.726180908203125,-0.3985579013824463,-0.07204551994800568,-0.22460603713989258
1783170099129249800,7.736249755859375,-0.38649430871009827,0.051623158156871796,-0.22776374220848083
1783170099139319800,7.74631982421875,-0.35950419306755066,0.16905471682548523,-0.36588525772094727
1783170099149389000,7.75638916015625,-0.3271861970424652,0.3042308986186981,-0.6359644532203674
1783170099159458800,7.766458740234375,-0.2997891902923584,0.5031009912490845,-0.9190604090690613
1783170099169528000,7.776528076171875,-0.25985267758369446,0.8111738562583923,-1.1525607109069824
1783170099179596800,7.7865966796875,-0.16691458225250244,1.1111658811569214,-1.1882721185684204
1783170099189667000,7.7966669921875,0.06590989232063293,1.1950381994247437,-0.9624072909355164
1783170099199735800,7.80673583984375,0.37301766872406006,1.0698399543762207,-0.7032222151756287
1783170099209806000,7.81680615234375,0.6233859658241272,0.7757629156112671,-0.6599758863449097
1783170099219874800,7.826874755859375,0.7000224590301514,0.2835071384906769,-0.8598828911781311
1783170099229944800,7.83694482421875,0.5723813772201538,-0.2190992683172226,-1.2059361934661865
1783170099240013800,7.847013916015625,0.36343392729759216,-0.5868259072303772,-1.446940541267395
1783170099250083800,7.857083740234375,0.12701182067394257,-0.7800595164299011,-1.3874242305755615
1783170099260152800,7.86715283203125,-0.15279841423034668,-0.6895433664321899,-1.068917989730835
1783170099270221800,7.877221923828125,-0.41414666175842285,-0.3257278800010681,-0.5674103498458862
1783170099280292000,7.8872919921875,-0.5961950421333313,0.20300497114658356,-0.005623620003461838
1783170099290360800,7.89736083984375,-0.7036410570144653,0.6184365153312683,0.37495702505111694
1783170099300431000,7.90743115234375,-0.6972151398658752,0.7740108966827393,0.45984888076782227
1783170099310499800,7.917499755859375,-0.6144523024559021,0.73756343126297,0.37577635049819946
1783170099320570000,7.927570068359375,-0.5098142623901367,0.6335095763206482,0.3501867651939392
1783170099330638800,7.937638916015625,-0.45075365900993347,0.5922838449478149,0.3796599507331848
1783170099340708900,7.947708984375,-0.4534222185611725,0.4612807035446167,0.528800904750824
1783170099350777900,7.95777783203125,-0.4864121377468109,0.21899458765983582,0.862772524356842
1783170099360848000,7.967847900390625,-0.48067009449005127,0.013567517511546612,1.2483806610107422
1783170099370916900,7.977916748046875,-0.38767969608306885,-0.17487534880638123,1.5196164846420288
1783170099380985900,7.98798583984375,-0.25609010457992554,-0.2971108853816986,1.5567716360092163
1783170099391056000,7.998055908203125,-0.07691074162721634,-0.3073185086250305,1.3479909896850586
1783170099401124900,8.008124755859376,0.11863785982131958,-0.30830082297325134,0.9402406215667725
1783170099411195100,8.018195068359375,0.284516841173172,-0.36311134696006775,0.5197216272354126
1783170099421264000,8.028263916015625,0.30827707052230835,-0.40129971504211426,0.17913351953029633
1783170099431334100,8.038334228515625,0.2431902289390564,-0.36952847242355347,-0.06276857852935791
1783170099441403000,8.04840283203125,0.14610892534255981,-0.31201446056365967,-0.12474533915519714
1783170099451473000,8.058472900390624,0.06784927845001221,-0.26383548974990845,0.06763183325529099
1783170099461542000,8.0685419921875,0.03755403310060501,-0.2438817173242569,0.43155622482299805
1783170099471611100,8.078611083984375,0.07255542278289795,-0.28416311740875244,0.843835175037384
1783170099481681000,8.088680908203125,0.18350206315517426,-0.30204543471336365,1.1381148099899292
1783170099491750000,8.09875,0.26391884684562683,-0.25603240728378296,1.2129621505737305
1783170099501820000,8.10881982421875,0.25884753465652466,-0.1486150324344635,1.0095571279525757
1783170099511889000,8.118888916015624,0.17745015025138855,-0.02585768699645996,0.6379406452178955
1783170099521959000,8.128958984375,0.011215182952582836,0.10817282646894455,0.30319246649742126
1783170099532028000,8.13902783203125,-0.18829871714115143,0.20570817589759827,0.08559945225715637
1783170099542098000,8.149097900390625,-0.36114245653152466,0.2764526903629303,-0.005069340113550425
1783170099552167000,8.1591669921875,-0.5003032684326172,0.2648617923259735,0.03774523362517357
1783170099562236000,8.16923583984375,-0.5817753076553345,0.1805073469877243,0.19451068341732025
1783170099572306000,8.179305908203125,-0.5707980394363403,0.0685829445719719,0.4016079306602478
1783170099582375000,8.189375,-0.49151933193206787,-0.030197544023394585,0.5486645102500916
1783170099592445000,8.19944482421875,-0.3876083791255951,-0.07745134085416794,0.552288293838501
1783170099602514000,8.209513916015625,-0.23192459344863892,-0.054465606808662415,0.4108523726463318
1783170099612584000,8.219583984375,-0.0820501446723938,0.019505290314555168,0.23329010605812073
1783170099622653000,8.22965283203125,0.039848122745752335,0.13535988330841064,0.04962950944900513
1783170099632723000,8.239722900390625,0.13705003261566162,0.2472512573003769,-0.11770275980234146
1783170099642792000,8.2497919921875,0.2066372185945511,0.2995862364768982,-0.1689223349094391
1783170099652862000,8.259862060546874,0.23019501566886902,0.25696393847465515,-0.16053125262260437
1783170099662931000,8.269930908203126,0.2255450040102005,0.17670422792434692,-0.17505225539207458
1783170099673000000,8.28,0.20294567942619324,0.08727981150150299,-0.2059079110622406
1783170099683070000,8.290070068359375,0.1543862670660019,0.02286994270980358,-0.24318218231201172
1783170099693139000,8.300138916015625,0.11053838580846786,-0.01468728668987751,-0.292171835899353
1783170099703209000,8.310208984375,0.07612952589988708,0.005303331185132265,-0.335384726524353
1783170099713277700,8.320277587890626,0.06715014576911926,0.04453542083501816,-0.3610631823539734
1783170099723348000,8.330347900390626,0.06288043409585953,0.08984962850809097,-0.3700248599052429
1783170099733417000,8.3404169921875,0.07713501155376434,0.12221822142601013,-0.38641849160194397
1783170099743487000,8.350487060546875,0.08752637356519699,0.1162446141242981,-0.3760848343372345
1783170099753556000,8.360555908203125,0.0718826949596405,0.11856023222208023,-0.27677929401397705
1783170099763625000,8.370625,0.048508819192647934,0.11250381916761398,-0.15671274065971375
1783170099773695000,8.380695068359374,0.03369444981217384,0.11366309225559235,-0.15236805379390717
1783170099783764000,8.390763916015626,0.010808735154569149,0.1094072163105011,-0.2617519795894623
1783170099793834000,8.400833984375,-0.03971090167760849,0.09241385757923126,-0.42072752118110657
1783170099803903000,8.410903076171875,-0.095078244805336,0.06995994597673416,-0.6243245005607605
1783170099813973000,8.420972900390625,-0.1505982130765915,0.04184549301862717,-0.842993438243866
1783170099824041700,8.431041748046875,-0.1375812143087387,0.052841417491436005,-0.9995641708374023
1783170099834112000,8.441112060546875,-0.08007025718688965,0.1618395298719406,-1.0356342792510986
1783170099844180700,8.4511806640625,-0.005321241915225983,0.29499733448028564,-0.8914260864257812
1783170099854250000,8.46125,0.06319469958543777,0.43524712324142456,-0.6130139231681824
1783170099864320000,8.471320068359375,0.0797148272395134,0.527343213558197,-0.37964558601379395
1783170099874389000,8.481388916015625,0.053781233727931976,0.5625008940696716,-0.3542267978191376
1783170099884459000,8.491458984375,-0.017930682748556137,0.44656050205230713,-0.5036447644233704
1783170099894528000,8.501528076171875,-0.10683844983577728,0.19295832514762878,-0.8536128997802734
1783170099904598000,8.511597900390624,-0.10049408674240112,-0.08090442419052124,-1.3782047033309937
1783170099914667000,8.5216669921875,-0.032062824815511703,-0.3045226037502289,-1.8687241077423096
1783170099924737000,8.531737060546876,0.05425465852022171,-0.43216919898986816,-2.0579774379730225
1783170099934805800,8.5418056640625,0.12260469049215317,-0.4957689642906189,-1.8123170137405396
1783170099944875000,8.551875,0.08467155694961548,-0.3613493740558624,-1.1777535676956177
1783170099954944800,8.56194482421875,-0.07526378333568573,-0.11296112835407257,-0.5139992833137512
1783170099965014000,8.572013916015624,-0.2843243479728699,0.06291332840919495,-0.1396559625864029
1783170099975083800,8.582083740234374,-0.4120205044746399,0.13748982548713684,-0.04971862584352493
1783170099985153000,8.592153076171876,-0.4673658609390259,0.24610929191112518,-0.04159320890903473
1783170099995222800,8.602222900390625,-0.5093897581100464,0.39327821135520935,-0.013318960554897785
1783170100005292000,8.6122919921875,-0.4750082790851593,0.5081170797348022,0.0229770727455616
1783170100015362000,8.622362060546875,-0.37276792526245117,0.5600439310073853,-0.015519719570875168
1783170100025431000,8.63243115234375,-0.21508605778217316,0.5159367322921753,-0.1318044364452362
1783170100035499800,8.642499755859374,-0.04912026226520538,0.397262305021286,-0.21258050203323364
1783170100045569800,8.65256982421875,0.08342268317937851,0.29960525035858154,-0.18914923071861267
1783170100055639000,8.66263916015625,0.1713211089372635,0.27351853251457214,-0.09957034140825272
1783170100065708800,8.672708740234375,0.23141658306121826,0.27006426453590393,0.025265667587518692
1783170100075778000,8.682778076171875,0.24958892166614532,0.2770928740501404,0.1513833850622177
1783170100085847800,8.692847900390625,0.23844367265701294,0.3088287115097046,0.23505698144435883
1783170100095917000,8.7029169921875,0.22109238803386688,0.34976279735565186,0.2970998287200928
1783170100105986800,8.71298681640625,0.19955633580684662,0.35246244072914124,0.35074642300605774
1783170100116056000,8.72305615234375,0.18839901685714722,0.26245108246803284,0.3871331810951233
1783170100126126800,8.733126953125,0.18394804000854492,0.08499735593795776,0.3856882154941559
1783170100136195600,8.743195556640625,0.15417149662971497,-0.08018387854099274,0.3899087905883789
1783170100146264800,8.753264892578125,0.10661353915929794,-0.16826340556144714,0.3978115916252136
1783170100156334800,8.7633349609375,0.058781832456588745,-0.20765236020088196,0.4083031415939331
1783170100166403800,8.77340380859375,0.046002767980098724,-0.22613005340099335,0.42245379090309143
1783170100176473900,8.783473876953124,0.0476592518389225,-0.17359599471092224,0.45628657937049866
1783170100186542800,8.79354296875,0.03222688287496567,-0.06373490393161774,0.5399044752120972
1783170100196612900,8.80361279296875,-0.007043823599815369,0.05078236013650894,0.6498131155967712
1783170100206681900,8.813681884765625,-0.07527479529380798,0.17089854180812836,1.070562720298767
1783170100216751900,8.823751953125,-0.14206448197364807,0.20820356905460358,1.0516910552978516
1783170100226820600,8.833820556640624,-0.15329992771148682,-0.16195201873779297,0.9235692620277405
1783170100236889900,8.843889892578124,-0.18644562363624573,-0.4210469722747803,0.7039428949356079
1783170100246959600,8.853959716796876,-0.23882754147052765,-0.5475621223449707,0.626505434513092
1783170100257028900,8.86402880859375,-0.275424987077713,-0.578468918800354,0.6898394227027893
1783170100267098600,8.8740986328125,-0.2653648853302002,-0.5182459354400635,0.8550372123718262
