time,seconds_elapsed,z,y,x
1783174159984431000,0.08343115234375,0.04287584965229034,0.014010713417863007,-0.03840417043121997
1783174159994500000,0.0935,-0.020270634612441062,0.020989818015752823,-0.04716383830294944
1783174160004568000,0.103568115234375,-0.06965045933127403,0.03629550314759836,-0.033075620935775804
1783174160014637300,0.11363720703125,-0.004556932651996613,0.02489510237558279,0.0020171299569701658
1783174160024706000,0.1237060546875,0.024473346999287604,0.006729506901127751,-0.00008969357108144321
1783174160034774000,0.13377392578125,-0.009494973576068877,-0.01858133210191736,-0.004891908789737499
1783174160044843300,0.14384326171875,-0.039272272202372546,-0.01286447284205351,0.009637329772382509
1783174160054911200,0.1539111328125,-0.02954641247987747,-0.036301825573819224,0.0493866289189551
1783174160064980000,0.16397998046875,-0.0033598318219184875,-0.03544035903943004,0.03413005732557503
1783174160075049200,0.17404931640625,-0.005605564922094345,-0.06451773608531802,0.0304828759126598
1783174160085117200,0.1841171875,-0.018325930285453797,-0.046480148621415716,0.03279957362350542
1783174160095185700,0.194185546875,-0.0561842440366745,-0.04667026436603628,0.040322662604716605
1783174160105254700,0.204254638671875,-0.02116962927877903,-0.02351807383475825,0.0492359410024248
1783174160115323000,0.214322998046875,0.012498831567168234,-0.02230170204862952,0.030913935690128708
1783174160125391600,0.2243916015625,-0.0036620296388864514,-0.029649802072404415,0.01481051974275615
1783174160135460900,0.2344609375,-0.04645838431417942,-0.0011322873989818617,0.02362210274810204
1783174160145528800,0.24452880859375,-0.016231003832817077,-0.0072734090860583816,0.003013229178465553
1783174160155597600,0.25459765625,0.01699029776751995,0.00157950601009652,-0.002460130477749044
1783174160165665800,0.264665771484375,0.004422492617368698,0.00924839210358914,0.0037104573345292007
1783174160175734800,0.27473486328125,-0.020714871248602867,0.008125406822492368,-0.01717717580886092
1783174160185803800,0.2848037109375,-0.03343231400251388,0.009378372875519563,-0.02297442966144299
1783174160195871700,0.294871826171875,-0.009639350482821465,0.0003379130177432671,-0.014043891884968615
1783174160205940700,0.304940673828125,0.013256371936202048,0.008821707107138354,-0.03038380858551245
1783174160216009700,0.315009765625,-0.012929624199867248,0.011353565955604427,-0.030091949499468317
1783174160226077700,0.32507763671875,-0.03417816393375397,-0.007433885460952297,-0.01616993157014367
1783174160236146700,0.335146728515625,-0.020710195073485375,0.0018590239210869186,-0.003739693703812372
1783174160246216000,0.3452158203125,-0.014724106401205061,-0.012734651900327298,-0.0037401306681742424
1783174160256283600,0.35528369140625,-0.0035018706411123275,-0.006355266761255916,0.007378845646843547
1783174160266352600,0.3653525390625,-0.019812953972816467,-0.02274653918970143,0.012688044271135004
1783174160276420900,0.3754208984375,-0.019364041161537168,-0.0488658016489353,0.04760953624383546
1783174160286489600,0.385489501953125,-0.011284195080399512,-0.028655731267447117,0.03504930019549792
1783174160296558800,0.395558837890625,-0.007543839508295059,-0.02581093401229009,0.04292751590744592
1783174160306626800,0.405626708984375,-0.003952537018060684,-0.03412178725415142,0.04134837522353045
1783174160316695800,0.41569580078125,-0.032683541461825366,-0.025784947904373984,0.04729550642517861
1783174160326764800,0.425764892578125,-0.01667231785953045,-0.037059135330701244,0.03107325672097504
1783174160336832800,0.435832763671875,0.0018821604847908018,-0.018933143497561103,0.0012552787389999139
1783174160346901800,0.44590185546875,-0.01622340504825115,-0.005308545603742823,0.009214883701276266
1783174160356969700,0.4559697265625,-0.006195932030677795,-0.01011566275767982,0.000035956087725935504
1783174160367038700,0.466038818359375,-0.01667056429386139,0.006653879815072286,-0.013864457364566624
1783174160377108000,0.47610791015625,-0.026696283745765683,0.007867502521688583,-0.010878382766974391
1783174160387175700,0.48617578125,-0.00694295100569725,-0.0020414723824826067,-0.02430125325183617
1783174160397244700,0.49624462890625,-0.010384031370282173,0.005624009327660315,-0.03054012252523098
1783174160407314000,0.50631396484375,-0.025346622702479362,0.010798875231889542,-0.010620322060899343
1783174160417382000,0.5163818359375,-0.014571546187996864,0.005208674558997154,-0.014835111902962671
1783174160427450600,0.52645068359375,-0.00783785401880741,-0.006325195849977899,-0.0010213219261280754
1783174160437520000,0.536519775390625,-0.008286182308197021,0.014142513970832805,0.00726349390517571
1783174160447587800,0.546587890625,-0.022501754665374754,-0.0058937524800188835,0.010372493912826757
1783174160457656800,0.55665673828125,-0.023249358162283896,-0.002454813840170391,0.02092276011193171
1783174160467724800,0.566724853515625,-0.022799860829114914,-0.010952883050090166,0.008132084870917605
1783174160477793800,0.576793701171875,-0.022052257332205772,-0.01471513307688292,0.015788365498697384
1783174160487862800,0.58686279296875,-0.021903788772225378,-0.016432935596106108,0.021409267270530108
1783174160497930800,0.5969306640625,-0.012477204257249831,-0.0387909366925247,0.031912146097375076
1783174160507999700,0.606999755859375,-0.018013211074471472,-0.022317130229913162,0.04059159747289959
1783174160518068700,0.61706884765625,-0.024597850161790846,-0.02140772148412652,0.008256776975555113
1783174160528136700,0.62713671875,-0.012926117068529128,-0.034846852408978155,-0.004161912016877613
1783174160538206000,0.6372060546875,-0.012926701590418815,-0.002391655793332029,0.028101047393598127
1783174160548274700,0.647274658203125,-0.021755320212244987,0.0015497364929178729,0.005613138019663165
1783174160558342700,0.6573427734375,-0.020556465816497803,-0.0028577046857913954,-0.013201485102431614
1783174160568412000,0.667411865234375,-0.03013151889145374,-0.00800563920061104,0.004035942983072891
1783174160578479900,0.67747998046875,-0.023393735069036484,-0.014875079728814307,0.000495682054495046
1783174160588548600,0.687548583984375,-0.03341770095527172,-0.0019191474773338996,0.010509456981392577
1783174160598617900,0.697617919921875,-0.014561024793982505,0.002662353360338602,-0.005371615743968868
1783174160608685800,0.707685791015625,-0.011714987713098526,0.0008732871196349151,-0.016528982132393864
1783174160618754800,0.7177548828125,-0.015008184039592741,0.0004953160861390643,-0.004166150942222157
1783174160628823800,0.72782373046875,-0.0256324539065361,-0.003860036429017782,-0.030704841250402386
1783174160638891800,0.737891845703125,-0.006778115832805633,0.004731919326144271,-0.021660782929742706
1783174160648960800,0.747960693359375,-0.002587678405642509,0.002063412502943538,-0.012198894205945544
1783174160659028700,0.75802880859375,-0.019047814819216725,-0.017502304693555924,-0.0013119125739845911
1783174160669097700,0.76809765625,-0.01590542514026165,0.0034741127012181093,-0.015156272432015975
1783174160679166700,0.778166748046875,-0.008423544952273368,-0.007088654503144789,0.006908431106520584
1783174160689234700,0.788234619140625,-0.018149989196658133,-0.02226768561459612,0.005862864151410758
1783174160699304000,0.798303955078125,0.0010036240845918655,-0.01661399581801379,0.011260259365674574
1783174160709372700,0.80837255859375,-0.018000351592898367,-0.029255727004189973,0.01701561715515563
1783174160719440600,0.818440673828125,-0.016504560077190398,-0.008559617538272868,0.013826886991778154
1783174160729510000,0.828510009765625,-0.016953472888469694,-0.013289479621360078,0.0036246841700281946
1783174160739578600,0.83857861328125,-0.02817570864856243,-0.01947997514180606,0.017298365919559727
1783174160749646600,0.848646484375,-0.020095862567424773,-0.00012435474874218926,0.03182092414996587
1783174160759715800,0.8587158203125,-0.013960136291384696,-0.020463857912889214,0.007542531754731316
1783174160769783800,0.86878369140625,-0.0031850597769021985,-0.011038465274579357,0.0003232225527459377
1783174160779852800,0.878852783203125,-0.0241337397813797,-0.011727191890834364,0.000873612345559377
1783174160789921800,0.888921875,-0.01635141534209251,-0.0043905379929696205,0.003683698618822382
1783174160799989800,0.89898974609375,-0.01395779820382595,0.012248327404819428,-0.009334703267973964
1783174160810058800,0.909058837890625,0.004897124391794205,0.012561245261912699,-0.02418533982116496
1783174160820127700,0.919127685546875,-0.0013864859223365782,0.0037497170554939654,-0.015266314385971053
1783174160830195700,0.92919580078125,-0.02368307340443134,0.01542723828543676,-0.013278920553083298
1783174160840264700,0.9392646484375,-0.01679857458770275,0.0016501555269351229,-0.019354620312643237
1783174160850333700,0.949333740234375,-0.010064882418513298,0.009071135840541682,-0.022740159681264777
1783174160860402000,0.95940185546875,-0.003779518538713455,0.010984577379585242,-0.010171015382331098
1783174160870470700,0.969470703125,-0.01096270804107189,-0.012574641316314228,-0.01837619345974526
1783174160880538600,0.97953857421875,-0.033708208334445953,-0.011540149452711921,-0.0005257160763911088
1783174160890607900,0.98960791015625,-0.012759528329968451,-0.003576968004205264,0.01943908372570295
1783174160900676600,0.999676513671875,-0.0217372000336647,-0.01968348237425089,0.0176415270762227
1783174160910744600,1.00974462890625,-0.013957213681936264,-0.014052168806258123,0.026087326101143844
1783174160920813800,1.019813720703125,-0.025030980882048606,-0.024792148891184477,0.020901648825244045
1783174160930882800,1.0298828125,-0.002735562443733215,-0.02032802507219603,0.021114421642955856
1783174160940950800,1.03995068359375,-0.012761866417527199,-0.01780877682684222,0.023713454842963253
1783174160951019800,1.050019775390625,-0.00932020153105259,-0.024261270584608426,0.01949817066891119
1783174160961087700,1.060087646484375,-0.03131634476184845,-0.02267022940034512,0.016563924439967376
1783174160971156700,1.07015673828125,-0.019494974064826965,-0.009228447577392216,0.004503227134681946
1783174160981225700,1.080225830078125,-0.008870704197883605,0.002161324486043304,0.0005847520737217565
1783174160991293700,1.090293701171875,-0.002885200047492981,0.008968990640318952,0.006599537545640487
1783174161001362700,1.10036279296875,-0.003483165940642357,-0.009875451660482213,-0.004479400732400245
1783174161011431700,1.110431640625,-0.0181470665872097,0.002497273875563405,-0.030392151722172273
1783174161021499600,1.120499755859375,-0.00827098473906517,0.016811493434780278,-0.018756026515120174
1783174161031568600,1.130568603515625,-0.004530044645071029,0.009707337685115634,-0.00786857566734543
1783174161041637600,1.1406376953125,0.002503507253527641,-0.007851074259984306,-0.00927427945927193
1783174161051705900,1.150705810546875,-0.0025830022305250167,-0.005379343534342478,-0.0030153235249628777
1783174161061774800,1.16077490234375,-0.010963292562961578,0.0024758794610854236,0.013958101881213951
1783174161071842600,1.170842529296875,-0.017099018839001653,0.008572675665956922,0.01333983641048544
1783174161081911800,1.180911865234375,-0.018445172750949857,0.0029559660120517944,-0.011882355053082574
1783174161091980500,1.19098046875,-0.02487958971261978,0.006272111672582104,0.022671866518293973
1783174161102048500,1.201048583984375,-0.006026420682668686,-0.014361887775978539,0.018702822465071222
1783174161112117200,1.2111171875,-0.018296704190969466,-0.01554292567053344,-0.006503392257119412
1783174161122186500,1.2211865234375,-0.019942717832326887,-0.01590999856739072,0.013802904469636269
1783174161132254500,1.23125439453125,-0.003183306211233139,-0.020245881480386013,0.0069987751294509504
1783174161142323500,1.241323486328125,-0.014555764096975326,-0.012259412771125789,0.0066397776536614396
1783174161152391400,1.251391357421875,-0.016053309178352355,-0.011898497903707903,-0.0004986748037161305
1783174161162460400,1.26146044921875,-0.008122516179084778,-0.004784311667084693,-0.0040135519131072215
1783174161172529400,1.271529296875,-0.009170563927292824,0.00816760427969275,0.011291023255052277
1783174161182597400,1.281597412109375,-0.022787585869431495,-0.012110334573080762,0.0035627031584794166
1783174161192666400,1.291666259765625,-0.011564181065559386,-0.008006490867270621,0.0006081764744987595
1783174161202735400,1.3017353515625,-0.0022860651105642317,0.009445933102839626,-0.017834459257370327
1783174161212803300,1.31180322265625,-0.012461422166228293,0.007344887436670251,-0.029234716182202098
1783174161222872300,1.321872314453125,-0.012460837644338607,0.006923538485751487,-0.024919939989317207
1783174161232940500,1.3319404296875,0.0047474867880344385,0.015616328833461738,-0.01718118754698662
1783174161243009300,1.34200927734375,-0.010514964273571967,-0.0019727773607126436,-0.018050019970501305
1783174161253078500,1.35207861328125,-0.026826047605276106,0.004015379971067886,-0.02269045020446647
1783174161263146500,1.362146484375,0.0011567688196897506,-0.0008721386254532263,-0.00659355418778141
1783174161273215200,1.37221533203125,-0.013358078745007515,-0.006890387418109457,-0.002501175445012632
1783174161283284500,1.382284423828125,-0.019193945291638374,-0.015868865122692657,0.0006632188573072198
1783174161293352400,1.3923525390625,-0.021587562429904936,-0.01860235205705976,0.010964308626402634
1783174161303421200,1.402421142578125,-0.014254735323786735,-0.02193145081399707,-0.0006425870612321887
1783174161313489400,1.412489501953125,-0.018594810354709623,-0.001000621560041327,0.000035311914920748674
1783174161323558400,1.422558349609375,-0.019941548788547515,-0.01663465044697514,0.006758103378771921
1783174161333627400,1.43262744140625,-0.025627777731418607,-0.023201482166256754,0.02449033694999525
1783174161343695400,1.4426953125,-0.02308452298939228,-0.03435433791799005,-0.003632928554454702
1783174161353764400,1.452764404296875,-0.01964285810291767,-0.006246872200048529,-0.005158678529475582
1783174161363833300,1.462833251953125,-0.01650046842396259,0.014747500976524315,0.007008607541120727
1783174161373901300,1.4729013671875,-0.007371990072727203,-0.00012845781841315328,0.0061471335860434915
1783174161383970300,1.48297021484375,-0.02323299154937267,-0.015423479992349165,0.000898916178291256
1783174161394039300,1.493039306640625,-0.02053951468169689,0.009373523170466068,-0.018828052855003625
1783174161404107300,1.503107177734375,-0.006473579928278923,0.0016385313045117072,-0.0018229687957165878
1783174161414176500,1.513176513671875,-0.008716974940896034,-0.00218327145637013,-0.005441617948480416
1783174161424244500,1.523244384765625,-0.011409867286682128,0.013973632810486015,-0.014875923403963678
1783174161434313200,1.533313232421875,-0.010361819538474083,0.015212102263991254,-0.024379928528214804
1783174161444382500,1.543382568359375,-0.00736906746327877,0.007185593805287499,-0.00928651560304861
1783174161454450400,1.553450439453125,-0.005723638343811035,0.023707114150433334,-0.003107976808933017
1783174161464519200,1.563519287109375,-0.024876667103171348,0.006636990329064428,-0.012179520501906517
1783174161474588400,1.57358837890625,-0.019190438160300253,-0.012129390899999998,-0.0018763857624304364
1783174161484656400,1.583656494140625,-0.0202384859085083,-0.006448678382462821,-0.022810073979164007
1783174161494725400,1.593725341796875,-0.024727614021301268,-0.02698029745207168,-0.002138334909045079
1783174161504793300,1.60379345703125,-0.012757190242409705,-0.024765014289086684,0.01538488556460943
1783174161514862300,1.6138623046875,-0.023980010524392126,-0.001086872788099572,0.008314005321817239
1783174161524931300,1.623931396484375,-0.03250993846058845,-0.013371954290021675,0.01668994713105494
1783174161534999300,1.633999267578125,-0.02053951468169689,-0.018935406236595006,0.012751016229949891
1783174161545068300,1.644068359375,-0.019043138644099233,-0.012019653765077236,0.030146157054870854
1783174161555137300,1.65413720703125,-0.035353052932024,-0.01372708787062438,0.01554526832466945
1783174161565205200,1.664205322265625,-0.007670096236467361,-0.0011992973537417128,0.00922141048182966
1783174161575274500,1.6742744140625,-0.007670096236467361,-0.010845600450446363,0.01825721699737478
1783174161585342500,1.684342529296875,-0.010063713374733925,-0.0023273424024460834,0.003761329861474223
1783174161595411200,1.6944111328125,-0.01081248591542244,-0.0026153838298982007,-0.011209928834368475
1783174161605480400,1.70448046875,-0.008867197066545486,0.004325400334887672,-0.004085905619498225
1783174161615548400,1.71454833984375,-0.0009364040672779082,0.0077618022410664705,-0.011605011974513763
1783174161625617200,1.7246171875,-0.009316109877824783,0.014351635810022707,-0.007783249171182978
1783174161635686400,1.734686279296875,-0.016349077254533766,0.02065741685676621,-0.009826258206914644
1783174161645754400,1.74475439453125,-0.018293781581521035,0.011959368095337413,-0.008971471433417172
1783174161655823400,1.7548232421875,-0.014403203883767127,0.008774685061059426,-0.029391014138900207
1783174161665892400,1.764892333984375,-0.003629296413064003,0.003137996631627902,-0.002926159391432884
1783174161675960300,1.774960205078125,-0.0184434191852808,-0.005619582031003665,-0.0049075978367473
1783174161686029300,1.785029296875,-0.021286533656716344,0.0009761949382605962,-0.0030523085196284224
1783174161696097300,1.79509716796875,-0.01634849273264408,-0.011602028857916592,0.0014413516356871696
1783174161706166300,1.805166259765625,-0.011560089412331581,-0.00881710171396844,0.0149562095404719
1783174161716235500,1.815235595703125,-0.017096680751442907,-0.01772012814572081,0.021119250798411666
1783174161726303200,1.82530322265625,-0.022334581404924392,0.006038818939938209,0.017562718227459116
1783174161736372500,1.83537255859375,-0.018593056789040566,0.0029945376069052143,-0.0017530490750068564
1783174161746441500,1.84544140625,-0.010512626186013221,-0.016341553818492685,0.01669116069896263
1783174161756509200,1.85550927734375,-0.006771686092019081,-0.0037787993027945045,0.004417005018553755
1783174161766578400,1.865578369140625,-0.02218435927927494,0.006196258540952113,-0.0007462997391005046
1783174161776646400,1.875646484375,-0.02188449954986572,0.004515061705070548,-0.008526777568706893
1783174161786715400,1.88571533203125,-0.003927402576804161,-0.004982421205204445,-0.005825635130272712
1783174161796784400,1.895784423828125,-0.01963935097157955,-0.003732352645450737,-0.007224400578869972
1783174161806852400,1.905852294921875,-0.010361819538474083,-0.0005708746735355817,-0.0015901789573938003
1783174161816921600,1.915921630859375,-0.009165303230285644,0.009465233741642442,-0.013128023715643212
1783174161826990300,1.925990234375,-0.024129063606262206,-0.0062398008551565,-0.016723842550790867
1783174161837058300,1.936058349609375,-0.007818564796447753,0.019212649992108345,-0.014870011969696497
1783174161847127600,1.94612744140625,-0.015450667110085487,0.009338374225271399,-0.020352255331154447
1783174161857195300,1.9561953125,-0.013206103053689001,0.009406530390924308,-0.0024806934897540485
1783174161867264300,1.96626416015625,-0.01784428424835205,-0.003927060083509423,0.01602828890152741
1783174161877333500,1.97633349609375,-0.0069207391738891596,-0.006320665805332828,-0.010867391015501925
1783174161887401200,1.986401123046875,-0.01963993549346924,-0.009110581934941001,-0.006197098791168537
1783174161897470500,1.996470458984375,-0.013204934009909628,-0.01550801875393372,0.005197341455874266
1783174161907539500,2.00653955078125,-0.02532499539256096,-0.009333643251226749,-0.00007361978993722005
1783174161917607400,2.016607421875,-0.02233282783925533,-0.019082888415886554,0.0005188933245488443
1783174161927676400,2.026676513671875,-0.02338029106557369,-0.013186551253136712,0.008356102314317831
1783174161937744400,2.036744384765625,-0.005573416218161583,-0.004642176949768327,0.017794444624101742
1783174161947813400,2.0468134765625,-0.013055296406149863,-0.010976647518167737,0.005875447355059441
1783174161957882400,2.05688232421875,-0.03026362083852291,0.00023441382736200467,-0.0060199835211940805
1783174161967950300,2.066950439453125,-0.010810732349753379,0.008018861725076567,-0.00013324045186309375
1783174161978019600,2.07701953125,-0.014251812714338301,0.004496229140437208,-0.008163365925170364
1783174161988088300,2.08708837890625,-0.011707973450422286,0.003024179259920493,-0.0010414473315962821
1783174161998156300,2.09715625,-0.01155833584666252,-0.008146132233401293,0.008856346878968179
1783174162008225500,2.1072255859375,-0.007069207733869552,-0.014200797196442726,-0.014988950757804558
1783174162018293500,2.11729345703125,-0.018890578430891036,-0.0020356066139880567,0.008351369056984548
1783174162028362200,2.1273623046875,-0.027719197052717207,0.008137206858140416,-0.0019298732256807852
1783174162038431500,2.137431396484375,-0.023379706543684004,-0.007127748971094842,-0.006117003880083211
1783174162048499500,2.14749951171875,-0.012007248657941817,-0.00022180322424974292,-0.009330785715504317
1783174162058568400,2.157568359375,-0.003029576954245567,0.0018054031708627006,-0.014506642566999652
1783174162068637400,2.167637451171875,-0.0051245034068822855,-0.009556599536235444,-0.032458564466377716
1783174162078705400,2.177705322265625,0.00116027595102787,-0.0006867812543408945,-0.0035564746325035227
1783174162088774400,2.1877744140625,-0.003926818054914474,0.007356575591175351,0.005629388184854179
1783174162098843000,2.1978427734375,-0.01410159058868885,-0.009681755719287321,0.0021561702473685725
1783174162108911900,2.207911865234375,-0.01036065049469471,-0.0013342716779094189,0.007349269067554269
1783174162118980900,2.21798095703125,-0.022032383587956426,-0.022587277524359524,0.005925076916755642
1783174162129048800,2.228048828125,-0.027568974927067755,-0.025007029184303246,-0.0024507829795024005
1783174162139118000,2.2381181640625,-0.00736906746327877,-0.015105703297047876,0.010700716653617564
1783174162149186800,2.248186767578125,-0.019190438160300253,-0.008548600670625454,0.015732771987095474
1783174162159254800,2.2582548828125,-0.010661094745993614,-0.0022933031355263666,-0.006062842561275465
1783174162169324000,2.268323974609375,-0.02532616443634033,-0.004025609104137402,0.014312315296498127
1783174162179391700,2.278391845703125,-0.017395371437072753,-0.010915937156742437,-0.0006014598955778638
1783174162189461000,2.2884609375,-0.004826397243142128,0.002391349832655396,-0.007027220339223276
1783174162199530000,2.298530029296875,0.002057517051696777,0.019220655202050692,0.015307345082680694
1783174162209598000,2.308597900390625,-0.02338029106557369,0.011047646378166973,0.0032102615751733537
1783174162219667000,2.3186669921875,-0.0172451493114233,-0.008205175794125535,-0.003069540498931019
1783174162229736000,2.32873583984375,-0.006769932526350021,-0.004533823487756308,-0.0025753629175858804
1783174162239804000,2.338803955078125,-0.01021159741282463,0.012568152210023253,-0.0014710732038045534
1783174162249873000,2.348872802734375,-0.023379706543684004,-0.0002956561950384639,-0.006646419169468572
1783174162259940900,2.35894091796875,0.0032557869255542752,-0.001219746486726217,0.0023122004884746274
1783174162270010000,2.369010009765625,-0.015748188751935958,-0.005506022670911625,-0.0027830745406346976
1783174162280078800,2.379078857421875,-0.013355156135559081,0.0055803163164062424,0.009840970577212282
1783174162290146800,2.389146728515625,-0.009315525355935095,-0.006949141001177486,-0.011271461179701145
1783174162300216000,2.399216064453125,-0.016498130336403845,-0.01370506326848408,0.004469435889989836
1783174162310284800,2.409284912109375,-0.005274725532531738,-0.014865384885284582,-0.0059289265413885
1783174162320352800,2.419352783203125,-0.011260229682922363,-0.024039529009151735,-0.00647045638943091
1783174162330422000,2.429422119140625,-0.014851532173156738,-0.009794716857757884,0.020921296523918862
1783174162340490800,2.43949072265625,-0.01305588092803955,0.0001908532468485646,0.007164085226377938
1783174162350558700,2.449558837890625,-0.006322773280739784,-0.006039245914912316,0.018220258545939578
1783174162360628000,2.4596279296875,-0.021287118178606033,-0.010748553833737969,-0.011361620256252354
1783174162370696000,2.469696044921875,-0.012457915034890174,0.0017883629878051577,-0.0018292258628003764
1783174162380765000,2.479764892578125,-0.0022825579792261123,-0.005751919156801887,0.00541717363121279
1783174162390834000,2.489833984375,-0.023530513191223144,0.004781788633146789,-0.0002457203872545506
1783174162400902000,2.49990185546875,-0.01215747078359127,-0.002830663698527496,-0.004415125301187799
1783174162410971000,2.509970947265625,-0.022931378254294393,0.006545784364675637,0.007154171187139582
1783174162421039900,2.520039794921875,-0.011707973450422286,0.011535713022900745,0.004626914592321554
1783174162431107800,2.53010791015625,-0.006171382111310958,0.007876448446547146,0.012462268124666297
1783174162441176800,2.5401767578125,-0.025773908203840255,0.0012964901009225285,0.002902930925361579
1783174162451244800,2.550244873046875,-0.010061959809064864,0.003904195231152698,-0.016708778554043964
1783174162461314000,2.56031396484375,-0.0015337854385375975,-0.02064118267459562,-0.005521876685525058
1783174162471382800,2.5703828125,-0.0016834230422973632,0.0061816751764621584,-0.0028408554427456693
1783174162481450800,2.58045068359375,-0.007519874110817909,-0.006716878031706437,-0.0053773330987023655
1783174162491520000,2.59052001953125,-0.01380523799061775,-0.00040736837462754916,-0.011921696116204838
1783174162501588700,2.600588623046875,-0.016349077254533766,-0.0010237512738793155,-0.003843920692444953
1783174162511656700,2.61065673828125,-0.01994037974476814,0.006955522792902775,-0.0002812238130092737
1783174162521726000,2.620725830078125,-0.01380523799061775,-0.0009483411002438515,0.002463764046195138
1783174162531794000,2.6307939453125,0.004300912064313888,-0.008962284621607978,0.003443253484540037
1783174162541863000,2.64086279296875,-0.017096680751442907,0.001164657581911888,-0.010205802426277659
1783174162551932000,2.650931884765625,-0.012457915034890174,-0.0007247021119343117,-0.022671944150107447
1783174162562000000,2.660999755859375,-0.014403203883767127,0.0031102569580427368,-0.004485779670014745
1783174162572068900,2.67106884765625,-0.004976034846901893,-0.005830861577950417,0.010897295246709836
1783174162582137900,2.681137939453125,-0.029666823989152907,-0.007516465160890947,0.004313637973502045
1783174162592205800,2.691205810546875,0.008041852158308029,-0.00829417610169621,0.000328232159356412
1783174162602274800,2.70127490234375,-0.022034721675515175,0.0001952531440416351,0.00002578403687220998
1783174162612342800,2.7113427734375,-0.012158639827370643,-0.00785312008659821,0.007046617446970776
1783174162622412000,2.721412109375,-0.0021329203754663468,-0.0006429740786552428,0.00009752924684289609
1783174162632480800,2.731480712890625,-0.007520458632707595,-0.0016746871799929067,-0.013950930071622132
1783174162642548700,2.741548828125,-0.024728783065080643,-0.0015376327798818238,0.007107596665632445
1783174162652618000,2.751617919921875,-0.026225159102678298,0.0042654069260926915,-0.016533685706974936
1783174162662686700,2.761686767578125,-0.015450667110085487,0.010078897244133985,-0.008954850804645684
1783174162672754700,2.771754638671875,-0.02831950103342533,0.007892303602804894,-0.0168613992744009
1783174162682824000,2.781823974609375,-0.012158639827370643,0.0044466292614932165,-0.009135458364582155
1783174162692892000,2.791891845703125,-0.010661679267883301,-0.0039712280187988655,-0.004190630935874651
1783174162702961000,2.8019609375,-0.0232318225055933,0.009464500805991701,-0.006163936877905507
1783174162713030000,2.81202978515625,-0.014852116695046423,-0.002974892191519029,-0.0010291914944551535
1783174162723097900,2.822097900390625,-0.029217326655983922,0.0027593725775834172,-0.0018376609018276211
1783174162733166800,2.832166748046875,-0.016648352462053297,-0.020357696407963522,0.003141418139642337
1783174162743235800,2.84223583984375,-0.010063713374733925,-0.007902377472247462,0.0018748867834437986
1783174162753303800,2.8523037109375,-0.01949088241159916,-0.01743986588263651,0.00787230541932513
1783174162763372800,2.862372802734375,-0.021136311531066893,-0.008484972266328987,0.01481678166182828
1783174162773440800,2.872440673828125,-0.010063128852844237,-0.00775646847882308,0.013401368755818112
1783174162783510000,2.882510009765625,-0.02053776111602783,-0.008664105392631608,0.0000808566732550389
1783174162793578800,2.892578857421875,-0.015300444984436034,-0.01121688144825166,-0.013005904306471347
1783174162803646700,2.902646728515625,-0.014852116695046423,0.009636270326457452,0.0032353982997185083
1783174162813716000,2.912716064453125,-0.006172551155090331,-0.0018065311154467053,0.018206140972330465
1783174162823784700,2.92278466796875,-0.016048633003234863,-0.006218630202964414,0.013818914889520965
1783174162833852700,2.932852783203125,-0.028467969593405723,-0.0025282695187372156,-0.012858310246036854
1783174162843922000,2.942921875,-0.01859188774526119,-0.00951993220410077,-0.0038416745072536286
1783174162853990000,2.952989990234375,-0.015299275940656661,0.010946932799916247,0.01911928175338544
1783174162864059000,2.963058837890625,-0.015897826355695723,0.011744270889798644,0.005738073294539936
1783174162874128000,2.9731279296875,-0.016197101563215254,-0.0057195649568922815,-0.0011492667894795886
1783174162884195800,2.98319580078125,-0.014551087921857834,0.004812690661486704,-0.012276964410836807
1783174162894264800,2.993264892578125,-0.017394786915183067,-0.001607158918713685,-0.009002769612334668
1783174162904333800,3.003333740234375,-0.010212766456604003,0.0006749994850018992,0.0035099883030197815
1783174162914401800,3.01340185546875,-0.025924714851379392,-0.007786626155069098,0.006788592702691676
1783174162924470800,3.023470703125,-0.020986089405417442,0.005567913492559455,-0.005167905298835831
1783174162934538800,3.033538818359375,-0.022183190235495566,-0.0036808873196947384,0.006219654257915681
1783174162944608000,3.04360791015625,-0.012606383594870567,0.0005254600626532919,-0.00022725771537952824
1783174162954677000,3.053677001953125,-0.022632103046774862,-0.004861753967602272,0.02363097104114713
1783174162964744700,3.06374462890625,-0.022781156128644942,0.006596130879002157,0.012661510173947317
1783174162974814000,3.07381396484375,-0.017843115204572678,0.006481315710162743,0.010376487384643406
1783174162984883000,3.083883056640625,-0.014849778607487677,-0.0022421323540038427,-0.00006828402981627732
1783174162994950700,3.09395068359375,-0.0054226095706224435,-0.01581199296945706,-0.0040673421975123344
1783174163005020000,3.10402001953125,-0.0051233343631029125,0.012147899237647652,-0.0008035297978291055
1783174163015087900,3.114087890625,-0.023528759625554084,-0.0028677625722135416,-0.007644710633461363
1783174163025156900,3.124156982421875,-0.019339491242170333,-0.01148396685264306,-0.0005317068549382383
1783174163035225900,3.134225830078125,-0.01844166561961174,-0.002367069341347087,-0.0076724879813089494
1783174163045293800,3.1442939453125,-0.023678981751203535,-0.00416600623880513,-0.01358470998306875
1783174163055362800,3.15436279296875,-0.023978256958723066,0.0028038898560334927,0.001652622049479396
1783174163065431800,3.164431884765625,-0.01260579907298088,0.004497966723085846,0.01209381269654259
1783174163075499800,3.174499755859375,-0.012755436676740646,-0.0009270699833519757,0.006149581271456555
1783174163085569000,3.184569091796875,-0.01829261253774166,-0.0038293261969229203,-0.011128312682232354
1783174163095637500,3.194637451171875,-0.017094927185773847,0.0013016160839004441,-0.0252510602233815
1783174163105706500,3.20470654296875,-0.014551087921857834,-0.01623094903388992,-0.005636636484615155
1783174163115775200,3.214775146484375,-0.010211012890934944,-0.017466653424862307,-0.0008669261629183892
1783174163125843500,3.224843505859375,-0.00452478394806385,-0.006715001168451272,0.008484473367762984
1783174163135912400,3.234912353515625,-0.017992168286442754,-0.0027314525241963566,-0.006875054564126184
1783174163145981400,3.2449814453125,-0.029963176587224007,-0.007148458398983348,-0.0005427308578626253
1783174163156049400,3.25504931640625,-0.016944705060124396,-0.019404517019109335,-0.0021685699316934914
1783174163166118400,3.265118408203125,-0.01619651704132557,-0.006759931722143665,0.0006848338945492287
1783174163176186600,3.2751865234375,-0.01784253068268299,-0.004136193339142482,-0.01697394599598483
1783174163186255400,3.28525537109375,-0.022929624688625333,-0.00009108951666858047,-0.011507174198294523
1783174163196324400,3.295324462890625,-0.014699556481838225,0.014434083079220726,-0.0025538751736850825
1783174163206392600,3.305392578125,-0.007666004583239555,-0.00525458692680113,0.018600887327402595
1783174163216461300,3.31546142578125,0.0041547815918922424,-0.01765593805242097,-0.002550036680084304
1783174163226530600,3.325530517578125,-0.000034486791491508485,-0.0051487953146337525,-0.012107975935924331
1783174163236598500,3.3355986328125,-0.011107669469714164,-0.009003543647180777,-0.01036916259471327
1783174163246667300,3.345667236328125,-0.022031214544177054,0.0020281676596263423,-0.017243650332436664
1783174163256735500,3.355735595703125,-0.029962592065334318,0.00020570832268567755,0.009492782760626869
1783174163266804500,3.365804443359375,-0.015747019708156586,0.003905759283865336,0.013696055694832466
1783174163276873500,3.37587353515625,-0.007667173627018928,-0.005859918709076009,-0.005673355190744041
1783174163286941400,3.38594140625,0.0005634791016578674,0.0032015245712245814,0.008102988353063119
1783174163297010400,3.396010498046875,-0.02038578542470932,0.014404076100024393,-0.0015682927796267904
1783174163307079700,3.40607958984375,-0.014699556481838225,-0.008774322018167004,0.00098660359489877
1783174163317147400,3.4161474609375,-0.010509119054675102,0.007488620456028729,0.0009748335274140117
1783174163327216400,3.42621630859375,-0.02352759058177471,0.007338836721796542,-0.007540311256537097
1783174163337284600,3.43628466796875,-0.012454407903552055,-0.0069968229176709425,0.0011320116918795975
1783174163347353300,3.446353271484375,0.00011515081226825714,-0.0014184862125082873,0.0003436954462027643
1783174163357422300,3.45642236328125,-0.008863689935207366,-0.02188712533179205,0.006172787475463701
1783174163367490600,3.466490478515625,-0.01888999390900135,0.0006131725954357535,0.0014775871408593956
1783174163377559300,3.476559326171875,-0.015149638336896896,-0.004299816085770726,0.017946511646965518
1783174163387628500,3.486628662109375,-0.02936521069407463,-0.009148457126761786,-0.00081461145379144
1783174163397696500,3.496696533203125,-0.02951543281972408,-0.002094385313231032,0.008940758918033679
1783174163407765500,3.506765625,-0.02218260571360588,-0.0036972516493173316,0.008289358933505717
1783174163417833500,3.51683349609375,-0.018591303223371505,0.00016210892626550047,-0.0076786106197745535
1783174163427902500,3.52690234375,-0.019339491242170333,-0.008195953591342548,-0.006925652811024338
1783174163437971500,3.536971435546875,-0.015149638336896896,-0.003819526322116144,0.005671603337541455
1783174163448039400,3.547039306640625,-0.013802899903059005,-0.008110225236380938,0.010242847642680863
1783174163458108400,3.5571083984375,-0.026073767933249472,0.001371039474743884,-0.0018719496180303393
1783174163468177700,3.567177734375,-0.018591303223371505,0.009658253829402382,0.008754601254255976
1783174163478245400,3.577245361328125,-0.02158405529856682,-0.002455017052858602,0.007550107135588769
1783174163488314400,3.587314453125,-0.01829261253774166,0.002680553454020992,0.0019944982854649424
1783174163498382600,3.597382568359375,-0.009613631519675253,0.0011949750883621163,-0.0014045955407069413
1783174163508451600,3.60745166015625,-0.015898995399475098,-0.013318988843634723,0.004420054921343399
1783174163518520300,3.617520263671875,-0.028318331989645958,-0.01310655851921765,0.0012027765147940954
1783174163528588500,3.627588623046875,-0.02233282783925533,-0.014217330489424057,0.005825155639660079
1783174163538657500,3.637657470703125,-0.014701310047507285,-0.001497120389691554,0.002420559658708225
1783174163548726500,3.6477265625,-0.020537176594138146,-0.00028415070362389086,0.00647658816105104
1783174163558794500,3.65779443359375,-0.014850363129377365,-0.01304308766183676,-0.0005304028117185225
1783174163568863500,3.667863525390625,-0.010061959809064864,-0.00008715312706772238,-0.004150844060647068
1783174163578931500,3.677931396484375,-0.01694587410390377,0.002352951767737977,0.004067036807657859
1783174163589000400,3.68800048828125,-0.02412847908437252,-0.001454918365913909,0.012368024244753178
1783174163599069400,3.6980693359375,-0.023978256958723066,0.0075566145081887946,0.001136505489317642
1783174163609137400,3.708137451171875,-0.015298691418766974,-0.00023133823757525533,-0.004654199320646876
1783174163619206400,3.718206298828125,-0.010809563305974006,0.0032014629224315283,-0.002960228341104812
1783174163629275600,3.728275634765625,-0.006620294922590256,-0.009132478672917931,0.004273828265388147
1783174163639343600,3.738343505859375,-0.007667758148908615,0.005730643473332748,-0.0005041955102162319
1783174163649412400,3.748412353515625,-0.02562427060008049,0.004316881385003217,-0.012136027278407709
1783174163659480600,3.75848046875,-0.007967617878317833,0.008576719370123465,-0.008782428834453458
1783174163669549600,3.768549560546875,-0.003478489765524864,-0.0051554716505925165,-0.0026275511896048554
1783174163679618300,3.778618408203125,-0.0250268892288208,-0.004641704309021588,0.007035787238168996
1783174163689686500,3.7886865234375,-0.01200841770172119,-0.011972305208723992,0.004063744876273267
1783174163699755500,3.798755615234375,-0.008566168293356895,-0.023535495327017267,0.002891054399544373
1783174163709824500,3.808824462890625,-0.017843699726462364,0.00860585413306253,0.005591158512473339
1783174163719892500,3.818892578125,-0.025773908203840255,-0.005573039475537371,0.004834207231906475
1783174163729961500,3.82896142578125,-0.010810732349753379,-0.005057783429778646,0.0041580966415742295
1783174163740029700,3.83902978515625,-0.015299860462546347,-0.0043070335611351766,0.027807927932229356
1783174163750098400,3.849098388671875,-0.006621463966369629,-0.011047970605152658,0.000010245686912094242
1783174163760167400,3.85916748046875,-0.016947043147683142,-0.0015445808271877467,-0.012353644092951435
1783174163770235600,3.869235595703125,-0.019788988575339315,-0.00595582368146861,0.019328024566662497
1783174163780304400,3.879304443359375,-0.016796236500144005,0.001852516548486892,0.007206656572091742
1783174163790373600,3.88937353515625,-0.008266308563947677,-0.02278594418490538,0.017944414446357405
1783174163800441600,3.899441650390625,-0.008266893085837364,-0.018215430532128082,0.029363726556464097
1783174163810510300,3.90951025390625,-0.0021317513316869733,-0.0018791807931265792,0.009850777301884954
1783174163820578600,3.91957861328125,-0.017095511707663536,0.005363034003647044,0.0012238287213884177
1783174163830647600,3.9296474609375,-0.016197101563215254,0.010586837633117102,-0.01372735387374996
1783174163840716300,3.93971630859375,-0.016795651978254316,-0.0036213026195648125,-0.015732817652868106
1783174163850784500,3.949784423828125,-0.003178630036115646,0.0050428712717257435,-0.006464981063292362
1783174163860853500,3.959853515625,-0.003627542847394943,0.011857252577866892,-0.00388674662484118
1783174163870922500,3.969922607421875,-0.004674421551823616,0.005593132415495347,-0.01027163192081498
1783174163880990500,3.979990478515625,-0.015448913544416427,0.004969445275911129,-0.010882318014930933
1783174163891059500,3.9900595703125,-0.01978840405344963,-0.0028115365896606817,0.011096656026999697
1783174163901127700,4.000127685546875,-0.02023673234283924,-0.020153618353360797,0.0023523449837841324
1783174163911196400,4.010196533203125,-0.019938041657209395,-0.013761252718418836,-0.0007258557435154216
1783174163921265400,4.020265380859375,-0.013951952984929085,-0.006862866940232925,0.01693293470722856
1783174163931333600,4.030333740234375,-0.003776595929265022,-0.006357317154447082,0.010459745221305638
1783174163941402400,4.04040234375,-0.0051233343631029125,0.008883260002068709,-0.004334215256060997
1783174163951471600,4.0504716796875,-0.017543839997053147,-0.0034186584702227264,-0.0032511113212589406
1783174163961539600,4.06053955078125,-0.008266308563947677,-0.01095055637897458,-0.0014230987409551744
1783174163971608300,4.0706083984375,-0.010511457142233848,0.003379413305222988,0.008705454608105356
1783174163981676500,4.080676513671875,-0.02143500221669674,-0.01107566232967656,0.01311690295836306
1783174163991745500,4.09074560546875,-0.01305588092803955,0.0036933198262937366,-0.006215961038554087
1783174164001814300,4.100814208984375,-0.021585808864235875,0.0017538259639637544,-0.004156308541164617
1783174164011882500,4.110882568359375,-0.008866612544655799,0.0019173984782421029,-0.00843205933558056
1783174164021951500,4.120951416015625,-0.0136550158649683,-0.0024421872540377077,0.0072536854680365645
1783174164032020500,4.1310205078125,-0.015451251631975173,0.00932296431029681,-0.003037234818904835
1783174164042088400,4.14108837890625,-0.021287118178606033,0.003417368412145879,-0.006053010720427846
1783174164052157400,4.151157470703125,-0.035353052932024,0.018011578523099887,-0.0037209330627709274
1783174164062225400,4.161225341796875,-0.017246902877092362,0.0028711509725428187,0.0174500858825515
1783174164072294400,4.17129443359375,-0.01515256094634533,0.003477918943366967,-0.014705060349084668
1783174164082363400,4.18136328125,-0.016948212191462517,-0.0006129762326134369,0.006014087499125162
1783174164092431600,4.191431640625,-0.011711480581760405,-0.0034650115127325986,-0.002034296862546762
1783174164102499800,4.201499755859375,-0.01979191118478775,0.004745817704044748,0.00033956554789037907
1783174164112568800,4.21156884765625,-0.012758943808078765,-0.0030879012790508567,0.003483696519838122
1783174164122636800,4.22163671875,-0.009616554129123687,-0.01806413069424452,0.013074003389908466
1783174164132705800,4.231705810546875,-0.01964285810291767,-0.007714396602497436,-0.0016352413710046675
1783174164142773800,4.241773681640625,-0.00348258141875267,-0.0030475258861784823,-0.007099157060027937
1783174164152842800,4.2518427734375,-0.00019055413603782652,0.0006175176937016658,-0.010363818557671038
1783174164162911700,4.261911865234375,-0.010814824002981185,-0.003097555023385212,0.009621294236322865
1783174164172979700,4.271979736328125,-0.02188800668120384,0.0018092642119387165,0.010404679149377625
1783174164183048700,4.282048583984375,-0.008570844468474387,-0.006483388936240226,0.0018966371055372292
1783174164193118000,4.292117919921875,-0.022188450932502744,-0.011817237944598309,0.007093538457527756
1783174164203186000,4.30218603515625,-0.016352584385871886,-0.019880194539728106,-0.011863063547434284
1783174164213254700,4.312254638671875,-0.016801497197151183,-0.010356933300802484,0.004085641328839119
1783174164223323000,4.322322998046875,-0.02697743877470493,0.0010196208047447725,0.007132441700054914
1783174164233391900,4.332391845703125,-0.004830488896369934,0.0010524476454011164,-0.02004883367147995
1783174164243460600,4.342460693359375,-0.007823240971565245,0.000018942162487655878,-0.004156991815287619
1783174164253528800,4.35252880859375,-0.005429039311408996,0.002383399421640206,-0.010107599323877366
1783174164263597800,4.362597900390625,-0.02099135010242462,0.001510089469118975,0.00886273323727073
1783174164273666800,4.372666748046875,-0.022338088536262513,0.005539192004862707,0.011720088579901493
1783174164283734800,4.38273486328125,-0.018297288712859152,-0.007998316693969536,-0.002809410277122515
1783174164293803800,4.3928037109375,0.003250526228547096,-0.0061891301138442935,-0.010790509262343402
1783174164303871700,4.402871826171875,-0.0069254153490066524,0.001531465617287904,0.0013591686571482568
1783174164313940700,4.412940673828125,-0.02577975342273712,0.00204574669880094,0.016077788315771613
1783174164324009700,4.423009765625,-0.0051303486257791514,-0.006348926068725996,-0.01172055094584939
1783174164334078000,4.433077880859375,-0.015156068077683448,-0.01007158387064701,-0.00880421083717665
1783174164344146700,4.443146728515625,0.0036982699960470197,-0.01144134013717994,-0.00302549100923934
1783174164354216000,4.4532158203125,-0.01949555858671665,-0.017013470863841938,-0.006139656957419356
1783174164364284000,4.463283935546875,-0.022038813328742978,-0.02162662949839141,0.001796169837047637
1783174164374352600,4.4733525390625,-0.013210194706916808,-0.0036894656350836158,-0.01332398696244927
1783174164384420600,4.483420654296875,-0.009169979405403136,-0.006868330849928315,-0.004940170090721221
1783174164394489900,4.49348974609375,-0.00932020153105259,-0.0030920568643603473,0.007051896981109166
1783174164404558600,4.50355859375,-0.01680208171904087,-0.006400101416825782,-0.0013183534458032227
1783174164414626800,4.513626708984375,-0.022787585869431495,-0.0011304356519016437,-0.00048737908944458463
1783174164424695800,4.52369580078125,-0.020692659416794774,0.019706625787820665,0.00005692695216275751
1783174164434763800,4.533763671875,-0.026978023296594617,-0.0006954851506045088,0.0015917256000306224
1783174164444832800,4.543832763671875,-0.026678748089075086,0.007040584427583962,-0.006389289474333054
1783174164454901800,4.55390185546875,-0.02937222495675087,-0.007733729207341093,-0.011085419963643652
1783174164464969700,4.5639697265625,-0.011266074901819228,-0.005490765736275352,-0.0015700118105552974
1783174164475038700,4.574038818359375,0.009233692291378975,0.004301386988349258,-0.004583661970362299
1783174164485107700,4.584107666015625,-0.012014262920618057,-0.0005349311438971199,-0.005213523122406332
1783174164495176000,4.594176025390625,-0.010068389549851417,-0.01175872639012523,-0.0033100541318723115
1783174164505244700,4.60424462890625,-0.0175502697378397,0.008150570946501103,-0.004098581867158646
1783174164515314000,4.61431396484375,-0.03281330532133579,-0.018542068670608567,-0.0007609738643135643
1783174164525382000,4.6243818359375,-0.015005845952033995,-0.002152737037499901,-0.007840451259625842
1783174164535450600,4.63445068359375,-0.010815408524870871,-0.00719078600363573,-0.007702574875607388
1783174164545518600,4.6445185546875,-0.010365911191701889,-0.0013434733310947193,-0.0005986214823977206
1783174164555587800,4.654587890625,-0.027274960416555402,-0.006150549385836347,0.0024451832141334307
1783174164565656600,4.664656494140625,-0.011563012021780013,-0.00734737393799005,0.013484550102311185
1783174164575724800,4.674724853515625,-0.012161562436819076,-0.007582554950332269,0.007760183389426674
1783174164585793800,4.684793701171875,-0.00587678307890892,-0.009123991689074318,0.016142154222296083
1783174164595862800,4.69486279296875,-0.006475918015837669,0.004084298755123746,0.0033691125339726565
1783174164605930800,4.7049306640625,-0.020092355436086652,0.005130474206653889,-0.011874070140282855
1783174164615999700,4.714999755859375,-0.02622808171212673,-0.0006053272156976164,-0.0014937405516946454
1783174164626067700,4.725067626953125,-0.029819384202361104,-0.014795303907315246,-0.017451591711404035
1783174164636136700,4.73513671875,-0.01784779137969017,0.00895582063149195,0.010936673984094522
1783174164646205700,4.745205810546875,-0.017100187882781028,0.00017308697800617664,-0.0013258240807947003
1783174164656274000,4.75527392578125,-0.0067751932233572005,-0.004528122116043232,-0.008841542035480961
1783174164666342700,4.7653427734375,-0.020092355436086652,-0.0014474908279953525,-0.0023836511542118387
1783174164676410600,4.77541064453125,-0.008121347135305405,-0.01369238188342424,0.006651611367816804
1783174164686480000,4.78547998046875,-0.017398878568410873,0.008631310518016107,-0.002892574784361932
1783174164696548600,4.795548583984375,0.0019037877947092054,0.015716699918417724,-0.009186493861253257
1783174164706616600,4.805616455078125,-0.019044892209768294,-0.006549108832923229,0.02637269151431974
1783174164716685800,4.815685791015625,-0.011263736814260482,0.0015537596474867314,0.01199524769289419
1783174164726754600,4.825754638671875,-0.008570259946584701,-0.012937723024643492,-0.0061304712872544765
1783174164736822800,4.83582275390625,-0.0016869301736354826,-0.000370079987985082,-0.01322805230730446
1783174164746891800,4.845891845703125,-0.010216273587942123,-0.0063578171946573996,-0.01707652844598051
1783174164756960800,4.855960693359375,-0.0015372925698757171,-0.01390900660905754,0.0002575075794040458
1783174164767028700,4.86602880859375,-0.02637713479399681,-0.003194350478344131,0.0076198598908173145
1783174164777097700,4.87609765625,-0.021738369077444076,-0.0018107803155900909,0.018299952169047902
1783174164787165700,4.886165771484375,-0.02907061166167259,-0.016354207804088944,0.005996167108300142
1783174164797234700,4.896234619140625,-0.016650690549612043,-0.008762092724256217,0.023679196380334906
1783174164807303700,4.9063037109375,-0.008869535154104232,0.0005047483514761552,-0.006618871862950618
1783174164817372000,4.916371826171875,-0.02428220834136009,-0.0011248918271041474,-0.014739879359072073
1783174164827440600,4.926440673828125,-0.005727729997038841,0.00932720437728567,-0.00360371673052432
1783174164837509600,4.936509521484375,-0.006326280412077903,0.0040406377099105155,0.004326672697477624
1783174164847577900,4.946577880859375,-0.025030980882048606,-0.007724027513945474,-0.0069404879080859246
1783174164857646600,4.956646484375,0.0004068272352218628,-0.007726214904454536,-0.0012742211868986488
1783174164867714600,4.966714599609375,0.010732406416535377,0.007909515032509806,0.0021149349109153264
1783174164877783800,4.97678369140625,-0.025779168900847433,-0.005324804902088362,-0.004588037893024739
1783174164887852500,4.9868525390625,-0.027575989189743993,0.003255812041729223,0.009652716854470781
1783174164897920800,4.996920654296875,-0.015006430473923683,-0.00961943335608812,0.005955440088978503
1783174164907989800,5.00698974609375,-0.011864625316858292,-0.0033750956064206544,0.00012725909188156947
1783174164918058800,5.017058837890625,-0.02144143195748329,0.012177417593076825,0.0031149782281107035
1783174164928126700,5.027126708984375,-0.02114215674996376,0.00812086764469277,0.0005783495896932436
1783174164938195700,5.03719580078125,-0.01934650550484657,-0.010229053154413121,0.0008056778016092721
1783174164948263700,5.047263671875,-0.02069382846057415,-0.0017430511249112897,-0.004390575667232042
1783174164958332700,5.057332763671875,-0.01485796191394329,0.0025828538167639633,0.008655136064064572
1783174164968401700,5.067401611328125,-0.03221533942818641,-0.01723957352058496,0.00900429484914057
1783174164978470000,5.077469970703125,-0.011864625316858292,-0.0020858389638829973,0.01118825814196607
1783174164988538600,5.08753857421875,-0.019196867901086805,-0.0011399523989181033,-0.0003970176564384019
1783174164998607600,5.097607666015625,-0.018298457756638527,-0.008137921527482102,-0.0060746717088535655
1783174165008675800,5.10767578125,-0.022338673058152198,0.011060804970550816,0.00868256806450663
1783174165018744800,5.117744873046875,-0.019345920982956885,-0.008302907397423405,-0.008194983193674125
1783174165028812500,5.1278125,-0.016502806511521338,-0.009392579497385305,0.009775053176062646
1783174165038881800,5.1378818359375,-0.015904256096482276,-0.0024849509668187237,-0.01974665640410967
1783174165048950800,5.14795068359375,-0.015904256096482276,-0.019685964308993425,-0.006054707203881116
1783174165059018800,5.158018798828125,-0.004980711022019386,-0.0123747987621231,-0.009133312073268462
1783174165069087700,5.168087646484375,-0.00587853664457798,-0.010345062483206857,0.01639060684980941
1783174165079156700,5.17815673828125,-0.025929975548386573,-0.003745196144003421,0.015733141879853793
1783174165089224700,5.188224609375,-0.014258242455124854,-0.003899005316093098,-0.009157711295585614
1783174165099293700,5.198293701171875,-0.02428396190702915,0.015152955955278593,0.008250855266489087
1783174165109361700,5.208361572265625,-0.026080197674036024,-0.015251507259195204,-0.009156469757392188
1783174165119430700,5.2184306640625,-0.009170563927292824,-0.012484300718316807,-0.011603761873987968
1783174165129499600,5.228499755859375,-0.027426351585984228,-0.005140516110055614,-0.0028591049125447168
1783174165139567600,5.238567626953125,-0.007224690556526183,-0.016973814706888513,-0.0010455504012672463
1783174165149636900,5.248636962890625,-0.02652735691964626,-0.007626339293131604,-0.010275903953844681
1783174165159705600,5.25870556640625,-0.01530453663766384,0.005563255583751015,-0.0035882874075963624
1783174165169773600,5.268773681640625,-0.02518061848580837,-0.013986211447557434,-0.01164926553312689
1783174165179842800,5.2788427734375,-0.0007896890729665756,0.0016949673496186731,0.0013183908346545649
1783174165189910500,5.28891064453125,-0.0022860651105642317,0.002240878828545101,0.004086096274098963
1783174165199979500,5.2989794921875,-0.02458206807076931,-0.011334685441909824,0.0014374032588209955
1783174165210048800,5.309048828125,-0.014406711015105246,0.003653871448605787,-0.005683926817108295
1783174165220116700,5.31911669921875,-0.006176058286428451,-0.003958578599779866,-0.010124664623109856
1783174165230185500,5.329185546875,-0.014255904367566108,-0.013934271197766065,0.004278055774289532
1783174165240253700,5.339253662109375,-0.00871931302845478,-0.010878333676268812,-0.0005960661970078945
1783174165250322700,5.34932275390625,-0.00587502951323986,0.0111761818283936,-0.002924041641227086
1783174165260391700,5.3593916015625,-0.008718728506565094,0.0027693162995739836,-0.008385208536149002
1783174165270459600,5.369459716796875,-0.024879005190730094,-0.0009064724366064183,-0.00747480941391841
1783174165280528600,5.379528564453125,-0.02188625311553478,0.02107493444936117,0.0023442084847454677
1783174165290597600,5.38959765625,-0.007520458632707595,0.00018769545867107807,0.003035688747090171
1783174165300665600,5.39966552734375,0.0026548984229564664,-0.000042003377666696904,-0.0006381500605988549
1783174165310734600,5.409734619140625,-0.011410451808571816,-0.00954403003231855,-0.006253220884088659
1783174165320803600,5.419803466796875,-0.015001169776916503,0.0039128009460051546,0.00559862543712079
1783174165330871600,5.42987158203125,-0.013504209217429161,-0.003032090855028946,-0.013904272210079944
1783174165340940800,5.43994091796875,-0.006022329029440879,0.004440215503727086,0.012900952944520394
1783174165351008800,5.4500087890625,-0.015748773273825643,0.013244026194571051,0.008641429482409148
1783174165361077500,5.460077392578125,-0.005274141010642051,0.014523512645054143,0.01897270147310337
1783174165371146800,5.470146728515625,-0.00856675281524658,0.008036826640029903,0.0029735770172672343
1783174165381214700,5.480214599609375,-0.01859188774526119,-0.01260505243759835,-0.006609780378441792
1783174165391283500,5.490283447265625,-0.032657237976789474,0.007560078257042914,-0.012574924444104544
1783174165401352700,5.500352783203125,-0.023978256958723066,-0.013518071062711532,-0.010914350271143484
1783174165411420700,5.510420654296875,-0.01395253750681877,-0.005102618085348513,-0.0049594564589700895
1783174165421489700,5.52048974609375,-0.0034779052436351775,-0.005872122886811848,-0.005077649753339937
1783174165431557600,5.5305576171875,-0.005572831696271896,-0.002810093551245518,-0.010405610731139313
1783174165441626600,5.540626708984375,-0.014999416211247443,-0.005058799493219703,-0.004688148112254566
1783174165451695600,5.550695556640625,-0.016346154645085334,-0.006054669529618695,0.005766419752078945
1783174165461763600,5.560763671875,-0.009911153161525726,0.002417472937889397,0.015138326925016007
1783174165471832600,5.57083251953125,-0.017393033349514007,0.008696735870465636,-0.0002761723223229637
1783174165481901600,5.580901611328125,-0.00976151555776596,-0.00267656911535887,-0.00035051163359021303
1783174165491969500,5.590969482421875,-0.02352759058177471,0.0029941334648174232,0.004371195113327121
1783174165502038800,5.601038818359375,-0.01439911223053932,0.005042763957160059,-0.0026188002005132147
1783174165512106800,5.611106689453125,0.00535305146574974,-0.009945523505297022,-0.0041711233740395984
1783174165522175500,5.621175537109375,-0.011406944677233695,0.004512356008042115,-0.001327628164224734
1783174165532244700,5.63124462890625,-0.021731939336657524,-0.010176163056551012,-0.00969909843808855
1783174165542312700,5.641312744140625,-0.01604571039378643,-0.0022429771707975304,-0.004611831473032362
1783174165552381400,5.65138134765625,0.0017611644536256789,-0.0028625110083608887,0.007571846897472278
1783174165562450700,5.66145068359375,-0.015297522374987601,-0.0010182736644521356,0.008640730796087882
1783174165572518700,5.6715185546875,-0.0340022228449583,-0.00447264048558427,0.007470484865250182
1783174165582587600,5.681587646484375,-0.03445055113434791,0.0024851975619909353,0.0032237483902979873
1783174165592655600,5.691655517578125,-0.018438743010163305,0.009206443524849601,0.019771069326158613
1783174165602724600,5.701724609375,-0.02726736163198948,0.005462882215506397,-0.011619903582968981
1783174165612793600,5.711793701171875,-0.03250526228547096,0.0039857428846298715,-0.004760659936383308
1783174165622861600,5.721861572265625,-0.02262859591543674,0.0019324270840152165,-0.01549669135903241
1783174165632930600,5.7319306640625,-0.00931143370270729,0.017514454072364606,-0.011747589649824657
1783174165642999600,5.74199951171875,-0.0145481653124094,0.006060423416970297,0.0029210339792771264
1783174165653067500,5.752067626953125,-0.019186931028962136,-0.010954508751595858,0.0027737424545863174
1783174165663136800,5.76213671875,-0.001530278307199478,-0.004967271585133858,0.002564885191466601
1783174165673204700,5.772204833984375,-0.007665420061349868,-0.00618747244629776,-0.007610756419043172
1783174165683273500,5.7822734375,-0.016045125871896743,0.005401514266955201,-0.02410491554569453
1783174165693342700,5.7923427734375,-0.01005903719961643,-0.0008490568606765009,-0.007230056855632574
1783174165703410700,5.80241064453125,0.0010135609567165373,0.008817437357397285,0.003137652996688848
1783174165713479400,5.8124794921875,-0.004073533049225807,0.006772165582631714,0.007970271630529897
1783174165723548700,5.822548583984375,-0.0037748423635959624,0.0003964565382571891,0.01731280315357726
1783174165733616600,5.83261669921875,-0.012154548174142837,-0.002792281616630498,-0.0007667037771345349
1783174165743685600,5.842685546875,-0.010808394262194633,0.002025535027834121,-0.0044464003618079
1783174165753753600,5.852753662109375,-0.013650924211740493,-0.004085474648769014,0.0032082283066469245
1783174165763822600,5.862822509765625,-0.009760931035876273,-0.01332476099729538,0.00969132155700936
1783174165773891600,5.8728916015625,-0.013950783941149712,-0.010435368831874802,0.012568398805195466
1783174165783959600,5.88295947265625,-0.0024286884516477583,0.012670772334281355,-0.009306069116067373
1783174165794028500,5.893028564453125,-0.015447159978747366,0.010498385314818006,-0.01695268401224748
1783174165804097500,5.90309765625,-0.0340022228449583,-0.007995067574246785,-0.004617840803299623
1783174165814165500,5.91316552734375,-0.012903320714831351,-0.009692448359949047,-0.003318774867389584
1783174165824234800,5.92323486328125,-0.003925649011135101,-0.00047345359749160706,-0.00030886844470514913
1783174165834302700,5.933302734375,-0.01799158376455307,-0.001809775668592192,-0.007472407965100137
1783174165844371500,5.943371337890625,-0.002129997766017914,0.00531108690398978,-0.009237890117528149
1783174165854440700,5.953440673828125,-0.01125730707347393,0.0012899804450338705,0.009190526148976641
1783174165864508700,5.9635087890625,-0.010659341180324553,0.004614599389676005,0.004897262530756416
1783174165874577400,5.973577392578125,-0.011258476117253302,0.012187993786018342,-0.014306297689309576
1783174165884646700,5.983646728515625,-0.00557224717438221,-0.0017678910219343378,-0.002325893370398262
1783174165894714600,5.993714599609375,-0.0230792622923851,0.0011391304150107316,0.004561787779860606
1783174165904783600,6.00378369140625,-0.017692308557033538,-0.013124813411827198,-0.008531857315090019
1783174165914851600,6.0138515625,-0.010659341180324553,0.0076558485154062505,0.0013742706135686602
1783174165924920600,6.023920654296875,-0.004075286614894867,-0.010696791680459864,-0.011950216674502008
1783174165934989600,6.033989501953125,-0.015747019708156586,-0.008904960377223324,-0.0012056106468080541
1783174165945057500,6.0440576171875,-0.027418752801418304,0.003393247751041781,0.00021905071980436332
1783174165955126500,6.05412646484375,-0.019787235009670258,-0.003320011268183589,0.003887418767932104
1783174165965195800,6.06419580078125,-0.011257891595363617,-0.004605758496094495,-0.007935239703877595
1783174165975263500,6.074263427734375,-0.011706804406642913,0.0009098060380085371,-0.0038176363299513467
1783174165985332700,6.084332763671875,-0.022330489751696585,-0.0001525670630740933,0.012591666657995665
1783174165995400700,6.094400634765625,-0.011257891595363617,-0.019578097187459932,0.003397460989389219
1783174166005469400,6.104469482421875,-0.021133973443508147,0.0013201107218163088,0.004132080565494834
1783174166015538700,6.11453857421875,-0.026221651971340177,0.008067598520917818,-0.014276790750323561
1783174166025606700,6.124606689453125,-0.0022796353697776793,-0.008526653700298628,-0.0064354467248427675
1783174166035675600,6.134675537109375,-0.0069184010863304135,-0.00004967522746883332,-0.010333513609308283
1783174166045744600,6.14474462890625,-0.014101006066799163,-0.006920077020185999,-0.017848514040542066
1783174166055812600,6.1548125,-0.011108253991603851,0.00845529179740697,-0.0011595093368698144
1783174166065881900,6.1648818359375,-0.028017303216457366,-0.004234612212318461,0.00003272152396821184
1783174166075949600,6.174949462890625,-0.02562251703441143,-0.010570336306176613,-0.004483465271575551
1783174166086018600,6.1850185546875,0.0007137012273073196,-0.004987136196228675,-0.00019626349926111288
1783174166096088300,6.19508837890625,-0.016195347997546194,0.005972646952106152,-0.00451327503171633
1783174166106156300,6.20515625,-0.0170925890982151,-0.006892369312641676,-0.009341126158894621
1783174166116225300,6.215225341796875,-0.016643676286935805,-0.007849777352041565,0.006578056937016663
1783174166126294300,6.225294189453125,-0.007815057665109634,-0.006249249103514012,0.01133987079039216
1783174166136362200,6.2353623046875,-0.007366144853830337,0.0007390137650771067,0.002004125201157876
1783174166146431500,6.245431396484375,-0.012753098589181899,-0.007823503549757879,-0.01180526437901426
1783174166156499500,6.25549951171875,-0.009310849180817603,-0.0005851383776171133,0.010449380232562543
1783174166166568200,6.265568115234375,-0.014099252501130104,-0.0005689452946418896,0.003115248226991389
1783174166176637400,6.275637451171875,-0.008712883287668227,-0.0067838080713641825,0.015284372915758284
1783174166186705400,6.285705322265625,-0.017690554991364477,-0.0046816390271880665,0.007366448531218339
1783174166196774100,6.295774169921875,-0.01694236697256565,-0.0031484974760445763,-0.0030517345579486573
1783174166206843400,6.305843505859375,-0.010059621721506118,-0.00199621988509316,-0.01077846377316746
1783174166216911400,6.315911376953125,-0.013800561815500259,-0.00781253691446036,0.01255585441745352
1783174166226980400,6.32598046875,0.00804652833342552,-0.014826059805182739,-0.013962633067503338
1783174166237048300,6.33604833984375,-0.02083352919220924,0.0024966779372305606,-0.01027472577691078
1783174166247117300,6.346117431640625,-0.0009311433702707291,-0.007883250363380648,-0.01328621337697259
1783174166257186300,6.356186279296875,-0.003026654344797134,-0.011126104742125607,0.00212886953602283
1783174166267254300,6.366254150390625,-0.02801613417267799,-0.015861053992283995,-0.02390702520328341
1783174166277323300,6.3763232421875,-0.02457505380809307,0.00020700066405115647,-0.006856973201452637
1783174166287392300,6.386392333984375,-0.012005495092272759,0.007012671224062796,0.004996658651466714
1783174166297460200,6.396460205078125,-0.022330489751696585,-0.002610463342897128,0.004545283884220407
1783174166307529500,6.406529541015625,-0.01858896513581276,-0.006578220762975979,0.011367539682029746
1783174166317597400,6.416597412109375,-0.015896072790026663,-0.002668641537229996,-0.000927378512728319
1783174166327666200,6.426666259765625,-0.005271802923083305,0.0044984370805439535,-0.0008261640380340395
1783174166337735400,6.4367353515625,-0.014548749834299086,0.0034100070895976384,0.005300846354477107
1783174166347803400,6.446803466796875,-0.001530278307199478,0.009488358888903167,0.00048008997589931823
1783174166357872000,6.4568720703125,-0.01140636015534401,-0.00813285719329724,-0.0014410568060426157
1783174166367941400,6.46694140625,-0.012902736192941664,-0.0032590634447406046,-0.0028057926916968427
1783174166378009300,6.47700927734375,-0.012902736192941664,-0.0013723295328207314,0.005749809398106299
1783174166388078300,6.487078369140625,-0.022180267626047134,0.00009731376147828995,0.006490029310403042
1783174166398146300,6.497146240234375,-0.008712298765778542,-0.0018047044845414346,-0.004751791928749299
1783174166408215300,6.50721533203125,-0.011256138029694556,0.0029010323708644134,-0.015143027074664132
1783174166418284500,6.517284423828125,-0.011405775633454322,0.005170134930184577,0.0014461813619651366
1783174166428352300,6.527352294921875,-0.022927871122956276,0.005015188680356368,0.011958023238333407
1783174166438421200,6.537421142578125,-0.023227146330475807,0.0010875623412663117,0.003796563002937182
1783174166448490500,6.547490478515625,-0.013351064482331275,0.00044701311513781547,0.0035481078067241467
1783174166458558200,6.55755810546875,-0.007215922728180885,0.010690519486588891,0.001506812949932646
1783174166468627500,6.56762744140625,-0.0097597619920969,0.0031912155230529606,-0.0141164194067067
1783174166478696400,6.577696533203125,-0.022478958311676976,-0.011837015790725125,-0.004051110298630374
1783174166488764200,6.58776416015625,-0.014697802916169166,-0.004638272526208311,-0.0018356521786539815
1783174166498833400,6.59783349609375,-0.028315409380197522,0.0034555358649115075,-0.015101867372146806
1783174166508901400,6.6079013671875,-0.01858896513581276,-0.003134238338540308,0.0004993943250461598
1783174166518970400,6.617970458984375,-0.012902736192941664,-0.005818935961427633,-0.0014058684741190517
1783174166529039400,6.628039306640625,-0.02262918043732643,-0.005963543480332009,-0.006800662166398251
1783174166539107300,6.638107421875,-0.009161211577057838,-0.00959177131431643,0.011079950345726683
1783174166549176300,6.64817626953125,-0.01320142687857151,0.004433237773668952,0.011355888060142752
1783174166559245300,6.658245361328125,-0.008712298765778542,0.0016836536544491535,-0.003425836558858282
1783174166569313300,6.668313232421875,-0.0010801964521408081,-0.005833290997054427,-0.007444252732984023
1783174166579382500,6.678382568359375,-0.01350070208609104,-0.0016067250938736832,0.0006955099813683773
1783174166589450200,6.6884501953125,-0.006916647520661354,-0.0006003199637285433,-0.014978693083627148
1783174166599519200,6.698519287109375,-0.006167874979972839,0.005177414054342079,0.0022893832997680874
1783174166609588500,6.70858837890625,-0.008412439036369323,0.011500155369041021,0.01260452613956877
1783174166619656400,6.718656494140625,-0.016792729368805884,0.010890174811112228,0.004770174400111136
1783174166629725200,6.72872509765625,-0.019337153154611587,0.00018691229067044332,0.002691199287265772
1783174166639794400,6.73879443359375,-0.021731354814767838,0.013344194066838826,0.0026074359875827213
1783174166649862400,6.7488623046875,-0.017990414720773697,0.0031425312428502365,-0.009919463190500391
1783174166659931400,6.758931396484375,-0.00826397047638893,0.003183982064668089,-0.0016867800474079557
1783174166669999400,6.768999267578125,-0.019636428362131118,-0.005850817520590499,-0.0032564465105577255
1783174166680068400,6.779068359375,-0.0170925890982151,-0.007949949790886602,-0.005976449769322062
1783174166690137300,6.789137451171875,-0.012304185777902602,-0.0035382342958590013,0.001646750572763267
1783174166700205300,6.799205322265625,-0.02203004550039768,0.004465591973578557,-0.0017518275155889568
1783174166710274300,6.8092744140625,-0.006168459501862526,-0.005962977224751375,-0.013934707305894698
1783174166720343300,6.81934326171875,-0.013351064482331275,-0.004823782877658959,-0.0007552408119707252
1783174166730411300,6.829411376953125,-0.011256138029694556,0.0009693816049839369,0.012912039452471071
1783174166740480500,6.83948046875,-0.017690554991364477,0.006774060712195933,0.01849814961377997
1783174166750548500,6.849548583984375,-0.014847440519928931,0.003353956920269411,0.005564249955950072
1783174166760617200,6.8596171875,-0.010657587614655495,0.004250697980728,0.004708794178883545
1783174166770686500,6.8696865234375,-0.01739069526195526,0.005652048112056217,-0.0092492928609543
1783174166780754400,6.87975439453125,-0.014248305583000182,0.014158720753539819,-0.0200247381265508
1783174166790823200,6.8898232421875,-0.034898294901847836,0.006003327501448802,-0.010694172748399433
1783174166800892400,6.899892333984375,-0.015146131205558777,-0.0021760676807374693,-0.020436931090056894
1783174166810960400,6.90996044921875,-0.022029460978507994,0.004155318164720666,-0.00017273535155691206
1783174166821029400,6.920029296875,-0.020383447337150574,0.003649021743552293,-0.006706090634566499
1783174166831097300,6.930097412109375,-0.0259200386762619,0.004872716036322527,-0.017838770106306766
1783174166841166300,6.940166259765625,-0.006167874979972839,0.008617220343870576,0.00015639214235416146
1783174166851235300,6.9502353515625,-0.02038403185904026,0.003751068762363866,-0.016607208742556393
1783174166861303300,6.96030322265625,-0.009760346513986587,0.0014380380130605771,-0.009610333309246925
1783174166871372300,6.970372314453125,0.0014624737679958342,-0.0006390833548270165,-0.010197520938410889
1783174166881441300,6.980441162109375,-0.02113338892161846,-0.014394509120658039,-0.002058126689761411
1783174166891509200,6.99050927734375,-0.01664426080882549,-0.005236179053853265,-0.014106298729847184
1783174166901578500,7.00057861328125,-0.014848609563708304,-0.013200159653380977,-0.002083950113362516
1783174166911646500,7.010646484375,-0.01873918726146221,0.007440744460001587,0.003909593210888852
1783174166921715200,7.020715087890625,-0.0253232418268919,-0.00411160688715754,0.00040620874941378133
1783174166931784400,7.030784423828125,-0.021731939336657524,-0.007789651512505952,0.004087758793633839
1783174166941852400,7.040852294921875,-0.028914544317126274,-0.0028847388231894,-0.004624338186511886
1783174166951921200,7.050921142578125,-0.016943536016345025,-0.00865368446331704,-0.0073184030010103015
1783174166961990400,7.060990478515625,-0.015896072790026663,0.006583956384018529,0.004907730267487932
1783174166972058400,7.071058349609375,-0.007516366979479789,0.007749878907832316,0.004331282371813722
1783174166982127400,7.08112744140625,-0.017841361638903618,0.013963602323527446,0.00918557769168983
1783174166992195300,7.0911953125,-0.015596797582507132,0.0073557741568656635,0.01119479976389557
1783174167002264300,7.101264404296875,0.0007137012273073196,0.001043739182560239,0.012249590063432696
1783174167012333300,7.111333251953125,-0.017841361638903618,-0.0009284605061286129,0.006966834775605821
1783174167022401300,7.1214013671875,-0.004374561822414398,-0.002031850604189094,0.00724173530616099
1783174167032470300,7.13147021484375,-0.010509119054675102,-0.0030341709309723228,-0.007534198322048178
1783174167042539300,7.141539306640625,-0.019487375280261038,0.0055512980011873875,0.0028346800032304597
1783174167052607200,7.151607177734375,-0.00841477712392807,0.002339900489919819,0.007806958840333391
1783174167062676500,7.161676513671875,-0.01679389841258526,0.003155673852213658,-0.009441245511278975
1783174167072744400,7.171744384765625,-0.017990414720773697,-0.005342189861729275,-0.001299287414907303
1783174167082813200,7.181813232421875,-0.015296937853097915,-0.001734637206303887,0.013261910052777966
1783174167092882400,7.19188232421875,-0.0013806407034397125,0.0015534377037896773,-0.008876702397118788
1783174167102949600,7.20194970703125,-0.003925064489245415,0.0019410122492699883,0.013019798117794561
1783174167113018600,7.2120185546875,-0.0069184010863304135,-0.004608948250312823,0.01033093577644322
1783174167123087600,7.222087646484375,-0.014699556481838225,-0.010680233271303586,0.014958924370654858
1783174167133155600,7.232155517578125,-0.02682020238637924,0.00930128448473988,0.003065005602297606
1783174167143224600,7.242224609375,-0.010509703576564788,0.003961170132376719,-0.008545256223602336
1783174167153293600,7.25229345703125,-0.007667173627018928,-0.009838592532102484,0.0019127091742149787
1783174167163361500,7.262361572265625,-0.013353402569890021,-0.012542408130702096,0.00045781649529817514
1783174167173430800,7.2724306640625,-0.011109423035383224,0.009234128399507607,-0.00782213243493461
1783174167183498500,7.28249853515625,-0.019489713367819784,-0.0011400391638861037,0.0007241749576714937
1783174167193567500,7.2925673828125,-0.010511457142233848,-0.00824568133444991,0.011428545729332835
1783174167203636700,7.30263671875,-0.01111000755727291,-0.021466623480955602,-0.006796629878674867
1783174167213704700,7.31270458984375,-0.008266893085837364,-0.0037367708089528604,0.007314649845322128
1783174167223773400,7.3227734375,0.0016097732841968534,-0.005559353443479631,-0.011170458765438524
1783174167233842700,7.3328427734375,-0.0147007255256176,-0.006268186699424404,-0.004124837117722199
1783174167243910700,7.34291064453125,-0.009463409394025802,-0.012367889530723914,-0.008958308274456067
1783174167253979600,7.352979736328125,-0.007967033356428146,0.000024773681652732193,-0.014499051773943937
1783174167264047600,7.363047607421875,-0.0147007255256176,0.004589766342518851,-0.005700332245926256
1783174167274116600,7.37311669921875,-0.01410159058868885,-0.0029180771204992194,0.00919457670300908
1783174167284185600,7.383185546875,-0.015298691418766974,0.0002773373703472316,-0.0033427137216363915
1783174167294253600,7.393253662109375,-0.019039631512761116,-0.0109545407176367,-0.00426292898710526
1783174167304322600,7.403322509765625,-0.017992168286442754,-0.005144452499656472,-0.0008758914957303204
1783174167314391600,7.4133916015625,-0.002729717224836349,-0.007604577269183937,-0.0041215557465475285
1783174167324459500,7.42345947265625,-0.026821371430158614,0.008234148443571758,0.008576811843313043
1783174167334528800,7.43352880859375,-0.026072598889470097,-0.010978725310822482,-0.0032787696526866057
1783174167344596700,7.4435966796875,-0.022481296399235726,0.0034836979468935167,0.0006214689246786293
1783174167354665500,7.45366552734375,-0.024426585248112677,0.004375516237062402,-0.007399122391536366
1783174167364734700,7.463734619140625,-0.012006664136052132,0.004145180363196414,0.014167842491623013
1783174167374802700,7.473802734375,-0.007518705067038536,0.005253184987581335,0.0031277406699169656
1783174167384871400,7.483871337890625,-0.028168109863996503,-0.002736916433891747,0.00518273126274289
1783174167394940700,7.493940673828125,-0.012905074280500412,0.005021159480127971,0.005902256017705076
1783174167405008600,7.504008544921875,-0.014849778607487677,0.009987755211826878,0.010308559547853655
1783174167415077600,7.51407763671875,-0.01859013417959213,-0.003733151796471793,0.010230951708910288
1783174167425145600,7.5241455078125,-0.019039046990871427,0.005798324714950285,0.0009428743364376714
1783174167435214600,7.534214599609375,-0.017692308557033538,-0.0053441740395501255,-0.0064372333981969855
1783174167445283600,7.54428369140625,-0.01634498560130596,-0.012067068536800797,-0.0072896969255118165
1783174167455351600,7.5543515625,-0.01320318044424057,0.0032853029976948164,-0.0016003335981717099
1783174167465420500,7.564420654296875,-0.017692308557033538,-0.00765658145105699,0.002457168481571716
1783174167475489500,7.574489501953125,-0.020984920361638067,0.0034212477195309475,0.002021127995364077
1783174167485557500,7.5845576171875,-0.018141221368312834,0.0005285219527082517,0.006387266480605467
1783174167495626800,7.594626708984375,-0.01844108109772205,-0.0011003670239122583,-0.005061118172825081
1783174167505694700,7.60469482421875,-0.010509703576564788,-0.011052685596176889,0.01114889424595749
1783174167515763500,7.614763427734375,-0.013353402569890021,-0.005085623568063601,0.0005542560426416457
1783174167525832700,7.624832763671875,-0.018291443493962285,0.0018157578848069533,0.0023511165745003382
1783174167535900700,7.634900634765625,-0.01065992570221424,-0.004648990283044986,-0.007478801173268584
1783174167545969400,7.644969482421875,-0.003177460992336273,-0.008180783421674278,0.0030499761402912554
1783174167556038700,7.65503857421875,-0.026221651971340177,0.0010997414028272032,-0.003699531227604893
1783174167566106600,7.665106689453125,-0.011857026532292366,0.0017020295613561756,0.0035113460035223394
1783174167576175600,7.675175537109375,-0.017542670953273772,0.0008786003322806209,0.00008432099293131614
1783174167586243600,7.68524365234375,-0.011408113721013068,-0.00876129357323516,-0.0028570208408462347
1783174167596312600,7.6953125,-0.016645429852604865,0.009607190362445544,0.009667107281071367
1783174167606381600,7.705381591796875,-0.0182908589720726,0.011245164544531144,-0.014045613484596833
1783174167616449500,7.715449462890625,-0.025922376763820646,0.00224832463277271,-0.01423078476768569
1783174167626518500,7.7255185546875,-0.00961246247589588,0.003823738989641424,-0.014146530275535769
1783174167636587500,7.73558740234375,-0.01814180589020252,0.014036083037848583,0.00005900702810613438
1783174167646655500,7.745655517578125,-0.019039631512761116,0.011374960370082407,-0.005752796510458574
1783174167656724700,7.755724853515625,-0.016645429852604865,-0.008082974186562933,-0.01536167479402502
1783174167666792700,7.765792724609375,-0.024875498059391973,0.006811490662733558,-0.005263096743531059
1783174167676861400,7.775861328125,-0.010810147827863693,0.0019429347782977855,-0.005510820431148749
1783174167686930700,7.7859306640625,-0.018890578430891036,-0.010183962770516518,-0.00412373229143559
1783174167696998700,7.79599853515625,-0.011259645161032675,-0.016626336993067526,-0.0065411361598438815
1783174167707067400,7.8060673828125,-0.01934007576406002,0.0036500195406842973,-0.0008501014652254525
1783174167717136600,7.81613671875,-0.011858780097961425,0.0034909496715874407,-0.007356118933449033
1783174167727204600,7.82620458984375,-0.0018330606460571289,0.007604611518513411,0.004226046455017058
1783174167737273600,7.836273681640625,0.00400280590057373,0.005664478335366584,0.005993786209079553
1783174167747342600,7.846342529296875,-0.015600304713845253,0.007022662895114626,-0.010942935903166653
1783174167757410600,7.85641064453125,-0.023231237983703613,0.015313948353403247,0.007732081814593402
1783174167767479600,7.8664794921875,-0.023081600379943848,0.0003154112082789652,-0.014121560231060721
1783174167777547500,7.876547607421875,-0.013804653468728065,0.009432148889370728,-0.00038138740411086474
1783174167787616500,7.886616455078125,-0.026523849788308143,0.0129736916704569,-0.011095827193226432
1783174167797685500,7.896685546875,-0.01395429107248783,-0.0025658022172632628,0.0022037348599085816
1783174167807753500,7.90675341796875,-0.007969371443986892,0.0038017440702533345,0.004787118399635073
1783174167817822700,7.91682275390625,-0.015899579921364784,-0.009477273522596806,-0.010969704037439078
1783174167827891700,7.9268916015625,-0.03744739486277103,-0.002737455290008802,0.0010985078561439876
1783174167837959400,7.93695947265625,-0.019491466933488844,-0.011018676012009381,-0.0029888973131630336
1783174167848028700,7.947028564453125,0.0034036709636449812,0.006726808053965214,-0.004406333783722948
1783174167858096600,7.9570966796875,-0.009914660292863845,-0.004955907657614443,-0.0006479704850033158
1783174167868165400,7.967165283203125,-0.022784078738093374,0.007507347989385016,0.0006517259239801205
1783174167878234600,7.977234619140625,-0.015600889235734938,0.007254311659943778,0.009638739703112515
1783174167888302600,7.987302490234375,-0.005425532180070877,-0.0036671487719984724,0.0015330034121812787
1783174167898371600,7.99737158203125,-0.008717559462785721,0.01063239380789455,-0.010726861450093566
1783174167908440600,8.007440673828125,-0.02472936758697033,-0.0058592268726206384,-0.004168274115238455
1783174167918508500,8.017508544921874,-0.01994096426665783,-0.017641359254508278,-0.0001933334691246273
1783174167928577500,8.02757763671875,-0.015601473757624626,-0.004489995762472972,-0.014831505448569078
1783174167938645500,8.0376455078125,-0.021437340304255485,-0.0003183132681297138,-0.01132883108985843
1783174167948714500,8.047714599609375,-0.00587502951323986,-0.015682082979474217,-0.0027281737217213957
1783174167958783700,8.05778369140625,-0.01575169588327408,-0.0006322791547048837,0.007814319021237316
1783174167968851500,8.0678515625,-0.01395604463815689,0.02272857884132536,-0.00874023594383034
1783174167978920700,8.077920654296875,-0.017097849795222282,-0.0032519053348805753,-0.016227508117922115
1783174167988989700,8.08798974609375,-0.01201017126739025,-0.00015639385482063515,-0.00407826059833751
1783174167999057400,8.098057373046874,-0.03071487173736095,-0.01244785943175666,-0.017695208333595655
1783174168009126700,8.108126708984376,-0.026076690542697904,-0.000008975607610773295,-0.015320736570504959
1783174168019194600,8.118194580078125,-0.0067740241795778275,-0.008819412402063607,-0.011807442636368796
1783174168029263600,8.128263671875,-0.023234160593152045,-0.010131960871932097,-0.0002354692775319563
1783174168039332600,8.13833251953125,-0.01246025312244892,-0.0006628249900182708,0.00854583332480397
1783174168049400600,8.148400634765625,-0.013956629160046577,0.0007740873617469333,-0.005008215516875498
1783174168059469800,8.1584697265625,-0.023234160593152045,-0.00426142258743057,-0.012485364730819128
1783174168069538600,8.16853857421875,-0.014405541971325873,-0.008378906659525818,0.0032571272159810176
1783174168079606500,8.1786064453125,-0.007970540487766265,-0.003125249031197745,-0.00924644274591992
1783174168089675800,8.18867578125,-0.007222936990857124,0.010555029139190446,-0.003412226446147542
1783174168099745000,8.1987451171875,-0.020091770914196967,0.004534408009645994,0.0022040077129000563
1783174168109813000,8.20881298828125,-0.01006605146229267,0.0003243868158897385,0.011228125503117916
1783174168119882000,8.218882080078124,-0.016051555612683295,0.0030108037551166487,-0.006356891321117291
1783174168129950000,8.228949951171876,-0.017099018839001653,0.006111256271775346,-0.0075494603940838715
1783174168140019000,8.23901904296875,-0.015752280405163764,0.001978318902221508,0.006214052780080237
1783174168150088200,8.249088134765625,-0.006774608701467514,-0.008560537703591399,-0.002053893472638447
1783174168160156000,8.259156005859374,-0.020242577561736107,-0.0029465634294669144,-0.0014114930702518905
1783174168170225000,8.269224853515626,0.0019043723165988922,0.007443137346487492,0.001680540390399983
1783174168180294100,8.279294189453125,-0.016949965757131577,0.004756389330409001,-0.012697957168729044
1783174168190361900,8.28936181640625,-0.014855623826384544,-0.0169962069184985,0.003906407737836707
1783174168200431000,8.29943115234375,-0.027724457749724388,-0.00011649795256089418,0.00132950759617961
1783174168210499000,8.3094990234375,-0.02143967839181423,-0.007568578940618317,-0.017584825027990154
1783174168220568000,8.319568115234375,-0.010515548795461654,-0.004506248210952617,-0.00783983819662826
1783174168230637000,8.329636962890625,-0.018147651109099387,-0.004922799972456414,-0.010488862859579966
1783174168240705000,8.339705078125,-0.006176642808318138,-0.0014381407610489986,-0.01729918219524552
1783174168250774000,8.34977392578125,-0.011863456273078919,-0.008996435769670642,0.001467720479860145
1783174168260843000,8.359843017578125,-0.020542437291145323,-0.005173384049907326,0.004134617869986687
1783174168270911000,8.369910888671875,-0.002884615525603294,0.0061173366694012654,0.005113203411444556
1783174168280980200,8.379980224609374,-0.00004208557605743408,-0.0027535935740568675,0.006766649157297797
1783174168291048000,8.3900478515625,-0.01739946309030056,-0.030975917843321803,0.005600579361367272
1783174168301117000,8.400116943359375,-0.015004676908254622,-0.012400684405339415,0.01031867451649159
1783174168311186200,8.410186279296875,-0.014256488889455795,0.0015179782313411124,-0.005999997895801789
1783174168321254000,8.42025390625,-0.011114683732390404,0.000050303131842520085,0.0038583470808414857
1783174168331323000,8.430322998046876,-0.012162146958708762,-0.008589156443299726,0.012004263258056015
1783174168341392100,8.44039208984375,-0.016950550279021263,-0.013091351816931274,-0.014586531411285977
1783174168351460000,8.450460205078125,-0.015603811845183372,0.01787829839909682,-0.004896877225799835
1783174168361529000,8.460529052734374,-0.022038228806853292,0.010273922059312462,0.004220119893962692
1783174168371597000,8.47059716796875,-0.019644027146697045,-0.012431666348781435,0.009227259125659474
1783174168381666000,8.480666015625,-0.013808160600066184,-0.002032642905344255,-0.002673639370633464
1783174168391735000,8.490735107421875,-0.003333528336882591,0.011951435950631275,0.005851157730596605
1783174168401803000,8.500802978515624,-0.018147651109099387,-0.003197083574836142,0.011847004036844008
1783174168411872000,8.5108720703125,-0.012761281895637511,0.00048277398168575014,-0.0013096783760585822
1783174168421941000,8.52094091796875,-0.006775777745246887,-0.0079893799022655,0.014410291211679577
1783174168432009000,8.531009033203125,-0.024582652592658995,-0.005160118142957799,0.007143968311889329
1783174168442078200,8.541078125,-0.03610357903838157,-0.011788123731256928,-0.0037844818373763698
1783174168452146200,8.551146240234376,-0.01635141534209251,0.0003712946975370869,0.005408219144021859
1783174168462215000,8.56121484375,-0.0027338088780641556,0.004410765646956861,0.0047410353560058864
1783174168472284200,8.5712841796875,-0.022635025656223298,-0.0006394075818127021,0.0021964157782000254
1783174168482352000,8.58135205078125,-0.012459668600559234,-0.007109188117808662,-0.0061634579581150315
1783174168492420900,8.5914208984375,-0.010514379751682281,-0.023197201000072526,0.017756829727184956
1783174168502490000,8.601489990234375,-0.014255319845676422,-0.003416208501521032,0.004143713350250619
1783174168512558000,8.61155810546875,-0.009317278921604156,-0.004462520950369071,0.007490193641895893
1783174168522627000,8.621626953125,-0.0036310499787330624,0.006358303535135928,0.0006920308203159948
1783174168532696000,8.631696044921876,-0.016948796713352202,-0.004950238251942209,0.01254554765257053
1783174168542764000,8.641763916015625,-0.0022848960667848587,0.0005379085522727109,0.0064376375402847765
1783174168552833000,8.6518330078125,-0.0019856208592653273,0.0007824350649840198,0.004396726846805541
1783174168562901000,8.66190087890625,-0.01799684446156025,-0.0006905760800465941,-0.011728553872503107
1783174168572970000,8.671969970703126,-0.002583586752414703,-0.003816991871735081,-0.00253495926901669
1783174168583039000,8.6820390625,-0.010813070437312125,-0.012818183731625321,0.005997348710166988
1783174168593107000,8.69210693359375,-0.013656184908747673,0.006169665078260004,0.008332805920409737
1783174168603176200,8.70217626953125,-0.027272622328996656,-0.011698319706087932,-0.00006500408569700084
1783174168613245000,8.712244873046876,-0.011261398726701736,-0.016617112506995907,-0.013207317763241007
1783174168623313000,8.72231298828125,-0.021586393386125564,-0.022595399182022084,0.004282502764310629
1783174168633382100,8.732382080078125,0.03318096958994865,-0.004746897699567489,0.00943177899661241
1783174168643450000,8.7424501953125,0.0011591069072484968,-0.021406289862154516,0.02130909939826233
1783174168653518800,8.752518798828126,-0.06812310363352299,-0.012955761004833038,0.008743242464135983
1783174168663588000,8.762588134765625,-0.10164192687571048,0.00015478641962399705,-0.015416647251119138
1783174168673656000,8.772656005859375,-0.02008943282663822,0.010459742938017007,-0.010158948201913154
1783174168683725000,8.78272509765625,0.04141162231862545,0.009871663684642408,-0.022501078811939804
1783174168693794000,8.7927939453125,0.03273264130055904,0.015816013840737286,-0.023834204278956165
1783174168703862000,8.802862060546875,-0.028618191719055174,-0.0050711635011597535,-0.0025823406476440137
