time,seconds_elapsed,z,y,x
1783174159984431000,0.08343115234375,0.0008538221591152251,-0.0007320046424865723,0.0021051408257335424
1783174159994500000,0.0935,0.0017390568973496556,0.0017050537280738354,0.0008459982927888632
1783174160004568000,0.103568115234375,0.0028671929612755775,0.00205221027135849,0.0025954677257686853
1783174160014637300,0.11363720703125,0.002216316293925047,-0.0011987099424004555,0.0007006286177784204
1783174160024706000,0.1237060546875,0.0011222625616937876,-0.001342681236565113,-0.0013712765648961067
1783174160034774000,0.13377392578125,0.0036029969342052937,0.0007241982966661453,-0.0009486328344792128
1783174160044843300,0.14384326171875,0.002477811649441719,0.0017662933096289635,0.0008308915421366692
1783174160054911200,0.1539111328125,-0.000727569218724966,0.001549511682242155,0.0027931085787713528
1783174160064980000,0.16397998046875,-0.0021035762038081884,0.0008304999209940434,-0.0018716787453740835
1783174160075049200,0.17404931640625,0.0008986054453998804,0.0024105533957481384,-0.0013006969820708036
1783174160085117200,0.1841171875,-0.0024353726767003536,0.0007422585040330887,0.0018201533239334822
1783174160095185700,0.194185546875,-0.003358956892043352,0.0003542359918355942,-0.00048188306391239166
1783174160105254700,0.204254638671875,0.0002727959072217345,-0.001765374094247818,-0.00021396903321146965
1783174160115323000,0.214322998046875,-0.001255059614777565,0.00011135544627904892,-0.0019783133175224066
1783174160125391600,0.2243916015625,-0.002628533635288477,-0.002081708051264286,0.00008840207010507584
1783174160135460900,0.2344609375,-0.003380610141903162,-0.00021909363567829132,-0.003159855492413044
1783174160145528800,0.24452880859375,-0.0012347439769655466,0.0017720391042530537,0.0007588553708046675
1783174160155597600,0.25459765625,-0.0026840362697839737,-0.001201380044221878,-0.0005298482719808817
1783174160165665800,0.264665771484375,-0.0006521744653582573,-0.0006181411445140839,0.0008763973601162434
1783174160175734800,0.27473486328125,-0.0003717435756698251,-0.0006945738568902016,0.002253251615911722
1783174160185803800,0.2848037109375,0.000968912907410413,-0.000997760333120823,0.0008625887567177415
1783174160195871700,0.294871826171875,-0.000046284112613648176,-0.0002480801194906235,0.00035285972990095615
1783174160205940700,0.304940673828125,0.0002452017506584525,-0.0009101349860429764,0.00008131330832839012
1783174160216009700,0.315009765625,0.002421803306788206,0.0019895145669579506,0.001856842776760459
1783174160226077700,0.32507763671875,0.0036091767251491547,0.001031582709401846,-0.0009918445721268654
1783174160236146700,0.335146728515625,0.003012628760188818,0.0003671240992844105,0.0022947625257074833
1783174160246216000,0.3452158203125,0.0034771051723510027,-0.0003017149865627289,0.0008558975532650948
1783174160256283600,0.35528369140625,-0.0002164328470826149,-0.0001480504870414734,-0.0006714253686368465
1783174160266352600,0.3653525390625,0.00016631779726594687,-0.00023268349468708038,-0.0005820118822157383
1783174160276420900,0.3754208984375,-0.0013247859897091985,0.00016705738380551338,-0.0006810813210904598
1783174160286489600,0.385489501953125,0.0012934219557791948,-0.00047098007053136826,-0.00035624392330646515
1783174160296558800,0.395558837890625,-0.0007875720621086657,0.00015965616330504417,0.0007271298673003912
1783174160306626800,0.405626708984375,-0.0023238465655595064,-0.0007614325731992722,-0.003110014135017991
1783174160316695800,0.41569580078125,-0.0026908302679657936,-0.000489523634314537,-0.000736338784918189
1783174160326764800,0.425764892578125,-0.0013291558716446161,-0.00021362025290727615,-0.0029598118271678686
1783174160336832800,0.435832763671875,-0.0004705528263002634,-0.00013292673975229263,-0.0007922651711851358
1783174160346901800,0.44590185546875,-0.0020091640762984753,-0.0007255785167217255,-0.0008811531588435173
1783174160356969700,0.4559697265625,-0.003810259746387601,-0.00021398533135652542,0.0009154153522104025
1783174160367038700,0.466038818359375,-0.0017237324500456452,-0.0015261946246027946,-0.0027928922791033983
1783174160377108000,0.47610791015625,0.0001346213393844664,0.00034121377393603325,-0.0017153772059828043
1783174160387175700,0.48617578125,0.001639741938561201,0.00001036468893289566,0.0003403029404580593
1783174160397244700,0.49624462890625,0.001490604947321117,0.0005957274697721004,0.0020071754697710276
1783174160407314000,0.50631396484375,0.0005243010818958282,0.00007283687591552734,0.00026613660156726837
1783174160417382000,0.5163818359375,0.002561885630711913,0.00015246588736772537,0.0006877151317894459
1783174160427450600,0.52645068359375,0.0017936400836333632,0.002200906630605459,-0.002816232852637768
1783174160437520000,0.536519775390625,0.0019491686252877116,0.001470934133976698,0.001056003151461482
1783174160447587800,0.546587890625,0.0021556448191404343,-0.0004346063360571861,0.002778433496132493
1783174160457656800,0.55665673828125,0.0008280589245259762,0.0006935084238648415,0.0028242398984730244
1783174160467724800,0.566724853515625,0.0024172759149223566,0.0016928380355238914,0.0005550896748900414
1783174160477793800,0.576793701171875,0.0023570884950459003,0.0027317372150719166,0.00017292611300945282
1783174160487862800,0.58686279296875,-0.0004666824243031442,-0.000013862736523151398,-0.00020874524489045143
1783174160497930800,0.5969306640625,-0.00190239236690104,-0.0019936561584472656,0.002075714524835348
1783174160507999700,0.606999755859375,0.0000319542596116662,0.00002855248749256134,-0.00046431785449385643
1783174160518068700,0.61706884765625,-0.0006111991824582219,-0.0006319116801023483,-0.0011641967575997114
1783174160528136700,0.62713671875,-0.0005455451318994164,0.0007444308139383793,-0.000527683412656188
1783174160538206000,0.6372060546875,0.00014554517110809684,0.003486421424895525,-0.0020347661338746548
1783174160548274700,0.647274658203125,-0.0009966351790353656,-0.00196050014346838,-0.00010929303243756294
1783174160558342700,0.6573427734375,0.00032109691528603435,-0.0005655363202095032,-0.0006642956286668777
1783174160568412000,0.667411865234375,-0.0020169466733932495,0.001501020509749651,-0.0016762290615588427
1783174160578479900,0.67747998046875,0.0013626049039885402,0.0024469750933349133,0.000320076709613204
1783174160588548600,0.687548583984375,0.0013259302359074354,-0.0010830964893102646,0.0008483754936605692
1783174160598617900,0.697617919921875,-0.0012735814088955522,-0.0018735229969024658,0.0008406522683799267
1783174160608685800,0.707685791015625,0.0007485058158636093,0.0009870794601738453,-0.0013600063975900412
1783174160618754800,0.7177548828125,0.00024756521452218294,0.0011625820770859718,-0.0006673182360827923
1783174160628823800,0.72782373046875,-0.001354973646812141,0.0006926744244992733,0.001130792312324047
1783174160638891800,0.737891845703125,0.001450400217436254,0.00024393154308199883,-0.00043008639477193356
1783174160648960800,0.747960693359375,0.0013571748277172446,0.0021168002858757973,0.001154115074314177
1783174160659028700,0.75802880859375,-0.0003187524271197617,-0.0008683372288942337,-0.0008512451313436031
1783174160669097700,0.76809765625,0.0016422566259279847,0.001814776100218296,0.0011178727727383375
1783174160679166700,0.778166748046875,-0.0007255598320625722,-0.0012534521520137787,0.00033836555667221546
1783174160689234700,0.788234619140625,-0.0007786595379002392,0.0007065371610224247,-0.001753485295921564
1783174160699304000,0.798303955078125,-0.0014348623808473349,0.0015952340327203274,0.00046306359581649303
1783174160709372700,0.80837255859375,-0.0003543808707036078,0.000758112408220768,-0.0025463157799094915
1783174160719440600,0.818440673828125,0.0009697428322397172,-0.0028392858803272247,0.001147755072452128
1783174160729510000,0.828510009765625,0.0009376642992720008,-0.001331983134150505,0.00038122222758829594
1783174160739578600,0.83857861328125,-0.0014855461195111275,0.0007998775690793991,-0.002391927409917116
1783174160749646600,0.848646484375,0.0006596018210984766,-0.002489255741238594,-0.0003550050314515829
1783174160759715800,0.8587158203125,-0.0009327022125944495,-0.0019691400229930878,0.0007227761670947075
1783174160769783800,0.86878369140625,-0.000024136388674378395,0.0005765226669609547,-0.00257647386752069
1783174160779852800,0.878852783203125,-0.0018065901240333915,0.0007126103155314922,-0.0008139938581734896
1783174160789921800,0.888921875,0.0007243403815664351,-0.0012978147715330124,-0.0020302312914282084
1783174160799989800,0.89898974609375,0.0018615100998431444,0.00035840505734086037,-0.000748717924579978
1783174160810058800,0.909058837890625,-0.0010439554462209344,-0.00005809217691421509,-0.0008486390579491854
1783174160820127700,0.919127685546875,-0.001188565162010491,0.0005208789370954037,-0.00043105543591082096
1783174160830195700,0.92919580078125,-0.00023568607866764069,0.001765640452504158,0.0002879980020225048
1783174160840264700,0.9392646484375,0.0022904034703969955,0.0008830195292830467,-0.00024367240257561207
1783174160850333700,0.949333740234375,0.000013057608157396317,-0.0004780590534210205,0.001267431303858757
1783174160860402000,0.95940185546875,0.00030121166491881013,-0.00009669363498687744,-0.0008987840265035629
1783174160870470700,0.969470703125,0.001000819611363113,0.0008697528392076492,-0.0016332061495631933
1783174160880538600,0.97953857421875,0.0011422333773225546,-0.0003909878432750702,-0.0018686295952647924
1783174160890607900,0.98960791015625,-0.0003619740018621087,0.0005882009863853455,0.00333578884601593
1783174160900676600,0.999676513671875,0.00020554556977003813,0.00010457076132297516,0.00003559957258403301
1783174160910744600,1.00974462890625,-0.0017995709786191583,0.0007160007953643799,-0.002418051240965724
1783174160920813800,1.019813720703125,-0.00017637433484196663,-0.001664864830672741,-0.0015216313768178225
1783174160930882800,1.0298828125,-0.0012211677385494113,0.0006516631692647934,-0.0006248722784221172
1783174160940950800,1.03995068359375,-0.002001740038394928,-0.0008237278088927269,0.0005708870012313128
1783174160951019800,1.050019775390625,-0.0011079467367380857,-0.0004872409626841545,-0.0003380801063030958
1783174160961087700,1.060087646484375,-0.0016866514924913645,0.0007753632962703705,-0.00019160611554980278
1783174160971156700,1.07015673828125,-0.0018022754229605198,-0.0005816454067826271,-0.0018088899087160826
1783174160981225700,1.080225830078125,-0.0017175870016217232,0.001859408337622881,0.000743217533454299
1783174160991293700,1.090293701171875,0.0007769545190967619,0.0018367157317698002,-0.0025783348828554153
1783174161001362700,1.10036279296875,-0.002417773474007845,0.0012878384441137314,0.0015532930847257376
1783174161011431700,1.110431640625,0.0007666046149097383,-0.000050673261284828186,-0.0028290157206356525
1783174161021499600,1.120499755859375,-0.0000619047787040472,0.00023694848641753197,0.0000810201745480299
1783174161031568600,1.130568603515625,0.0016061813803389668,-0.0004886528477072716,-0.0016840766184031963
1783174161041637600,1.1406376953125,-0.00008332799188792706,-0.0008473806083202362,0.0016318254638463259
1783174161051705900,1.150705810546875,0.0017904848791658878,0.0005649491213262081,0.0008633326506242156
1783174161061774800,1.16077490234375,0.0004996507195755839,0.0006174133159220219,0.0007125977426767349
1783174161071842600,1.170842529296875,-0.00014251848915591836,-0.0011971471831202507,0.002777242800220847
1783174161081911800,1.180911865234375,0.0020580515265464783,0.00023989472538232803,-0.0005573013331741095
1783174161091980500,1.19098046875,0.0027945965994149446,0.003075516317039728,0.0006385683082044125
1783174161102048500,1.201048583984375,0.0005213222466409206,-0.00028672441840171814,-0.0019388392101973295
1783174161112117200,1.2111171875,0.002394354436546564,0.0007672687061131,-0.0012049362994730473
1783174161122186500,1.2211865234375,-0.0002730677369982004,-0.0005834866315126419,0.0017471776809543371
1783174161132254500,1.23125439453125,-0.0022224767599254847,-0.0010827770456671715,0.0009009160567075014
1783174161142323500,1.241323486328125,-0.001203018706291914,0.002905838657170534,-0.0017225637566298246
1783174161152391400,1.251391357421875,-0.0005101182032376528,-0.00008177850395441055,-0.002221689559519291
1783174161162460400,1.26146044921875,-0.0009388871258124709,0.0010814904235303402,-0.001185453962534666
1783174161172529400,1.271529296875,-0.0010822191834449768,-0.0010840846225619316,-0.0019552602898329496
1783174161182597400,1.281597412109375,-0.000550385972019285,-0.00027794577181339264,-0.0002676148433238268
1783174161192666400,1.291666259765625,-0.001188361318781972,-0.00006906036287546158,-0.0028963559307157993
1783174161202735400,1.3017353515625,-0.0009494756232015789,0.0006318832747638226,0.0012682952219620347
1783174161212803300,1.31180322265625,0.0011504910653457046,0.0005697193555533886,-0.0017981689888983965
1783174161222872300,1.321872314453125,0.002294052392244339,-0.0007767751812934875,-0.0005965507589280605
1783174161232940500,1.3319404296875,0.003038929309695959,-0.00194584671407938,0.002189683262258768
1783174161243009300,1.34200927734375,-0.0008527477039024234,0.0011415560729801655,-0.0014793535228818655
1783174161253078500,1.35207861328125,0.00013930659042671323,0.0009573530405759811,0.0010850165272131562
1783174161263146500,1.362146484375,0.0008005694835446775,0.0016545685939490795,0.0020837020128965378
1783174161273215200,1.37221533203125,-0.0006190059939399362,-0.0008507557213306427,-0.0011919471435248852
1783174161283284500,1.382284423828125,0.001951743382960558,0.0017277169972658157,0.00023817061446607113
1783174161293352400,1.3923525390625,0.0023953570052981377,-0.0008038552477955818,0.0032019843347370625
1783174161303421200,1.402421142578125,0.002197217894718051,0.0028998032212257385,0.00045466748997569084
1783174161313489400,1.412489501953125,0.0028617791831493378,0.0010997424833476543,-0.0019651041366159916
1783174161323558400,1.422558349609375,-0.0015276429476216435,0.001657408196479082,0.001134282792918384
1783174161333627400,1.43262744140625,-0.0026893888134509325,-0.0006278781220316887,0.0019900237675756216
1783174161343695400,1.4426953125,-0.002371939830482006,0.0003412468358874321,-0.0015796772204339504
1783174161353764400,1.452764404296875,-0.0025601342786103487,-0.0022346507757902145,-0.0030632163397967815
1783174161363833300,1.462833251953125,-0.0038325926288962364,-0.001063925214111805,-0.0005587798077613115
1783174161373901300,1.4729013671875,-0.00043002795428037643,-0.0020293621346354485,-0.0002183017786592245
1783174161383970300,1.48297021484375,-0.0017722609918564558,-0.0013302816078066826,0.0023764159996062517
1783174161394039300,1.493039306640625,-0.00026442715898156166,0.0035050329752266407,-0.0013969771098345518
1783174161404107300,1.503107177734375,-0.0009091785177588463,0.0009358813986182213,0.0010571257444098592
1783174161414176500,1.513176513671875,-0.0014358325861394405,0.0012224852107465267,-0.0005511466879397631
1783174161424244500,1.523244384765625,-0.0012454164680093527,-0.000789267010986805,0.0013074735179543495
1783174161434313200,1.533313232421875,0.0005555856041610241,0.0018890700303018093,0.000698580639436841
1783174161444382500,1.543382568359375,0.0015769079327583313,0.0003910418599843979,-0.0018213021103292704
1783174161454450400,1.553450439453125,-0.0016896608285605907,-0.0010938327759504318,0.0005507776513695717
1783174161464519200,1.563519287109375,0.0033506378531455994,0.0008979453705251217,0.0004751437809318304
1783174161474588400,1.57358837890625,-0.0002832674654200673,0.0007793828845024109,-0.0018907568883150816
1783174161484656400,1.583656494140625,-0.002269985619932413,0.001826804131269455,0.000479190144687891
1783174161494725400,1.593725341796875,0.000316593621391803,-0.00008868146687746048,-0.0016000652685761452
1783174161504793300,1.60379345703125,-0.0032882613595575094,0.00015260139480233192,0.00020981882698833942
1783174161514862300,1.6138623046875,-0.0014087932649999857,0.0006016888655722141,-0.000768221216276288
1783174161524931300,1.623931396484375,0.0009635505848564208,0.0005913027562201023,-0.0002302627544850111
1783174161534999300,1.633999267578125,-0.0007113255560398102,0.0005047409795224667,0.0007612626068294048
1783174161545068300,1.644068359375,-0.0007906877435743809,0.0005750483833253384,-0.0005394252948462963
1783174161555137300,1.65413720703125,-0.0004347859066911042,0.0012694457545876503,-0.0017191979568451643
1783174161565205200,1.664205322265625,0.00027228338876739144,0.0007184380665421486,-0.0019394413102418184
1783174161575274500,1.6742744140625,0.000007207505404949188,-0.0002770582213997841,-0.00010416097939014435
1783174161585342500,1.684342529296875,-0.00018454005476087332,0.00011495919898152351,-0.0016991281881928444
1783174161595411200,1.6944111328125,-0.001282285200431943,0.0004640202969312668,0.0012501905439421535
1783174161605480400,1.70448046875,-0.00014990911586210132,0.0009202198125422001,-0.0004419819451868534
1783174161615548400,1.71454833984375,0.0011704465141519904,0.00043329130858182907,-0.002946276683360338
1783174161625617200,1.7246171875,0.0008274313295260072,-0.000625847838819027,0.0015017351834103465
1783174161635686400,1.734686279296875,0.0012427530018612742,0.0008290670812129974,0.00024093454703688622
1783174161645754400,1.74475439453125,0.0035336040891706944,0.0013105669058859348,0.00017994828522205353
1783174161655823400,1.7548232421875,-0.000010372838005423546,0.00014425581321120262,-0.0016865241341292858
1783174161665892400,1.764892333984375,0.00457638967782259,0.0014566616155207157,-0.0000867634080350399
1783174161675960300,1.774960205078125,-0.0006535804131999612,0.0017279810272157192,0.0003047902137041092
1783174161686029300,1.785029296875,-0.001167570473626256,-0.0004914980381727219,-0.0005373014137148857
1783174161696097300,1.79509716796875,-0.0005967465694993734,-0.001649593934416771,0.0022460976615548134
1783174161706166300,1.805166259765625,-0.00038688944187015295,0.0017789597623050213,0.00029639736749231815
1783174161716235500,1.815235595703125,0.00016259221592918038,0.0010371319949626923,-0.0015500928275287151
1783174161726303200,1.82530322265625,-0.0009700501104816794,-0.002641492523252964,-0.0006289053708314896
1783174161736372500,1.83537255859375,0.00069402065128088,-0.0019935648888349533,-0.00022351928055286407
1783174161746441500,1.84544140625,0.0007507459376938641,-0.000912853516638279,-0.0012032962404191494
1783174161756509200,1.85550927734375,-0.002771350322291255,0.0003531482070684433,0.002679774072021246
1783174161766578400,1.865578369140625,0.0003235092153772712,-0.0004958678036928177,-0.0001474376767873764
1783174161776646400,1.875646484375,-0.00011781591456383467,0.0016850908286869526,-0.0016575579065829515
1783174161786715400,1.88571533203125,0.00014716858277097344,0.0010059848427772522,-0.000033828895539045334
1783174161796784400,1.895784423828125,-0.0016162142856046557,0.0016000354662537575,-0.0019815510604530573
1783174161806852400,1.905852294921875,0.001426713541150093,0.0023228176869452,0.0008674985729157925
1783174161816921600,1.915921630859375,0.0005807206034660339,0.0009409710764884949,-0.004264808259904385
1783174161826990300,1.925990234375,0.002401257399469614,0.000342824961990118,-0.001203504391014576
1783174161837058300,1.936058349609375,0.001190399518236518,0.00035635801032185555,0.0000597955659031868
1783174161847127600,1.94612744140625,0.0013770870864391327,0.003919933456927538,-0.002857430838048458
1783174161857195300,1.9561953125,-0.0014591203071177006,0.0010954542085528374,0.0003336900845170021
1783174161867264300,1.96626416015625,0.0005864536506123841,-0.0008790129795670509,0.00010332674719393253
1783174161877333500,1.97633349609375,0.0012981267645955086,-0.0013970602303743362,-0.00031028897501528263
1783174161887401200,1.986401123046875,0.0009162295027635992,0.0029263156466186047,0.003330518491566181
1783174161897470500,1.996470458984375,-0.0022351236548274755,-0.0006759623065590858,0.0032299745362251997
1783174161907539500,2.00653955078125,-0.00032430561259388924,-0.0016253795474767685,-0.003970679827034473
1783174161917607400,2.016607421875,-0.00016070099081844091,-0.0017795274034142494,0.000558303901925683
1783174161927676400,2.026676513671875,-0.003262218553572893,0.0013270503841340542,-0.0001695379614830017
1783174161937744400,2.036744384765625,0.0013110729632899165,-0.000992131419479847,-0.0006587398238480091
1783174161947813400,2.0468134765625,-0.0014964313013479114,-0.00047175027430057526,0.0008949483744800091
1783174161957882400,2.05688232421875,-0.0006870580837130547,0.0000237124040722847,-0.0005078546237200499
1783174161967950300,2.066950439453125,-0.00007985730189830065,-0.0009952131658792496,0.0011680726893246174
1783174161978019600,2.07701953125,-0.00026143190916627645,0.000046283937990665436,-0.00035504670813679695
1783174161988088300,2.08708837890625,0.00019743078155443072,0.0026436648331582546,0.0005126111209392548
1783174161998156300,2.09715625,0.001128641190007329,-0.000356488861143589,-0.0007174450438469648
1783174162008225500,2.1072255859375,0.0010641926201060414,0.002492560539394617,0.00005300762131810188
1783174162018293500,2.11729345703125,-0.00027014955412596464,0.0012634629383683205,-0.0025845454074442387
1783174162028362200,2.1273623046875,0.0006949800299480557,0.0002557225525379181,0.00017369049601256847
1783174162038431500,2.137431396484375,0.0020388623233884573,0.001913759857416153,-0.002877985592931509
1783174162048499500,2.14749951171875,-0.0005249629030004144,-0.0010029338300228119,0.003115724539384246
1783174162058568400,2.157568359375,-0.00008391053415834904,0.0014134733937680721,0.00043214322067797184
1783174162068637400,2.167637451171875,-0.0004889772972092032,0.0007215840741991997,-0.0021018546540290117
1783174162078705400,2.177705322265625,0.003394751576706767,0.00114915007725358,-0.0001117901410907507
1783174162088774400,2.1877744140625,0.002147326711565256,0.0007155872881412506,0.0018533564871177077
1783174162098843000,2.1978427734375,0.001402025343850255,-0.0007482916116714478,-0.0017514890059828758
1783174162108911900,2.207911865234375,-0.0015804487047716975,-0.00044895242899656296,0.0004647935274988413
1783174162118980900,2.21798095703125,-0.000033978139981627464,0.00040016742423176765,0.0008720257319509983
1783174162129048800,2.228048828125,-0.0007996369386091828,0.0009517078287899494,-0.0007900530472397804
1783174162139118000,2.2381181640625,0.0015119598247110844,0.00038642389699816704,-0.0017599430866539478
1783174162149186800,2.248186767578125,-0.0006587827811017632,0.00022050924599170685,-0.001702684909105301
1783174162159254800,2.2582548828125,0.0013601371319964528,-0.002177014946937561,-0.001375425374135375
1783174162169324000,2.268323974609375,-0.0015701388474553823,-0.0023423973470926285,-0.0014470641035586596
1783174162179391700,2.278391845703125,0.0028974763117730618,0.0018551782704889774,-0.0008067793678492308
1783174162189461000,2.2884609375,-0.0000892590032890439,-0.0021012136712670326,-0.002110929461196065
1783174162199530000,2.298530029296875,0.00042696326272562146,0.0006450638175010681,0.000853333855047822
1783174162209598000,2.308597900390625,-0.001835125731304288,0.000905254390090704,-0.00012218207120895386
1783174162219667000,2.3186669921875,0.00048090965719893575,0.0007774108089506626,0.002662709914147854
1783174162229736000,2.32873583984375,0.0020825346000492573,-0.000055359676480293274,-0.0010015333537012339
1783174162239804000,2.338803955078125,-0.00025526899844408035,0.00001988932490348816,-0.0014388812705874443
1783174162249873000,2.348872802734375,-0.0011668690713122487,0.001196740660816431,0.0009347940795123577
1783174162259940900,2.35894091796875,0.001320927171036601,-0.0000702226534485817,-0.0010679345577955246
1783174162270010000,2.369010009765625,-0.0003371568163856864,0.0007465681992471218,-0.00018855859525501728
1783174162280078800,2.379078857421875,0.0018429060000926256,-0.000010716728866100311,-0.0027375752106308937
1783174162290146800,2.389146728515625,0.0006151888519525528,0.0008750502020120621,-0.0008635087870061398
1783174162300216000,2.399216064453125,-0.0016558801289647818,0.0008496707305312157,0.0007334172260016203
1783174162310284800,2.409284912109375,0.0008480239193886518,0.0007276982069015503,0.00038054841570556164
1783174162320352800,2.419352783203125,0.0007772250100970268,-0.0008155927062034607,-0.0008829592261463404
1783174162330422000,2.429422119140625,-0.0016763453604653478,0.0014057504013180733,0.0010627462761476636
1783174162340490800,2.43949072265625,0.0032649943605065346,-0.00006386172026395798,-0.0009377107489854097
1783174162350558700,2.449558837890625,-0.00011642125900834799,-0.0004622712731361389,-0.0011941732373088598
1783174162360628000,2.4596279296875,0.002003312110900879,-0.0016693957149982452,-0.000027121976017951965
1783174162370696000,2.469696044921875,-0.0004736941773444414,-0.00034660380333662033,0.000374482711777091
1783174162380765000,2.479764892578125,0.00115338119212538,0.0008105598390102386,0.000967359752394259
1783174162390834000,2.489833984375,-0.0004887239774689078,0.000975143164396286,0.001934619853273034
1783174162400902000,2.49990185546875,0.0010031582787632942,-0.0006525292992591858,0.001024463796056807
1783174162410971000,2.509970947265625,0.0005283166537992656,-0.0008322922512888908,0.0005466926377266645
1783174162421039900,2.520039794921875,0.0015290053561329842,0.00003352854400873184,0.0011958149261772633
1783174162431107800,2.53010791015625,0.0013274040538817644,0.000041783787310123444,0.002278389874845743
1783174162441176800,2.5401767578125,-0.002109031891450286,-0.001287451945245266,0.0002835195045918226
1783174162451244800,2.550244873046875,-0.0019151538144797087,0.0006832876242697239,-0.002799888141453266
1783174162461314000,2.56031396484375,0.00038043607491999865,-0.0010257940739393234,-0.002956386422738433
1783174162471382800,2.5703828125,0.00014554522931575775,0.00003973674029111862,-0.0008620766457170248
1783174162481450800,2.58045068359375,0.0006391135975718498,-0.001927209086716175,-0.0017153194639831781
1783174162491520000,2.59052001953125,0.0011967795435339212,-0.00004302244633436203,0.0015286768320947886
1783174162501588700,2.600588623046875,0.0020885798148810863,0.0015965444035828114,0.0010996030177921057
1783174162511656700,2.61065673828125,0.0002360850339755416,0.001161650288850069,0.0003374062944203615
1783174162521726000,2.620725830078125,-0.001555133261717856,-0.0019415868446230888,0.0005780595820397139
1783174162531794000,2.6307939453125,0.0013335974654182792,0.001861407421529293,-0.0018523409962654114
1783174162541863000,2.64086279296875,-0.002238682471215725,0.00024820398539304733,0.0016836586873978376
1783174162551932000,2.650931884765625,-0.0016506564570590854,-0.0007291762158274651,-0.0017925654537975788
1783174162562000000,2.660999755859375,0.0003414802486076951,-0.002787274308502674,-0.001861277036368847
1783174162572068900,2.67106884765625,-0.0005261776968836784,-0.0000021401792764663696,0.0003587340470403433
1783174162582137900,2.681137939453125,-0.0013277308316901326,-0.00023688189685344696,0.0005840794183313847
1783174162592205800,2.691205810546875,0.002274460857734084,0.00037537887692451477,0.0009057892020791769
1783174162602274800,2.70127490234375,-0.0013186661526560783,0.001184356864541769,-0.0010898709297180176
1783174162612342800,2.7113427734375,0.0011564756277948618,-0.0007200697436928749,0.0012113663833588362
1783174162622412000,2.721412109375,0.00032552832271903753,0.0006820354610681534,-0.0015999316237866879
1783174162632480800,2.731480712890625,0.0012895925901830196,-0.0005547367036342621,0.0012083714827895164
1783174162642548700,2.741548828125,0.0021194368600845337,-0.00132061168551445,-0.0005572335794568062
1783174162652618000,2.751617919921875,-0.00037701043765991926,0.0009968713857233524,0.0017767607932910323
1783174162662686700,2.761686767578125,-0.0001082827802747488,0.0008762339130043983,0.000900869257748127
1783174162672754700,2.771754638671875,0.0010616438230499625,-0.0004074098542332649,-0.002686941297724843
1783174162682824000,2.781823974609375,0.0019392013782635331,-0.003109421581029892,0.0027795759961009026
1783174162692892000,2.791891845703125,0.0002888404414989054,0.00020115356892347336,0.0010178949451074004
1783174162702961000,2.8019609375,0.0003096915897913277,-0.00015054363757371902,-0.0010887142270803452
1783174162713030000,2.81202978515625,-0.0015787557931616902,0.0039627086371183395,-0.0005946976598352194
1783174162723097900,2.822097900390625,0.0002480313996784389,-0.0006044460460543633,0.00018837419338524342
1783174162733166800,2.832166748046875,-0.0012286913115531206,0.00125151127576828,-0.00043400656431913376
1783174162743235800,2.84223583984375,0.00032605015439912677,-0.002555643208324909,0.0016686933813616633
1783174162753303800,2.8523037109375,0.00009249092545360327,-0.0016885176301002502,0.0017701598117128015
1783174162763372800,2.862372802734375,-0.001458234852179885,-0.002089938148856163,0.0016195416683331132
1783174162773440800,2.872440673828125,-0.0006462371675297618,0.001905868761241436,-0.00016184686683118343
1783174162783510000,2.882510009765625,0.0007651580381207168,0.000181655865162611,0.000895744189620018
1783174162793578800,2.892578857421875,-0.0003248738357797265,-0.003191237337887287,0.002496836706995964
1783174162803646700,2.902646728515625,-0.0016543579986318946,-0.0009699258953332901,0.00020958785898983479
1783174162813716000,2.912716064453125,-0.001021590898744762,0.000045004766434431076,0.0018644762458279729
1783174162823784700,2.92278466796875,-0.00022138375788927078,0.003542340826243162,0.001935411710292101
1783174162833852700,2.932852783203125,-0.0011313859140500426,-0.002189846709370613,0.001170818111859262
1783174162843922000,2.942921875,-0.0008326765382662416,-0.0014493726193904877,-0.000501611502841115
1783174162853990000,2.952989990234375,0.0001103487447835505,-0.00006213225424289703,0.0008880258537828922
1783174162864059000,2.963058837890625,0.0010976563207805157,0.0002064928412437439,0.0011391888838261366
1783174162874128000,2.9731279296875,0.0010057772742584348,0.0013724248856306076,-0.0009548547677695751
1783174162884195800,2.98319580078125,0.001482496503740549,0.0018694917671382427,-0.0015270542353391647
1783174162894264800,2.993264892578125,-0.002751396968960762,-0.000028543174266815186,-0.0017134756781160831
1783174162904333800,3.003333740234375,0.0004162937984801829,-0.0009370502084493637,-0.0015991260297596455
1783174162914401800,3.01340185546875,0.001228824257850647,0.0016424870118498802,0.0012192974099889398
1783174162924470800,3.023470703125,-0.0002964455052278936,-0.004503129981458187,0.0009980231989175081
1783174162934538800,3.033538818359375,0.0022942775394767523,-0.000975240021944046,0.0023580994457006454
1783174162944608000,3.04360791015625,0.0006006266921758652,0.0006888117641210556,-0.0008151023648679256
1783174162954677000,3.053677001953125,0.00008637027349323034,-0.00007258541882038116,0.002860858803614974
1783174162964744700,3.06374462890625,-0.000615989847574383,0.0005012010224163532,0.0008977833203971386
1783174162974814000,3.07381396484375,-0.000493750732857734,0.0006458107382059097,-0.0002489739563316107
1783174162984883000,3.083883056640625,-0.0008510631159879267,-0.0019037453457713127,0.00018272758461534977
1783174162994950700,3.09395068359375,0.00011886010179296136,0.0011527640745043755,-0.001455116318538785
1783174163005020000,3.10402001953125,0.0008411327144131064,-0.0010256404057145119,-0.0005145289469510317
1783174163015087900,3.114087890625,0.0023727165535092354,-0.0007220404222607613,0.0009424865711480379
1783174163025156900,3.124156982421875,0.0023117386735975742,-0.0000827442854642868,-0.0008058627136051655
1783174163035225900,3.134225830078125,-0.0027671759016811848,-0.00010458193719387054,0.0006466254126280546
1783174163045293800,3.1442939453125,0.0013277807738631964,-0.0019877608865499496,0.00040398561395704746
1783174163055362800,3.15436279296875,0.0016572137828916311,-0.0005318112671375275,0.0010319588473066688
1783174163065431800,3.164431884765625,-0.00038408127147704363,0.00026318710297346115,0.0007673148065805435
1783174163075499800,3.174499755859375,-0.00008367665577679873,0.0008019446395337582,-0.0009877083357423544
1783174163085569000,3.184569091796875,-0.0006383371073752642,-0.0011786543764173985,-0.00015191128477454185
1783174163095637500,3.194637451171875,0.0013768768403679132,0.0009263078682124615,-0.00037481775507330894
1783174163105706500,3.20470654296875,-0.000012547359801828861,-0.00012985989451408386,0.0010976961348205805
1783174163115775200,3.214775146484375,0.0005589670035988092,-0.000791388563811779,0.0013666754821315408
1783174163125843500,3.224843505859375,0.00011660449672490358,-0.0007506413385272026,-0.001069147139787674
1783174163135912400,3.234912353515625,0.0011704172939062119,0.00016548577696084976,-0.0008190763182938099
1783174163145981400,3.2449814453125,0.0020236026030033827,0.0025529759004712105,0.0009557713055983186
1783174163156049400,3.25504931640625,-0.001006808364763856,0.0005119289271533489,0.0011448557488620281
1783174163166118400,3.265118408203125,-0.0001474553719162941,-0.001215511467307806,0.002126669976860285
1783174163176186600,3.2751865234375,0.0003247230779379606,0.0006529628299176693,-0.0012704585678875446
1783174163186255400,3.28525537109375,-0.000474911998026073,-0.0010390081442892551,0.0007052968721836805
1783174163196324400,3.295324462890625,-0.00010579777881503105,-0.0015340899117290974,0.002256854437291622
1783174163206392600,3.305392578125,0.0020777410827577114,-0.0008606854826211929,-0.002260647714138031
1783174163216461300,3.31546142578125,-0.0003593176370486617,-0.0011794660240411758,-0.000029717804864048958
1783174163226530600,3.325530517578125,-0.00017717911396175623,-0.00044963089749217033,0.0014664320042356849
1783174163236598500,3.3355986328125,-0.0006695975316688418,0.000015623867511749268,-0.00037461123429238796
1783174163246667300,3.345667236328125,0.001546592335216701,0.0018835905939340591,-0.00045351870357990265
1783174163256735500,3.355735595703125,-0.00023293186677619815,0.0012974287383258343,-0.0028170740697532892
1783174163266804500,3.365804443359375,-0.00031261472031474113,-0.0009111715480685234,0.0008570670615881681
1783174163276873500,3.37587353515625,-0.0011267430381849408,-0.0022454150021076202,-0.00020260456949472427
1783174163286941400,3.38594140625,0.0009320001699961722,-0.00010674633085727692,0.00011178245767951012
1783174163297010400,3.396010498046875,0.0013610353926196694,-0.00013364385813474655,-0.0010355073027312756
1783174163307079700,3.40607958984375,0.0001538693904876709,-0.000562720000743866,-0.00012300466187298298
1783174163317147400,3.4161474609375,0.00027903792215511203,-0.00047829747200012207,0.00017207348719239235
1783174163327216400,3.42621630859375,-0.00005010003224015236,0.00009779632091522217,-0.0011191831436008215
1783174163337284600,3.43628466796875,-0.000617087003774941,-0.0021504443138837814,0.00036366493441164494
1783174163347353300,3.446353271484375,-0.00043624371755868196,-0.00002879556268453598,-0.00067908875644207
1783174163357422300,3.45642236328125,-0.00007218960672616959,0.0035968320444226265,-0.0006479297298938036
1783174163367490600,3.466490478515625,-0.00007689488120377064,-0.0003738952800631523,-0.00024844775907695293
1783174163377559300,3.476559326171875,-0.0014697280712425709,-0.001016516238451004,-0.0014010637532919645
1783174163387628500,3.486628662109375,-0.0006000351859256625,0.000909862108528614,-0.002161298645660281
1783174163397696500,3.496696533203125,-0.00041388021782040596,-0.0018100244924426079,0.000645673368126154
1783174163407765500,3.506765625,0.0006812115898355842,-0.0010944325476884842,0.0006874848622828722
1783174163417833500,3.51683349609375,-0.0012751480098813772,-0.00014152377843856812,0.002029805677011609
1783174163427902500,3.52690234375,0.0015725449193269014,0.0009313151240348816,-0.0027378255035728216
1783174163437971500,3.536971435546875,0.0022401995956897736,0.001345170196145773,0.000596718629822135
1783174163448039400,3.547039306640625,0.0007508736453019083,0.0004637562669813633,-0.0032733967527747154
1783174163458108400,3.5571083984375,-0.001065135933458805,0.0007079681381583214,-0.00048586586490273476
1783174163468177700,3.567177734375,-0.00019479222828522325,-0.000029770657420158386,-0.0002920094411820173
1783174163478245400,3.577245361328125,0.003311259439215064,0.002255221363157034,-0.0018483607564121485
1783174163488314400,3.587314453125,0.0008994144154712558,-0.00006228778511285782,0.00038556219078600407
1783174163498382600,3.597382568359375,0.00018542096950113773,-0.0004042377695441246,-0.0022552283480763435
1783174163508451600,3.60745166015625,-0.0007101402734406292,0.0006556147709488869,0.00044098938815295696
1783174163518520300,3.617520263671875,0.00009546591900289059,0.0010489635169506073,0.0009006509790197015
1783174163528588500,3.627588623046875,-0.0009882960002869368,0.00040551647543907166,-0.001946155447512865
1783174163538657500,3.637657470703125,-0.00025885627837851644,0.0004547848366200924,0.0019599031656980515
1783174163548726500,3.6477265625,0.0005556721007451415,-0.0008842293173074722,-0.0009264745749533176
1783174163558794500,3.65779443359375,0.000012919888831675053,-0.001975858584046364,0.0015742337564006448
1783174163568863500,3.667863525390625,0.0010080415522679687,-0.0018538786098361015,-0.001704934984445572
1783174163578931500,3.677931396484375,0.00019018480088561773,-0.0006147092208266258,0.0011310650734230876
1783174163589000400,3.68800048828125,0.00011331145651638508,-0.0014341110363602638,0.003745398251339793
1783174163599069400,3.6980693359375,-0.0004502134397625923,-0.0004705796018242836,0.001819666475057602
1783174163609137400,3.708137451171875,-0.00021662365179508924,0.0022035129368305206,0.0010276762768626213
1783174163619206400,3.718206298828125,-0.0006176956230774522,0.0006207963451743126,0.00008678133599460125
1783174163629275600,3.728275634765625,-0.002841424895450473,-0.0008496809750795364,-0.0027765226550400257
1783174163639343600,3.738343505859375,-0.0011162292212247849,-0.0022417157888412476,0.00029143900610506535
1783174163649412400,3.748412353515625,-0.00021894421661272645,0.0007069241255521774,0.002469051396474242
1783174163659480600,3.75848046875,0.0005733461584895849,0.000016633421182632446,-0.000533130019903183
1783174163669549600,3.768549560546875,0.0016484754160046577,0.0003030817024409771,0.0031835692934691906
1783174163679618300,3.778618408203125,-0.0005478333914652467,0.00027511827647686005,-0.0017965419683605433
1783174163689686500,3.7886865234375,-0.0018538583535701036,0.0014320253394544125,0.0005749547854065895
1783174163699755500,3.798755615234375,-0.0006999106844887137,0.0005294797010719776,0.0007296844851225615
1783174163709824500,3.808824462890625,-0.0018818022217601538,-0.000027739442884922028,0.003257855772972107
1783174163719892500,3.818892578125,0.0001890716957859695,-0.0036714766174554825,-0.0008282321505248547
1783174163729961500,3.82896142578125,0.0018071318045258522,0.0007820958271622658,-0.0031253742054104805
1783174163740029700,3.83902978515625,-0.000671738525852561,0.0027581611648201942,-0.0034217839129269123
1783174163750098400,3.849098388671875,0.0001558078220114112,-0.0014641843736171722,-0.0017513914499431849
1783174163760167400,3.85916748046875,0.0007965643308125436,-0.00018666591495275497,0.0005298720207065344
1783174163770235600,3.869235595703125,-0.0006277334177866578,-0.0005233660340309143,0.0020129361655563116
1783174163780304400,3.879304443359375,-0.0005944438744336367,-0.0006996672600507736,0.0019697928801178932
1783174163790373600,3.88937353515625,-0.0014571398496627808,0.002272489946335554,0.0007888718973845243
1783174163800441600,3.899441650390625,-0.0007769684307277203,-0.00004525948315858841,-0.0041307853534817696
1783174163810510300,3.90951025390625,-0.0013895633164793253,0.00010863086208701134,-0.0013506996911019087
1783174163820578600,3.91957861328125,0.001047761645168066,0.00016748672351241112,-0.00023616664111614227
1783174163830647600,3.9296474609375,0.0023548444733023643,-0.0018710708245635033,0.00007305177859961987
1783174163840716300,3.93971630859375,0.00001658918336033821,0.0005452148616313934,-0.0016095335595309734
1783174163850784500,3.949784423828125,-0.0016934794839471579,0.0012703100219368935,-0.0000337664969265461
1783174163860853500,3.959853515625,-0.0011536567471921444,0.00061783567070961,-0.0004398985765874386
1783174163870922500,3.969922607421875,-0.00011642696335911751,0.0009258701466023922,0.0023520488757640123
1783174163880990500,3.979990478515625,0.00036240945337340236,0.001248911488801241,-0.0009081927128136158
1783174163891059500,3.9900595703125,0.0004624880093615502,-0.0019998084753751755,-0.000694019952788949
1783174163901127700,4.000127685546875,-0.00014071795158088207,-0.0021332325413823128,0.0003371560014784336
1783174163911196400,4.010196533203125,0.0012976082507520914,-0.0005270456895232201,-0.0024793455377221107
1783174163921265400,4.020265380859375,0.0002712259301915765,0.0003075883723795414,0.0018344427226111293
1783174163931333600,4.030333740234375,-0.001234972383826971,0.0004516611807048321,0.0004314631223678589
1783174163941402400,4.04040234375,0.0005669223028235137,0.0008825608529150486,-0.002091349335387349
1783174163951471600,4.0504716796875,0.0007526600966230035,0.0003383648581802845,-0.001989133423194289
1783174163961539600,4.06053955078125,0.0013233755016699433,-0.0005191732197999954,0.0021331734023988247
1783174163971608300,4.0706083984375,0.00021359056700021029,-0.0025361059233546257,-0.0015304177068173885
1783174163981676500,4.080676513671875,0.0022993781603872776,0.0006897812709212303,-0.0049690911546349525
1783174163991745500,4.09074560546875,-0.0024160314351320267,-0.0014346679672598839,-0.0017818163614720106
1783174164001814300,4.100814208984375,0.00012995052384212613,0.0019901571795344353,-0.0030979502480477095
1783174164011882500,4.110882568359375,0.0008634851546958089,-0.0015071136876940727,0.0006480775773525238
1783174164021951500,4.120951416015625,0.0006925102206878364,0.002654874697327614,-0.0003902888856828213
1783174164032020500,4.1310205078125,-0.000020867446437478065,0.0007059276103973389,-0.0007754878606647253
1783174164042088400,4.14108837890625,-0.0004605553695000708,0.00005904585123062134,-0.00113421562127769
1783174164052157400,4.151157470703125,0.000978756113909185,-0.0007798401638865471,0.0011442452669143677
1783174164062225400,4.161225341796875,0.001678368542343378,0.0009224521927535534,-0.0018166571389883757
1783174164072294400,4.17129443359375,0.0031387326307594776,-0.0015967609360814095,-0.0017691736575216055
1783174164082363400,4.18136328125,-0.000854943529702723,0.0007287110202014446,-0.0020410825964063406
1783174164092431600,4.191431640625,-0.0006162588251754642,0.0014904625713825226,0.00044377357698976994
1783174164102499800,4.201499755859375,-0.0008362359367311001,0.002509121783077717,0.002187611535191536
1783174164112568800,4.21156884765625,0.0017310866387560964,0.0017254115082323551,-0.0003059485461562872
1783174164122636800,4.22163671875,0.0015417358372360468,-0.0013963459059596062,0.0018325697164982557
1783174164132705800,4.231705810546875,0.0005525164306163788,0.0018469719216227531,-0.0014836469199508429
1783174164142773800,4.241773681640625,0.0005714248400181532,0.0036139795556664467,-0.0013454288709908724
1783174164152842800,4.2518427734375,0.0013694664230570197,0.0014550215564668179,0.00028925342485308647
1783174164162911700,4.261911865234375,0.0012906368356198072,-0.002662225626409054,-0.0007978489156812429
1783174164172979700,4.271979736328125,-0.0014733357820659876,0.0008362852968275547,-0.00048665585927665234
1783174164183048700,4.282048583984375,0.0014058076776564121,0.001340688206255436,-0.0007577657233923674
1783174164193118000,4.292117919921875,0.0019273749785497785,-0.0007334565743803978,-0.0024110025260597467
1783174164203186000,4.30218603515625,-0.0012822668068110943,0.0013166447170078754,-0.0008815492037683725
1783174164213254700,4.312254638671875,-0.000848902971483767,-0.00039166491478681564,-0.0006074674893170595
1783174164223323000,4.322322998046875,0.0009311538888141513,0.0009204745292663574,-0.0007262444123625755
1783174164233391900,4.332391845703125,0.0022619497030973434,0.00011714594438672066,0.0009121457114815712
1783174164243460600,4.342460693359375,-0.0008912328630685806,-0.0012226905673742294,0.0031928769312798977
1783174164253528800,4.35252880859375,0.0011937408708035946,-0.001733623445034027,-0.0003935487475246191
1783174164263597800,4.362597900390625,-0.0016518465708941221,-0.003214874304831028,-0.0008739829063415527
1783174164273666800,4.372666748046875,-0.0014388093259185553,0.0007878104224801064,-0.00012411153875291348
1783174164283734800,4.38273486328125,0.0005433813203126192,-0.0002636052668094635,0.0017946959706023335
1783174164293803800,4.3928037109375,-0.00007424189243465662,0.0003413897939026356,-0.00012394972145557404
1783174164303871700,4.402871826171875,0.0005417473148554564,0.0005965204909443855,0.0017810093704611063
1783174164313940700,4.412940673828125,-0.0011503365822136402,-0.001233014278113842,-0.0008921576663851738
1783174164324009700,4.423009765625,-0.000025950022973120213,0.0011084368452429771,-0.0019105502869933844
1783174164334078000,4.433077880859375,-0.0004415721050463617,-0.0007628370076417923,-0.002462828066200018
1783174164344146700,4.443146728515625,-0.0017398630734533072,-0.001465379260480404,-0.00044734799303114414
1783174164354216000,4.4532158203125,-0.0019838763400912285,0.001748700626194477,0.00423094816505909
1783174164364284000,4.463283935546875,0.0008063173154368997,-0.00037463754415512085,-0.00045435107313096523
1783174164374352600,4.4733525390625,-0.003035275498405099,-0.002103915438055992,-0.001260140212252736
1783174164384420600,4.483420654296875,0.0010462850332260132,0.0004002545028924942,0.001201686100102961
1783174164394489900,4.49348974609375,0.00041305363993160427,-0.0008757570758461952,-0.0006734929047524929
1783174164404558600,4.50355859375,-0.0010183954145759344,0.0005479683168232441,-0.0006817486137151718
1783174164414626800,4.513626708984375,0.0020327260717749596,0.0019946442916989326,0.0031909870449453592
1783174164424695800,4.52369580078125,-0.00017263751942664385,0.001027383841574192,-0.0013566266279667616
1783174164434763800,4.533763671875,-0.0031403996981680393,-0.0014595277607440948,-0.00047026947140693665
1783174164444832800,4.543832763671875,-0.0018652778817340732,-0.00007282011210918427,-0.004325195215642452
1783174164454901800,4.55390185546875,0.00020533002680167556,-0.0007682852447032928,0.0011981083080172539
1783174164464969700,4.5639697265625,0.000032757234293967485,-0.001341131515800953,-0.0008778257761150599
1783174164475038700,4.574038818359375,0.0010957508347928524,-0.0005206475034356117,0.0008071644697338343
1783174164485107700,4.584107666015625,-0.0023903269320726395,0.0019004317000508308,0.0014748189132660627
1783174164495176000,4.594176025390625,-0.0005580747383646667,-0.0011094622313976288,-0.001157938502728939
1783174164505244700,4.60424462890625,-0.00006645527901127934,-0.0020391717553138733,0.001145163201726973
1783174164515314000,4.61431396484375,0.001105119357816875,-0.0019516926258802414,0.0013933016452938318
1783174164525382000,4.6243818359375,-0.0014986530877649784,-0.0007250411435961723,0.0009592063724994659
1783174164535450600,4.63445068359375,-0.0004801607574336231,-0.000659773126244545,0.0013992787571623921
1783174164545518600,4.6445185546875,0.0013166740536689758,0.0004225354641675949,0.002207281766459346
1783174164555587800,4.654587890625,-0.0009973724372684956,0.001033515203744173,-0.000721031567081809
1783174164565656600,4.664656494140625,-0.00016859674360603094,0.0008654696866869926,0.002144796075299382
1783174164575724800,4.674724853515625,0.0009105918579734862,0.00048597855493426323,-0.0011364868842065334
1783174164585793800,4.684793701171875,0.0016501516802236438,0.0002047489397227764,-0.0022369050420820713
1783174164595862800,4.69486279296875,0.0005698222084902227,0.0005718753673136234,-0.0018537284340709448
1783174164605930800,4.7049306640625,0.00038606408634223044,-0.0003210827708244324,0.0007103630341589451
1783174164615999700,4.714999755859375,0.00005815183976665139,0.0011735958978533745,-0.00002659647725522518
1783174164626067700,4.725067626953125,-0.00027580856112763286,-0.0012288419529795647,0.0004418536555022001
1783174164636136700,4.73513671875,0.0007751735392957926,-0.001077110879123211,0.0014023622497916222
1783174164646205700,4.745205810546875,0.0000638432102277875,0.0012627425603568554,-0.002392376074567437
1783174164656274000,4.75527392578125,0.0004164821875747293,-0.0016660615801811218,-0.0018839037511497736
1783174164666342700,4.7653427734375,0.001728887902572751,-0.0006095860153436661,0.0016932543367147446
1783174164676410600,4.77541064453125,-0.0017693552654236555,-0.0001818183809518814,0.0008625753689557314
1783174164686480000,4.78547998046875,-0.0011270008981227875,-0.001063058152794838,-0.0018631701823323965
1783174164696548600,4.795548583984375,0.0019519187044352293,0.00002288818359375,-0.0008963898289948702
1783174164706616600,4.805616455078125,0.0001412354176864028,0.00164848193526268,0.0008122941944748163
1783174164716685800,4.815685791015625,-0.001490103779360652,-0.00031520985066890717,-0.00003277393989264965
1783174164726754600,4.825754638671875,-0.0023708113003522158,0.0008115735836327076,0.0011672463733702898
1783174164736822800,4.83582275390625,0.0019823964685201645,-0.0006449902430176735,0.0008685817010700703
1783174164746891800,4.845891845703125,-0.0014096717350184917,-0.0021709809079766273,0.0005932108033448458
1783174164756960800,4.855960693359375,0.0014297361485660076,0.0005379803478717804,-0.0038907849229872227
1783174164767028700,4.86602880859375,0.0012515706475824118,-0.0005797483026981354,0.00016467669047415257
1783174164777097700,4.87609765625,0.00023222481831908226,0.0009480835869908333,0.0010718144476413727
1783174164787165700,4.886165771484375,-0.00013822084292769432,-0.0018953736871480942,0.0018182984786108136
1783174164797234700,4.896234619140625,0.0008598053245805204,0.0013207667507231236,-0.0014588010963052511
1783174164807303700,4.9063037109375,0.0002539361594244838,0.0007127672433853149,0.0005596086848527193
1783174164817372000,4.916371826171875,-0.0005259422468952835,0.0018573980778455734,-0.0007418384775519371
1783174164827440600,4.926440673828125,0.001905790064483881,0.0006933305412530899,-0.000646230997517705
1783174164837509600,4.936509521484375,0.003309314139187336,-0.0003807004541158676,-0.0023878118954598904
1783174164847577900,4.946577880859375,0.0011028852313756943,-0.0010369038209319115,-0.0018487884663045406
1783174164857646600,4.956646484375,-0.002499682130292058,0.0008510970510542393,0.002345895394682884
1783174164867714600,4.966714599609375,0.0012764140265062451,0.00021513411775231361,0.0004854109138250351
1783174164877783800,4.97678369140625,0.00037492194678634405,-0.0007876958698034286,-0.0028869982343167067
1783174164887852500,4.9868525390625,0.001642853021621704,0.0035085156559944153,-0.003333077533170581
1783174164897920800,4.996920654296875,-0.000769506732467562,-0.0002967389300465584,-0.0015972324181348085
1783174164907989800,5.00698974609375,0.001181791303679347,0.00024947477504611015,-0.001392168691381812
1783174164918058800,5.017058837890625,-0.001067941077053547,-0.0006264280527830124,0.000777537003159523
1783174164928126700,5.027126708984375,-0.0006490259547717869,-0.00043973978608846664,-0.0006555099971592426
1783174164938195700,5.03719580078125,0.0009680631337687373,0.00027835462242364883,-0.0012768835294991732
1783174164948263700,5.047263671875,-0.0028927214443683624,-0.0015523023903369904,0.0011204940965399146
1783174164958332700,5.057332763671875,-0.0002663778723217547,0.000923908781260252,-0.00018321792595088482
1783174164968401700,5.067401611328125,0.0012084806803613901,0.0005372180603444576,0.0014421092346310616
1783174164978470000,5.077469970703125,-0.0005042111151851714,-0.0004296153783798218,-0.0011582558508962393
1783174164988538600,5.08753857421875,0.0013219183310866356,0.00013444246724247932,-0.001764124957844615
1783174164998607600,5.097607666015625,0.00119716115295887,-0.0008308468386530876,0.0021112931426614523
1783174165008675800,5.10767578125,-0.0027648236136883497,-0.0026686936616897583,-0.00007516215555369854
1783174165018744800,5.117744873046875,0.0020578266121447086,0.0016528735868632793,0.00028403056785464287
1783174165028812500,5.1278125,0.0026325369253754616,0.0026707337237894535,-0.0017921696417033672
1783174165038881800,5.1378818359375,0.0020634853281080723,0.0005026757717132568,-0.00030453456565737724
1783174165048950800,5.14795068359375,-0.0007032726425677538,0.00004967208951711655,-0.0006957529112696648
1783174165059018800,5.158018798828125,-0.0003843732993118465,-0.0005361773073673248,-0.002326792338863015
1783174165069087700,5.168087646484375,0.0005858162185177207,0.00132803525775671,0.0011353170266374946
1783174165079156700,5.17815673828125,0.000811836973298341,0.001627093181014061,0.0003166899550706148
1783174165089224700,5.188224609375,0.0011412699241191149,-0.0006893249228596687,0.000012024305760860443
1783174165099293700,5.198293701171875,0.00021558289881795645,0.001006757840514183,-0.0014077257364988327
1783174165109361700,5.208361572265625,-0.00046645267866551876,0.0006594816222786903,0.0022650398313999176
1783174165119430700,5.2184306640625,0.0013742742594331503,0.0009009102359414101,0.0006037065759301186
1783174165129499600,5.228499755859375,-0.0013820973690599203,-0.0020378874614834785,0.0005150232464075089
1783174165139567600,5.238567626953125,0.00011549156624823809,0.001811683177947998,0.0028784212190657854
1783174165149636900,5.248636962890625,-0.0006453735986724496,-0.0033686980605125427,0.002374018542468548
1783174165159705600,5.25870556640625,0.0015437668189406395,-0.00010062381625175476,-0.0009907251223921776
1783174165169773600,5.268773681640625,-0.0008355012396350503,0.0000394587405025959,0.0010061131324619055
1783174165179842800,5.2788427734375,-0.00030053284717723727,0.0005094977095723152,0.0006555246654897928
1783174165189910500,5.28891064453125,-0.002007619012147188,-0.002916925586760044,-0.0014941790141165257
1783174165199979500,5.2989794921875,-0.0006691594608128071,-0.0003857538104057312,0.0021628919057548046
1783174165210048800,5.309048828125,0.0004965061089023948,-0.0009119939059019089,-0.0003620509523898363
1783174165220116700,5.31911669921875,-0.0016614608466625214,0.000364737119525671,0.0003279326483607292
1783174165230185500,5.329185546875,-0.002502753399312496,-0.00042808614671230316,0.0010081040672957897
1783174165240253700,5.339253662109375,-0.002388495020568371,0.00012677302584052086,0.0010988607537001371
1783174165250322700,5.34932275390625,0.0003100860631093383,0.0005765813402831554,0.0011177691631019115
1783174165260391700,5.3593916015625,0.00002564716851338744,-0.0014739437028765678,0.0006735476199537516
1783174165270459600,5.369459716796875,0.0007785228081047535,-0.0012904517352581024,-0.0007158236112445593
1783174165280528600,5.379528564453125,-0.0004504459211602807,0.0011378857307136059,0.0022018705494701862
1783174165290597600,5.38959765625,0.003049480263143778,0.0010529309511184692,0.00029504718258976936
1783174165300665600,5.39966552734375,-0.0012975127901881933,0.00011192262172698975,0.00089661730453372
1783174165310734600,5.409734619140625,-0.0010980418883264065,-0.00032483600080013275,0.0030881324782967567
1783174165320803600,5.419803466796875,-0.0007396549335680902,-0.0020939242094755173,-0.00028423569165170193
1783174165330871600,5.42987158203125,0.0012057842686772346,0.0007948065176606178,0.001132566132582724
1783174165340940800,5.43994091796875,0.000002537621185183525,0.0012074788101017475,-0.0009131324477493763
1783174165351008800,5.4500087890625,0.0009586124215275049,-0.0009733838960528374,0.00008288980461657047
1783174165361077500,5.460077392578125,0.0012586902594193816,-0.0006851991638541222,-0.0010463776998221874
1783174165371146800,5.470146728515625,-0.0003485275083221495,-0.00004897080361843109,0.002158470219001174
1783174165381214700,5.480214599609375,-0.00036465917946770787,0.0018230774439871311,0.0012726549757644534
1783174165391283500,5.490283447265625,-0.000525514071341604,-0.0004017278552055359,-0.00041818595491349697
1783174165401352700,5.500352783203125,0.0013720972929149866,-0.000566486269235611,-0.00007328903302550316
1783174165411420700,5.510420654296875,0.0007984523545019329,-0.00005409400910139084,-0.001127634197473526
1783174165421489700,5.52048974609375,0.0001568071893416345,-0.0007526464760303497,0.0003658521454781294
1783174165431557600,5.5305576171875,-0.00025065644877031446,0.000906769186258316,0.0010899655753746629
1783174165441626600,5.540626708984375,-0.0024392108898609877,-0.003541930578649044,0.000707642175257206
1783174165451695600,5.550695556640625,0.00031742709688842297,-0.0011562714353203773,-0.0017896040808409452
1783174165461763600,5.560763671875,0.0020882156677544117,-0.0021735355257987976,0.002089486923068762
1783174165471832600,5.57083251953125,-0.0019688440952450037,0.001757290679961443,0.0008348717819899321
1783174165481901600,5.580901611328125,-0.00023394328309223056,-0.0030252477154135704,-0.000517294742166996
1783174165491969500,5.590969482421875,-0.00158603023737669,0.0003204816021025181,0.0013932570582255721
1783174165502038800,5.601038818359375,-0.0026006337720900774,0.0006942925974726677,0.001077334745787084
1783174165512106800,5.611106689453125,0.0013685413869097829,-0.00148790143430233,-0.00004199193790555
1783174165522175500,5.621175537109375,0.0011731325648725033,0.0009032036177814007,-0.002505688462406397
1783174165532244700,5.63124462890625,0.00011212925892323256,-0.00042091961950063705,0.0012499012518674135
1783174165542312700,5.641312744140625,0.00046271036262623966,0.0026780557818710804,0.00008621928282082081
1783174165552381400,5.65138134765625,0.0012733766343444586,-0.0004359781742095947,0.00046385545283555984
1783174165562450700,5.66145068359375,0.0027598440647125244,-0.0013275891542434692,-0.0015964577905833721
1783174165572518700,5.6715185546875,0.0006389025365933776,-0.0005989484488964081,0.003834260394796729
1783174165582587600,5.681587646484375,-0.0006164961960166693,-0.000630183145403862,-0.001120888628065586
1783174165592655600,5.691655517578125,0.000031184637919068336,-0.002314632758498192,-0.0005192807875573635
1783174165602724600,5.701724609375,0.0004429999680723995,0.0005057696253061295,-0.0009659172501415014
1783174165612793600,5.711793701171875,-0.0003439641441218555,-0.0026170527562499046,-0.0014660588931292295
1783174165622861600,5.721861572265625,0.0005368361016735435,-0.0008332254365086555,-0.0012771589681506157
1783174165632930600,5.7319306640625,-0.001181169180199504,-0.0005653118714690208,0.0014773487346246839
1783174165642999600,5.74199951171875,-0.0016441832995042205,-0.0002557765692472458,0.0008720508776605129
1783174165653067500,5.752067626953125,-0.0011797280749306083,-0.003000163473188877,-0.0016465005464851856
1783174165663136800,5.76213671875,0.00041508645517751575,0.0003989958204329014,0.0025329869240522385
1783174165673204700,5.772204833984375,-0.0016496622702106833,0.0016930256970226765,-0.0026444646064192057
1783174165683273500,5.7822734375,0.0013073842274025083,-0.0011977395042777061,0.00445835804566741
1783174165693342700,5.7923427734375,-0.0017472614999860525,0.0021823449060320854,-0.00029937922954559326
1783174165703410700,5.80241064453125,0.0004422438214533031,-0.0006923526525497437,-0.001979030668735504
1783174165713479400,5.8124794921875,0.001412167097441852,0.0024270080029964447,0.0003499037120491266
1783174165723548700,5.822548583984375,0.00031846517231315374,0.0007797111757099628,-0.0016662562265992165
1783174165733616600,5.83261669921875,0.0006622792570851743,0.0014476319774985313,-0.001530434936285019
1783174165743685600,5.842685546875,0.0014577106339856982,-0.00004460476338863373,-0.0008053886704146862
1783174165753753600,5.852753662109375,-0.0003798705292865634,-0.0029205521568655968,-0.0007433369755744934
1783174165763822600,5.862822509765625,0.00007196207297965884,-0.00034527573734521866,-0.00415336899459362
1783174165773891600,5.8728916015625,0.0012181865749880672,0.0009010834619402885,-0.00022627133876085281
1783174165783959600,5.88295947265625,-0.00004485814133659005,0.002018221653997898,-0.00018854252994060516
1783174165794028500,5.893028564453125,-0.0016185198910534382,0.0015321946702897549,0.0006394342053681612
1783174165804097500,5.90309765625,0.00019163248362019658,0.0010639363899827003,-0.0009943214245140553
1783174165814165500,5.91316552734375,-0.000738343398552388,-0.00029028113931417465,-0.0006105599459260702
1783174165824234800,5.92323486328125,0.0030624233186244965,-0.002177027054131031,0.0005299216136336327
1783174165834302700,5.933302734375,-0.0012273966567590833,0.00016682082787156105,-0.0011196404229849577
1783174165844371500,5.943371337890625,-0.0016717552207410336,0.0000913785770535469,0.0006460561417043209
1783174165854440700,5.953440673828125,0.001661457121372223,0.0008823378011584282,-0.0007409180980175734
1783174165864508700,5.9635087890625,0.0006211302825249732,-0.0008018659427762032,0.0006503593176603317
1783174165874577400,5.973577392578125,0.0005335122696124017,0.0002839048393070698,-0.0008053244091570377
1783174165884646700,5.983646728515625,-0.0005303809884935617,0.000056329648941755295,0.0012906495248898864
1783174165894714600,5.993714599609375,-0.001857700408436358,0.0010065454989671707,0.0006213970482349396
1783174165904783600,6.00378369140625,0.00008626014459878206,-0.0002654530107975006,-0.0019592810422182083
1783174165914851600,6.0138515625,0.0002005097339861095,0.0002802284434437752,0.0018402510322630405
1783174165924920600,6.023920654296875,0.00017610902432352304,-0.0010820357128977776,-0.0004370624665170908
1783174165934989600,6.033989501953125,0.0005351031431928277,-0.00016457680612802505,-0.0019638524390757084
1783174165945057500,6.0440576171875,0.00010150042362511158,-0.0006601056084036827,0.0019334445241838694
1783174165955126500,6.05412646484375,-0.000861232343595475,-0.0009796852245926857,0.001396817504428327
1783174165965195800,6.06419580078125,-0.0001190042239613831,0.0004727225750684738,-0.00175315304659307
1783174165975263500,6.074263427734375,0.00000802858266979456,0.00037418538704514503,0.0028048469685018063
1783174165985332700,6.084332763671875,-0.0022298255935311317,-0.0002095792442560196,-0.001987511059269309
1783174165995400700,6.094400634765625,-0.0001243337756022811,-0.00012681540101766586,-0.003098689252510667
1783174166005469400,6.104469482421875,0.001568811945617199,-0.0011295126751065254,0.00045314920134842396
1783174166015538700,6.11453857421875,-0.0009231078438460827,0.0009626671671867371,0.0010947047267109156
1783174166025606700,6.124606689453125,0.0019140588119626045,-0.0008676107972860336,0.001068589510396123
1783174166035675600,6.134675537109375,-0.0007815927383489907,-0.0011576293036341667,0.0006209122948348522
1783174166045744600,6.14474462890625,0.0011687815422192216,0.0024310583248734474,-0.0009580943733453751
1783174166055812600,6.1548125,0.00016503618098795414,-0.0011314526200294495,-0.0012806029990315437
1783174166065881900,6.1648818359375,0.0005964550655335188,-0.002050338312983513,0.0020673125982284546
1783174166075949600,6.174949462890625,0.0006169613916426897,0.0022541284561157227,0.001800463767722249
1783174166086018600,6.1850185546875,-0.0007602402474731207,0.001615104265511036,-0.00010744272731244564
1783174166096088300,6.19508837890625,-0.00012560893082991242,-0.0018539298325777054,-0.000546065391972661
1783174166106156300,6.20515625,-0.0003483931068331003,-0.000955045223236084,0.002548610558733344
1783174166116225300,6.215225341796875,0.0019392622634768486,0.00020529376342892647,-0.001389405457302928
1783174166126294300,6.225294189453125,0.0013397440779954195,0.0005373968742787838,0.002011885866522789
1783174166136362200,6.2353623046875,0.0010902059730142355,-0.0003819260746240616,-0.0006976143922656775
1783174166146431500,6.245431396484375,0.0022349439095705748,-0.0025592120364308357,-0.0011974917724728584
1783174166156499500,6.25549951171875,-0.0008599155116826296,-0.00048434268683195114,0.0015889736823737621
1783174166166568200,6.265568115234375,0.0005376655608415604,-0.000835648737847805,-0.00005042855627834797
1783174166176637400,6.275637451171875,0.001806928077712655,-0.0002420293167233467,0.0005674248095601797
1783174166186705400,6.285705322265625,0.0007525015971623361,0.001328729558736086,0.0010028894757851958
1783174166196774100,6.295774169921875,-0.0002903923159465194,0.002354845404624939,-0.0025108852423727512
1783174166206843400,6.305843505859375,0.00025208492297679186,-0.0020165136083960533,-0.002054391661658883
1783174166216911400,6.315911376953125,0.0009833889780566096,-0.0020229052752256393,-0.0012075065169483423
1783174166226980400,6.32598046875,0.002027303446084261,0.0003459942527115345,0.0021387902088463306
1783174166237048300,6.33604833984375,0.000724218669347465,0.00019978638738393784,0.0008879033848643303
1783174166247117300,6.346117431640625,-0.0005867471918463707,0.0006263335235416889,0.00040646945126354694
1783174166257186300,6.356186279296875,0.0009933062829077244,0.0003341846168041229,-0.0013413634151220322
1783174166267254300,6.366254150390625,0.00048911600606516,0.0003892569802701473,-0.0019831163808703423
1783174166277323300,6.3763232421875,0.0007048320258036256,-0.0006941165775060654,0.0008779176278039813
1783174166287392300,6.386392333984375,0.0008817424532026052,-0.00037566665560007095,-0.0002206619828939438
1783174166297460200,6.396460205078125,0.0012306165881454945,0.00010237051174044609,0.0003487218637019396
1783174166307529500,6.406529541015625,0.0005324256489984691,-0.00022176839411258698,-0.0013750747311860323
1783174166317597400,6.416597412109375,0.0006458763382397592,0.00041499314829707146,0.001723779714666307
1783174166327666200,6.426666259765625,0.0013911384157836437,0.0006897947750985622,0.0035321477334946394
1783174166337735400,6.4367353515625,0.0005658247973769903,0.0005611637607216835,-0.0008791121654212475
1783174166347803400,6.446803466796875,0.002342281863093376,-0.0008241757750511169,-0.0005936699453741312
1783174166357872000,6.4568720703125,0.0020485350396484137,0.0037881527096033096,0.0015280705410987139
1783174166367941400,6.46694140625,-0.0024631847627460957,-0.0019509084522724152,0.0006516014691442251
1783174166378009300,6.47700927734375,0.0005682914052158594,0.0015346365980803967,0.00021750619634985924
1783174166388078300,6.487078369140625,0.0004599080712068826,-0.0006932010874152184,0.00016260589472949505
1783174166398146300,6.497146240234375,0.001101996167562902,-0.000400518998503685,0.001757306745275855
1783174166408215300,6.50721533203125,-0.0020018485374748707,-0.0007906267419457436,0.001509627909399569
1783174166418284500,6.517284423828125,0.0009737014770507812,0.0001518656499683857,-0.001111455261707306
1783174166428352300,6.527352294921875,0.0006788700120523572,0.0016167941503226757,0.001429242198355496
1783174166438421200,6.537421142578125,-0.0006543084746226668,-0.0009145410731434822,0.0003653094172477722
1783174166448490500,6.547490478515625,-0.00033250125125050545,-0.0007308349013328552,-0.002583869267255068
1783174166458558200,6.55755810546875,0.0012206542305648327,-0.000038146041333675385,-0.00001125573180615902
1783174166468627500,6.56762744140625,-0.0003114971914328635,0.0019622445106506348,0.001110468409024179
1783174166478696400,6.577696533203125,-0.000060361053328961134,-0.0009054476395249367,0.00004174187779426575
1783174166488764200,6.58776416015625,-0.0008933424251154065,0.0005065109580755234,-0.0004009571857750416
1783174166498833400,6.59783349609375,0.0022001853212714195,-0.0030349604785442352,-0.0017059061210602522
1783174166508901400,6.6079013671875,-0.00017149338964372873,0.0023998944088816643,-0.0004944205284118652
1783174166518970400,6.617970458984375,-0.0023877760395407677,0.0005202353931963444,-0.000979115953668952
1783174166529039400,6.628039306640625,-0.0038491233717650175,0.000029673799872398376,0.0008904397254809737
1783174166539107300,6.638107421875,-0.000901003775652498,-0.00005501508712768555,0.0011178737040609121
1783174166549176300,6.64817626953125,-0.0003737278748303652,0.00030960841104388237,-0.0007273554801940918
1783174166559245300,6.658245361328125,-0.0005396428750827909,0.000963414553552866,0.0025584527757018805
1783174166569313300,6.668313232421875,-0.0001528545981273055,-0.0031294971704483032,0.0008287123637273908
1783174166579382500,6.678382568359375,-0.0004284917376935482,-0.0020533138886094093,-0.0019638785161077976
1783174166589450200,6.6884501953125,0.00012100697495043278,-0.0002896813675761223,0.0013498725602403283
1783174166599519200,6.698519287109375,-0.0010827418882399797,-0.00045426469296216965,0.0022183293476700783
1783174166609588500,6.70858837890625,0.0011706110090017319,-0.00009619258344173431,0.00025396933779120445
1783174166619656400,6.718656494140625,0.0003269215230830014,0.0019456525333225727,-0.0028576680924743414
1783174166629725200,6.72872509765625,0.0012652851874008775,-0.0006731776520609856,-0.003413367783650756
1783174166639794400,6.73879443359375,0.0017723510973155499,-0.000758931040763855,0.0004620642866939306
1783174166649862400,6.7488623046875,0.0013025251682847738,0.0023137591779232025,-0.00023253192193806171
1783174166659931400,6.758931396484375,0.0012074504047632217,0.0028437282890081406,0.00036827707663178444
1783174166669999400,6.768999267578125,-0.0004939480568282306,-0.0010395953431725502,0.0021420037373900414
1783174166680068400,6.779068359375,0.0012352423509582877,0.0005636280402541161,-0.00311587518081069
1783174166690137300,6.789137451171875,0.0009241346269845963,-0.000014345161616802216,0.0018362938426434994
1783174166700205300,6.799205322265625,-0.00012009084457531571,-0.001040993258357048,-0.0004444373771548271
1783174166710274300,6.8092744140625,-0.0023083495907485485,-0.000575849786400795,0.000712075736373663
1783174166720343300,6.81934326171875,0.0011188723146915436,0.000178623478859663,0.0001418928150087595
1783174166730411300,6.829411376953125,0.0011687621008604765,-0.002343844622373581,-0.004115966148674488
1783174166740480500,6.83948046875,-0.0025849633384495974,-0.0013193264603614807,0.0008913092315196991
1783174166750548500,6.849548583984375,0.00032426149118691683,0.0004351288080215454,-0.00025163195095956326
1783174166760617200,6.8596171875,-0.0011002634419128299,-0.00009297579526901245,0.0018362861592322588
1783174166770686500,6.8696865234375,0.0006914942059665918,-0.0007462659850716591,0.0014111644122749567
1783174166780754400,6.87975439453125,-0.00007736042607575655,0.0011837268248200417,-0.0011779607739299536
1783174166790823200,6.8898232421875,-0.0005097489920444787,-0.0012141745537519455,0.0005480912514030933
1783174166800892400,6.899892333984375,-0.00055502267787233,-0.0012479964643716812,0.0005813806783407927
1783174166810960400,6.90996044921875,0.0002492982894182205,0.0008499720133841038,-0.0033923627343028784
1783174166821029400,6.920029296875,0.0008727443055249751,-0.0019402215257287025,-0.001981420209631324
1783174166831097300,6.930097412109375,-0.00007334124529734254,0.0017443117685616016,0.0014483282575383782
1783174166841166300,6.940166259765625,0.0023330911062657833,0.0022484478540718555,-0.0003434463869780302
1783174166851235300,6.9502353515625,0.001913759857416153,0.0009696995839476585,-0.0027986092027276754
1783174166861303300,6.96030322265625,-0.0014527419116348028,0.0001150909811258316,-0.0020143084693700075
1783174166871372300,6.970372314453125,-0.0027978268917649984,-0.0017661917954683304,-0.0013261204585433006
1783174166881441300,6.980441162109375,-0.0005791474250145257,-0.0004180995747447014,0.00134849245660007
1783174166891509200,6.99050927734375,0.0025020912289619446,-0.0011332863941788673,-0.0019110818393528461
1783174166901578500,7.00057861328125,0.0018408282194286585,0.0019213594496250153,-0.0013512852601706982
1783174166911646500,7.010646484375,0.00039425259456038475,0.0003364202566444874,-0.0020518035162240267
1783174166921715200,7.020715087890625,-0.0017397382762283087,0.002038978971540928,0.00003371806815266609
1783174166931784400,7.030784423828125,-0.0008313172147609293,0.0006162370555102825,0.0003386011812835932
1783174166941852400,7.040852294921875,0.0010757724521681666,0.0006386074237525463,0.0000914598349481821
1783174166951921200,7.050921142578125,0.0022168331779539585,-0.0010403823107481003,0.0003736012149602175
1783174166961990400,7.060990478515625,-0.0003893363173119724,-0.0017642294988036156,0.0011717507150024176
1783174166972058400,7.071058349609375,-0.0017103023128584027,0.0009973188862204552,0.0003539698664098978
1783174166982127400,7.08112744140625,-0.0002737932372838259,-0.0017217686399817467,-0.0009416581597179174
1783174166992195300,7.0911953125,0.0022466632071882486,-0.0007200837135314941,-0.0020814405288547277
1783174167002264300,7.101264404296875,0.0009249363210983574,-0.0022996049374341965,0.0002152693923562765
1783174167012333300,7.111333251953125,0.001546934712678194,0.0000918954610824585,-0.0011314451694488525
1783174167022401300,7.1214013671875,0.00027341104578226805,-0.001349407248198986,-0.00016178819350898266
1783174167032470300,7.13147021484375,-0.0006483726319856942,-0.0007220609113574028,0.0005415256600826979
1783174167042539300,7.141539306640625,0.0005005149869248271,0.0013093985617160797,-0.0009913898538798094
1783174167052607200,7.151607177734375,-0.0002924895379692316,0.0004906142130494118,-0.00035581691190600395
1783174167062676500,7.161676513671875,-0.0006647993577644229,-0.0009019523859024048,0.0011776312021538615
1783174167072744400,7.171744384765625,-0.0016603420954197645,-0.0019551031291484833,0.0007817931473255157
1783174167082813200,7.181813232421875,-0.0013338385615497828,-0.0007652025669813156,0.00021826825104653835
1783174167092882400,7.19188232421875,-0.000987507519312203,-0.00044659897685050964,-0.0017700933385640383
1783174167102949600,7.20194970703125,0.00007056636968627572,-0.00001490022987127304,-0.0007506355177611113
1783174167113018600,7.2120185546875,-0.0002043426502496004,0.001103176735341549,-0.0004360529128462076
1783174167123087600,7.222087646484375,-0.001146302674897015,0.001838209107518196,-0.002869915682822466
1783174167133155600,7.232155517578125,-0.0006095156422816217,0.0010421988554298878,0.0006090693641453981
1783174167143224600,7.242224609375,-0.0005882103578187525,-0.00017806142568588257,-0.0004375530406832695
1783174167153293600,7.25229345703125,0.00222978787496686,-0.001403692178428173,-0.0012574635911732912
1783174167163361500,7.262361572265625,0.0008673146949149668,-0.001309150829911232,-0.0011679811868816614
1783174167173430800,7.2724306640625,0.00008488871389999986,0.0030602184124290943,-0.0001879851333796978
1783174167183498500,7.28249853515625,0.0003408184857107699,0.0006524543277919292,-0.0001344557385891676
1783174167193567500,7.2925673828125,-0.0005508675239980221,-0.00013272371143102646,0.0012813092907890677
1783174167203636700,7.30263671875,-0.00017935654614120722,-0.00006241630762815475,0.0013899663463234901
1783174167213704700,7.31270458984375,0.0029747379012405872,-0.000286247581243515,-0.0016196125652641058
1783174167223773400,7.3227734375,-0.0017864613328129053,0.00004504900425672531,0.001162325614131987
1783174167233842700,7.3328427734375,-0.002955817384645343,0.00043642614036798477,0.001913563348352909
1783174167243910700,7.34291064453125,0.0001659401459619403,-0.0003603911027312279,-0.0016974168829619884
1783174167253979600,7.352979736328125,-0.0016489329282194376,0.0014235968701541424,-0.0006830589845776558
1783174167264047600,7.363047607421875,-0.00003452465170994401,0.0009588752873241901,0.0011412063613533974
1783174167274116600,7.37311669921875,0.00037508358946070075,-0.000860295258462429,0.0006731664761900902
1783174167284185600,7.383185546875,0.0005615048576146364,0.00004651118069887161,0.0009839574340730906
1783174167294253600,7.393253662109375,-0.000030190974939614534,0.00047486787661910057,-0.0002707631792873144
1783174167304322600,7.403322509765625,-0.0021002660505473614,0.0002093506045639515,0.00011859089136123657
1783174167314391600,7.4133916015625,-0.002625756897032261,-0.0016075922176241875,0.0009555543074384332
1783174167324459500,7.42345947265625,-0.0009993644198402762,0.0016641011461615562,-0.00001649954356253147
1783174167334528800,7.43352880859375,0.001928197219967842,0.0018749488517642021,-0.001302806893363595
1783174167344596700,7.4435966796875,0.0010687950998544693,0.0009210044518113136,0.002385138301178813
1783174167354665500,7.45366552734375,0.0012979073217138648,-0.0019408660009503365,0.00035721389576792717
1783174167364734700,7.463734619140625,0.0002606061170808971,0.000060498714447021484,-0.00002521602436900139
1783174167374802700,7.473802734375,0.0015550071839243174,0.002935513388365507,-0.0027930408250540495
1783174167384871400,7.483871337890625,-0.0007912377477623522,-0.0017625689506530762,0.0013681481359526515
1783174167394940700,7.493940673828125,-0.0005724206566810608,-0.0007183300331234932,-0.00032800878398120403
1783174167405008600,7.504008544921875,-0.00044565415009856224,-0.0006352392956614494,0.005320022813975811
1783174167415077600,7.51407763671875,0.0007034317823126912,0.0016343304887413979,0.00070595508441329
1783174167425145600,7.5241455078125,-0.002450549742206931,0.0012372531928122044,-0.002019524108618498
1783174167435214600,7.534214599609375,-0.001491280272603035,-0.0005699675530195236,0.0009293023031204939
1783174167445283600,7.54428369140625,-0.00009738182416185737,-0.0009441422298550606,0.0005684441421180964
1783174167455351600,7.5543515625,-0.0004713553353212774,0.0004470362327992916,-0.00048221065662801266
1783174167465420500,7.564420654296875,0.000826935691293329,0.00009629782289266586,-0.003033785382285714
1783174167475489500,7.574489501953125,0.00008498498937115073,0.00039696553722023964,0.00028698029927909374
1783174167485557500,7.5845576171875,-0.0001895869500003755,-0.00025870464742183685,-0.0007694957312196493
1783174167495626800,7.594626708984375,-0.0009787107119336724,-0.001147477887570858,-0.002045766683295369
1783174167505694700,7.60469482421875,0.0016959018539637327,-0.0017173942178487778,-0.00047902902588248253
1783174167515763500,7.614763427734375,-0.00023294036509469151,0.0012668631970882416,-0.0009631484281271696
1783174167525832700,7.624832763671875,-0.0024124712217599154,0.0013968255370855331,0.0008169084321707487
1783174167535900700,7.634900634765625,-0.001302656251937151,0.0006206282414495945,0.0011750718113034964
1783174167545969400,7.644969482421875,-0.00233622919768095,-0.0008094888180494308,0.0013298015110194683
1783174167556038700,7.65503857421875,-0.00013418617891147733,0.0009313672780990601,-0.0012240845244377851
1783174167566106600,7.665106689453125,0.00004078354686498642,-0.00031099747866392136,0.0012880753492936492
1783174167576175600,7.675175537109375,-0.0004833435523323715,0.0003855489194393158,-0.0023000941146165133
1783174167586243600,7.68524365234375,-0.0002316748141311109,0.0005000652745366096,-0.00008540949784219265
1783174167596312600,7.6953125,0.0007237217505462468,0.00044740503653883934,0.0009761963738128543
1783174167606381600,7.705381591796875,0.000018516730051487684,0.0007704468443989754,0.003224969608709216
1783174167616449500,7.715449462890625,0.001592935062944889,-0.0007752068340778351,-0.00028665410354733467
1783174167626518500,7.7255185546875,-0.0004089631838724017,0.00013559404760599136,-0.0007468482945114374
1783174167636587500,7.73558740234375,-0.002618480706587434,-0.0007763104513287544,0.0007467295508831739
1783174167646655500,7.745655517578125,-0.00029274215921759605,0.000971522182226181,0.000302780419588089
1783174167656724700,7.755724853515625,0.0010527881095185876,0.0007944968529045582,0.0003323161508888006
1783174167666792700,7.765792724609375,-0.0013334043323993683,-0.0017134016379714012,0.00008490844629704952
1783174167676861400,7.775861328125,-0.000540475535672158,-0.00009808782488107681,-0.002555091865360737
1783174167686930700,7.7859306640625,0.00047046045074239373,-0.001104762777686119,0.000453215092420578
1783174167696998700,7.79599853515625,0.0013056271709501743,-0.0007416494190692902,-0.0003395604435354471
1783174167707067400,7.8060673828125,-0.001555406954139471,-0.0003227340057492256,-0.000895095756277442
1783174167717136600,7.81613671875,0.00001359620364382863,0.003558938857167959,-0.0018797640223056078
1783174167727204600,7.82620458984375,0.0017454498447477818,-0.00013166945427656174,0.002407126361504197
1783174167737273600,7.836273681640625,0.0007492389995604753,0.0007938966155052185,-0.002358329016715288
1783174167747342600,7.846342529296875,-0.0013863500207662582,0.0004942910745739937,0.00015036854892969131
1783174167757410600,7.85641064453125,-0.0005826441920362413,-0.0020983051508665085,-0.0017189392820000648
1783174167767479600,7.8664794921875,-0.000908615009393543,0.0008506132289767265,-0.001999370288103819
1783174167777547500,7.876547607421875,-0.0013849034439772367,0.0004906905815005302,-0.0004610458854585886
1783174167787616500,7.886616455078125,0.000037490855902433395,-0.0004089251160621643,0.0002516161184757948
1783174167797685500,7.896685546875,-0.0019068061374127865,-0.0006220778450369835,-0.0021090684458613396
1783174167807753500,7.90675341796875,0.00008763512596487999,0.00014917412772774696,0.001099508022889495
1783174167817822700,7.91682275390625,-0.0009870936628431082,-0.0002224082127213478,0.0005846570711582899
1783174167827891700,7.9268916015625,-0.0012483499012887478,-0.0008836705237627029,0.0021436717361211777
1783174167837959400,7.93695947265625,0.0015685828402638435,0.0016868719831109047,-0.001755707198753953
1783174167848028700,7.947028564453125,-0.0018724877154454589,-0.001627698540687561,0.001801743172109127
1783174167858096600,7.9570966796875,0.0007941718213260174,0.0016251597553491592,-0.0005076425150036812
1783174167868165400,7.967165283203125,0.0008367823902517557,-0.0029831742867827415,-0.00008446606807410717
1783174167878234600,7.977234619140625,-0.0010791784152388573,0.0009006103500723839,0.00023905187845230103
1783174167888302600,7.987302490234375,-0.002298107137903571,-0.0021298001520335674,0.002486493671312928
1783174167898371600,7.99737158203125,0.00333583727478981,-0.0021864273585379124,-0.0002387284766882658
1783174167908440600,8.007440673828125,-0.0008783488301560283,0.0018634418956935406,-0.002545292256399989
1783174167918508500,8.017508544921874,-0.0008070250041782856,-0.0009583719074726105,-0.0024833218194544315
1783174167928577500,8.02757763671875,-0.0014693532139062881,-0.0016305530443787575,0.0002224501222372055
1783174167938645500,8.0376455078125,-0.0011265454813838005,-0.00023894570767879486,-0.00025431765243411064
1783174167948714500,8.047714599609375,-0.0003499675658531487,-0.0005425456911325455,-0.0014737790916115046
1783174167958783700,8.05778369140625,0.0004484195960685611,0.0010948870331048965,-0.000015130499377846718
1783174167968851500,8.0678515625,-0.0015625333180651069,0.0013534799218177795,0.0011547962203621864
1783174167978920700,8.077920654296875,-0.0003489091177470982,0.0008650738745927811,0.0009824394946917892
1783174167988989700,8.08798974609375,-0.0008040433167479932,-0.001618057955056429,0.00009347638115286827
1783174167999057400,8.098057373046874,-0.002125441562384367,-0.002284632995724678,-0.0038536014035344124
1783174168009126700,8.108126708984376,-0.001610918901860714,-0.0006909975782036781,-0.0008687307126820087
1783174168019194600,8.118194580078125,0.0005451133474707603,0.00164387421682477,-0.002520275302231312
1783174168029263600,8.128263671875,0.0008740137564018369,0.0019243047572672367,0.0008984244195744395
1783174168039332600,8.13833251953125,-0.0005813007010146976,0.00005346303805708885,-0.0005825255066156387
1783174168049400600,8.148400634765625,-0.00044255005195736885,0.001390902791172266,-0.0004506991244852543
1783174168059469800,8.1584697265625,-0.0006088576046749949,0.002097688615322113,-0.0016937870532274246
1783174168069538600,8.16853857421875,0.0012148751411587,0.0018707872368395329,0.003128398908302188
1783174168079606500,8.1786064453125,-0.0008032029727473855,0.00023651868104934692,-0.0011835778132081032
1783174168089675800,8.18867578125,0.0013142763637006283,-0.0017600529827177525,-0.0016879807226359844
1783174168099745000,8.1987451171875,0.00008182821329683065,0.0005127973854541779,-0.00194071838632226
1783174168109813000,8.20881298828125,0.00007490400457754731,-0.0009902906604111195,-0.0020858608186244965
1783174168119882000,8.218882080078124,0.003349699079990387,-0.0012866179458796978,-0.002621540566906333
1783174168129950000,8.228949951171876,0.0000820004497654736,-0.0019601318053901196,-0.0019983609672635794
1783174168140019000,8.23901904296875,0.0020943121053278446,0.0008123526349663734,-0.0012045353651046753
1783174168150088200,8.249088134765625,0.002223209012299776,0.0018041138537228107,-0.003701515030115843
1783174168160156000,8.259156005859374,0.0002443804987706244,-0.00046790018677711487,0.00002392497844994068
1783174168170225000,8.269224853515626,-0.0003303296398371458,-0.0013400856405496597,-0.0006365389563143253
1783174168180294100,8.279294189453125,0.0033106913324445486,0.001289991196244955,-0.0015654356684535742
1783174168190361900,8.28936181640625,-0.0006227975827641785,0.0006479029543697834,-0.001582746161147952
1783174168200431000,8.29943115234375,0.0011129232589155436,-0.0001799287274479866,-0.003098835935816169
1783174168210499000,8.3094990234375,0.0007973387255333364,0.0010837409645318985,0.0019494520965963602
1783174168220568000,8.319568115234375,-0.0001426950329914689,-0.00048179225996136665,-0.0005091368220746517
1783174168230637000,8.329636962890625,-0.00003590225242078304,-0.0034682615660130978,-0.0028521856293082237
1783174168240705000,8.339705078125,0.0002051395713351667,0.0007608882151544094,0.0002715950831770897
1783174168250774000,8.34977392578125,0.00044775352580472827,-0.0010870788246393204,-0.0011731695849448442
1783174168260843000,8.359843017578125,0.0011581333819776773,-0.0003161248750984669,0.0009319826494902372
1783174168270911000,8.369910888671875,-0.0035732383839786053,-0.00018749386072158813,0.0022838031873106956
1783174168280980200,8.379980224609374,0.00015221169451251626,0.0005096648819744587,-0.0016814577393233776
1783174168291048000,8.3900478515625,-0.00036630575777962804,-0.0020650788210332394,0.0030128960497677326
1783174168301117000,8.400116943359375,-0.0009552405681461096,-0.0009228675626218319,0.0013950077118352056
1783174168311186200,8.410186279296875,-0.0008865309646353126,0.0010955422185361385,0.0002668926026672125
1783174168321254000,8.42025390625,-0.0010696775279939175,0.0007525240071117878,-0.0010896238964051008
1783174168331323000,8.430322998046876,-0.00012611952843144536,0.0034082280471920967,0.0006307782605290413
1783174168341392100,8.44039208984375,0.000970295281149447,-0.0011693728156387806,-0.0008597993291914463
1783174168351460000,8.450460205078125,0.0008858731016516685,0.0001696641556918621,0.00224864250048995
1783174168361529000,8.460529052734374,-0.000326134089846164,-0.00014770077541470528,-0.00025686738081276417
1783174168371597000,8.47059716796875,-0.0013458586763590574,0.001648068893700838,0.00029760273173451424
1783174168381666000,8.480666015625,0.0006409282214008272,0.0014661159366369247,0.00021637044847011566
1783174168391735000,8.490735107421875,0.0017266989452764392,0.0004016505554318428,0.0008030647877603769
1783174168401803000,8.500802978515624,-0.0009326800354756415,-0.002537325955927372,-0.0023635912220925093
1783174168411872000,8.5108720703125,0.0016322104493156075,-0.0012797815725207329,0.0021299608051776886
1783174168421941000,8.52094091796875,0.00016042223433032632,-0.0033872583881020546,-0.0001714171376079321
1783174168432009000,8.531009033203125,0.0011172960512340069,-0.0023025525733828545,0.003116255160421133
1783174168442078200,8.541078125,-0.00009782391134649515,0.0004539131186902523,0.0021157164592295885
1783174168452146200,8.551146240234376,-0.0014320675982162356,0.002390830311924219,0.0016792243113741279
1783174168462215000,8.56121484375,-0.0020724176429212093,-0.0025770673528313637,0.0008420197991654277
1783174168472284200,8.5712841796875,0.0017425604164600372,-0.0015778494998812675,0.0017211292870342731
1783174168482352000,8.58135205078125,-0.0006232332088984549,-0.0002568736672401428,-0.00042590871453285217
1783174168492420900,8.5914208984375,-0.0013843646738678217,0.000004115980118513107,0.0006065987981855869
1783174168502490000,8.601489990234375,-0.0031251832842826843,-0.0033235130831599236,-0.0017953645437955856
1783174168512558000,8.61155810546875,0.00427148025482893,0.0003556441515684128,0.0008608722127974033
1783174168522627000,8.621626953125,-0.0019200596725568175,-0.0012968946248292923,0.0019621739629656076
1783174168532696000,8.631696044921876,-0.0009597238386049867,-0.001318998634815216,-0.0005127014592289925
1783174168542764000,8.641763916015625,-0.00017299334285780787,-0.0014877989888191223,0.00005121040157973766
1783174168552833000,8.6518330078125,0.000561506487429142,-0.000007081311196088791,0.0017814660677686334
1783174168562901000,8.66190087890625,-0.0021655703894793987,-0.0009833956137299538,-0.0005216356366872787
1783174168572970000,8.671969970703126,0.00098399817943573,0.00084298150613904,0.0016495997551828623
1783174168583039000,8.6820390625,0.001273774541914463,-0.0004908987320959568,0.001340785762295127
1783174168593107000,8.69210693359375,0.00013047957327216864,-0.0010107471607625484,0.002762913703918457
1783174168603176200,8.70217626953125,0.0003387221950106323,0.000045820605009794235,-0.002069695619866252
1783174168613245000,8.712244873046876,0.00020210203365422785,-0.0011920160613954067,0.0002248839009553194
1783174168623313000,8.72231298828125,0.0005184384062886238,-0.0003455141559243202,0.0006838664412498474
1783174168633382100,8.732382080078125,0.0001290842774324119,0.0015972615219652653,0.0004899883642792702
1783174168643450000,8.7424501953125,-0.00016522221267223358,-0.0018650083802640438,-0.0016735291574150324
1783174168653518800,8.752518798828126,-0.001484552281908691,0.0036810245364904404,0.0010895002633333206
1783174168663588000,8.762588134765625,0.000033770338632166386,0.0015207240357995033,-0.0015231289435178041
1783174168673656000,8.772656005859375,0.0004377718723844737,0.000051458366215229034,-0.0003244401887059212
1783174168683725000,8.78272509765625,0.0004395361174829304,-0.000680028460919857,-0.001682759029790759
1783174168693794000,8.7927939453125,-0.0012907196069136262,-0.0017303787171840668,0.0009708147263154387
1783174168703862000,8.802862060546875,0.0006005089380778372,0.001067053060978651,0.002037427620962262
