time,seconds_elapsed,z,y,x
1783169865120460300,0.073460205078125,0.07783581161350012,0.0647328766733408,-0.047223815728724
1783169865130529300,0.083529296875,0.07775017915666103,0.05414367811977863,-0.03549779516495764
1783169865140599300,0.093599365234375,0.04223229105174541,0.038974166038632393,-0.00043342298120260233
1783169865150668000,0.10366796875,0.043187984341382976,-0.008401333120465279,0.00008497486971318721
1783169865160738300,0.11373828125,0.0028691256955265996,-0.0020218612164258957,0.04915975222736597
1783169865170807300,0.123807373046875,-0.010563479590415955,0.0055921209186315535,0.021850158888846633
1783169865180877300,0.133877197265625,0.025924130329489706,-0.004637012150883675,0.02163410498537123
1783169865190946300,0.1439462890625,0.029915245792269705,0.01882978815436363,-0.031979192584753034
1783169865201016000,0.15401611328125,0.006386193905770778,0.01656593487560749,-0.019141557517275212
1783169865211085300,0.164085205078125,0.013273323071002959,0.013911036452651022,-0.003938070101290941
1783169865221155000,0.174155029296875,0.029191607692837712,0.07583060927093029,-0.024328970092535016
1783169865231224300,0.184224365234375,0.04057867862582207,0.11067571268081665,-0.04601180959045887
1783169865241294000,0.194294189453125,0.04761982930898666,0.06435936718583106,-0.029695319431275128
1783169865251363300,0.20436328125,0.004972819976508617,0.015099953976273535,-0.02265482633523643
1783169865261433300,0.214433349609375,-0.0713224841967225,-0.0016939444363117217,-0.07599288716055452
1783169865271503000,0.224503173828125,-0.060257777085900306,0.003142389678955078,-0.0747445675998926
1783169865281572400,0.234572265625,-0.038706162752211094,-0.01431026490330696,-0.05762129110246896
1783169865291641300,0.244641357421875,-0.03463467552959919,-0.014531798699498175,-0.03795994749478995
1783169865301711400,0.25471142578125,-0.013554185838997363,0.01733750376999378,-0.01929046446867287
1783169865311781000,0.264781005859375,0.021175182236731052,0.06951134312152862,0.0025191432140767574
1783169865321850400,0.274850341796875,0.03929039238095283,0.07314414666593075,-0.03031944267898798
1783169865331920100,0.284920166015625,0.11184241837263106,0.09855682034194468,0.0026453999422490597
1783169865341989400,0.2949892578125,0.03682517131119966,0.11349778436422348,-0.04064282990321517
1783169865352059400,0.305059326171875,0.019906769736111163,0.08513093705773353,-0.04120893935337663
1783169865362128400,0.31512841796875,0.01682166320234537,0.0730459469884634,-0.0024559417847543953
1783169865372198400,0.325198486328125,-0.010800503216683865,0.0866617998868227,-0.027841654388606547
1783169865382267100,0.33526708984375,-0.05111380890458822,0.06542027441561221,-0.09111227648966014
1783169865392337400,0.34533740234375,-0.0013484919995069504,0.03396364440023899,-0.05816643082983791
1783169865402406100,0.35540625,-0.0349216757774353,0.03474398112297058,-0.07908632313124835
1783169865412476400,0.365476318359375,-0.0033250527694821358,0.01701250959932804,-0.06387443321309984
1783169865422545200,0.375545166015625,0.026195348486304282,0.04301613490581512,-0.06914923181086778
1783169865432615200,0.385615234375,0.013911036452651022,0.05973462999463081,-0.08312266597524284
1783169865442684200,0.39568408203125,0.06457242541462183,0.02336860062777996,-0.017172668597102165
1783169865452754200,0.405754150390625,0.04768266541212797,0.004732289218902588,0.008118424525856972
1783169865462823200,0.4158232421875,-0.026214345447719094,0.029331308424472808,0.0047714521855115885
1783169865472893200,0.42589306640625,-0.03939735988676548,0.005814239236712456,0.022392302941530943
1783169865482962400,0.43596240234375,-0.020892273642122743,-0.012518120789527892,0.05091835939772427
1783169865493032200,0.4460322265625,0.005393091215193271,0.0003998129725456238,0.022963307762518523
1783169865503101400,0.456101318359375,0.05918693298399448,0.05026595990359783,0.03128273475319147
1783169865513171200,0.466171142578125,0.07087123329788446,0.09636603229939937,0.018484116521850228
1783169865523240400,0.476240478515625,0.05539718531221151,0.12430851671397686,0.011021452490985392
1783169865533310200,0.486310302734375,0.07306114455759524,0.10994856745004654,-0.01067936105504632
1783169865543379200,0.496379150390625,-0.008542202895879744,0.10705576861798763,-0.08405095980130135
1783169865553449200,0.50644921875,-0.012637070994079113,0.04249181877076626,-0.06838957254998386
1783169865563518200,0.516518310546875,-0.005637713626027107,0.026726678884029388,-0.10690225855670869
1783169865573588500,0.52658837890625,-0.04368073629438877,0.0069219082176685326,-0.13383205879740417
1783169865583657200,0.5366572265625,-0.019717384643852708,-0.0034539398461580274,-0.10288155167326331
1783169865593727200,0.546727294921875,0.015277648630738258,0.027761867150664327,-0.06565569060668348
1783169865603796200,0.556796142578125,0.06895604732632636,0.08050736891031265,-0.04004091848731041
1783169865613866200,0.5668662109375,0.09574556231349705,0.11797288395166397,0.0040296939074993135
1783169865623935200,0.576935302734375,0.1068260515153408,0.073337623411417,0.08389007015116512
1783169865634005200,0.587005126953125,0.03685147479623556,0.07464578340053558,0.04688998066447675
1783169865644074200,0.59707421875,0.013469430164992809,0.03869301100969314,0.021074206080287695
1783169865654144300,0.607144287109375,0.022001988449692724,-0.00001695113480091095,0.033563758362457154
1783169865664213200,0.617213134765625,-0.028028701393306255,0.000012274959683418274,-0.0252044377528131
1783169865674283300,0.627283203125,-0.06591945610940456,0.014150105905532836,-0.03644954293183982
1783169865684352300,0.637352294921875,-0.02212473804652691,0.029884266132116317,-0.04898505324758589
1783169865694422300,0.64742236328125,0.049609541821479794,0.06610241146087646,-0.04611497770398855
1783169865704491300,0.6574912109375,0.05559270788431167,0.04687281033396721,-0.04428220931887626
1783169865714561300,0.667561279296875,0.05295680642277002,0.0387123002320528,-0.02494439857713878
1783169865724630300,0.67763037109375,0.04343465257883072,0.014228431838750838,-0.01531790757589042
1783169865734700300,0.6877001953125,0.01680208171904087,0.05043430220782757,-0.014899828294292091
1783169865744769300,0.697769287109375,-0.014341244563460349,0.06620645635724068,-0.023562515764683482
1783169865754839300,0.70783935546875,0.019573884519934654,0.08122633083462714,-0.0018343758203089237
1783169865764908300,0.717908203125,0.014284838201105593,0.06474047545790672,-0.017983108197152615
1783169865774978000,0.72797802734375,0.03031009032875299,0.05148410352170467,-0.05930464107953012
1783169865785047300,0.73804736328125,0.07325345225930213,0.029916999357938765,-0.04527019744291901
1783169865795117300,0.748117431640625,0.043135961893200875,0.01994914757311344,-0.0739755559887737
1783169865805186300,0.758186279296875,0.05934153902381658,0.0020288754791021346,-0.012694281074032187
1783169865815256300,0.76825634765625,0.041242695492506025,0.013992284995317458,0.010913535137102007
1783169865825325300,0.7783251953125,-0.020823592320084572,0.07547989613711834,-0.008117182416841387
1783169865835395300,0.788395263671875,-0.014797756159305571,0.07580781291723251,0.01008819022886455
1783169865845464300,0.79846435546875,-0.007011924588680267,0.038082185634970664,-0.010704860822483897
1783169865855534300,0.808534423828125,0.03878156607598066,0.037736148676276206,-0.034466917747259136
1783169865865603300,0.818603271484375,0.01837882951647043,0.04280453798174858,-0.007453969267755747
1783169865875673300,0.82867333984375,0.01806523352265358,0.03365209423303604,-0.03292429141514003
1783169865885742000,0.8387421875,0.020914485473930836,0.01630582263469696,-0.04199124883748591
1783169865895812400,0.848812255859375,0.04475684109330177,0.03101297790110111,-0.030336759139969943
1783169865905881300,0.85888134765625,0.03315729645341635,0.04894903208613395,-0.016054405156895518
1783169865915951600,0.86895166015625,0.003621697628498077,0.09209376180768013,-0.026674729501083492
1783169865926020400,0.879020263671875,0.035032734936475754,0.09253332226872443,-0.008607815477997063
1783169865936090400,0.88909033203125,0.08491144908815622,0.061492871838808055,0.010104629907011985
1783169865946159400,0.899159423828125,0.0821300016760826,0.006407528954744338,-0.020454832072928548
1783169865956229400,0.9092294921875,0.03064531363248825,0.013016717961430549,-0.04760404721796512
1783169865966298400,0.91929833984375,0.054523909609019754,0.006798574098944664,-0.020886063097044823
1783169865976368400,0.929368408203125,0.03397533483803272,0.008805237746238708,-0.04305412882864475
1783169865986437400,0.939437255859375,0.009018295975029468,0.033791210442781446,-0.014089096433296798
1783169865996507400,0.94950732421875,0.006396423038840294,0.05231996982395649,-0.0015163959123194216
1783169866006576400,0.959576416015625,0.011517127053439616,0.07728314616680144,0.022121888502314686
1783169866016646400,0.969646484375,0.01405102944523096,0.11198737980127334,0.00740552701614797
1783169866026715400,0.97971533203125,0.027666882343590257,0.0973667337745428,-0.03093114483654499
1783169866036785400,0.989785400390625,0.10126900191009044,0.046862873461842536,-0.048505964493751524
1783169866046854400,0.9998544921875,0.028610300673544406,0.002509352472424507,-0.0911477861944586
1783169866056924400,1.00992431640625,0.03286591229140758,-0.05469605130553245,-0.06178432906605303
1783169866066993400,1.019993408203125,0.0069034957781434056,-0.04603402142226696,-0.010222776393964886
1783169866077063400,1.0300634765625,-0.015378478656709193,0.011759995898604393,-0.012627353317663072
1783169866087132400,1.04013232421875,-0.05532441233694553,0.03891629837155342,0.00506985061019659
1783169866097202200,1.0502021484375,-0.032116555228829384,0.0657213031888008,0.010346841165050864
1783169866107271400,1.060271484375,0.06389204193502664,0.08222410970032215,-0.01172952769510448
1783169866117341200,1.070341064453125,0.08155366309285163,0.07971008105278014,-0.04404474730119109
1783169866127410400,1.080410400390625,0.08267331477254629,0.07780278612673282,-0.055340778949856756
1783169866137480400,1.09048046875,0.08519698803126811,0.07290098555982112,-0.04020348863787949
1783169866147549400,1.100549560546875,0.09683014267981052,0.07245908701121807,-0.04138173863701522
1783169866157619500,1.110619384765625,0.07042261274755,0.03846913912594318,0.003577712356299162
1783169866167688400,1.1206884765625,-0.02418897709995508,0.022547931894659996,-0.005817892498522996
1783169866177758500,1.130758544921875,-0.03301584215611219,0.003367430606484413,-0.017174568293243646
1783169866187827500,1.140827392578125,-0.006225450386106967,0.02456979311108589,-0.026393282211199402
1783169866197897500,1.1508974609375,-0.015042963092029094,0.021472411617636678,-0.048810573463514445
1783169866207966200,1.16096630859375,0.007834639148414134,0.016390578308701515,-0.058969052449613805
1783169866218036500,1.171036376953125,0.0017976970717310905,0.02314239065647125,-0.022862550801783798
1783169866228105200,1.181105224609375,0.031247663439810273,0.04533376419842243,-0.0016499591641128061
1783169866238175500,1.191175537109375,0.0910796163290739,0.07235854924619198,0.034826764035597445
1783169866248244200,1.201244140625,0.07571428941488266,0.06974456735551357,-0.02273936281353235
1783169866258314500,1.211314453125,0.047546471811831,0.09478490058779716,-0.09139335845336317
1783169866268383500,1.221383544921875,0.04092091619223356,0.07876783176660537,-0.05849230178333818
1783169866278453200,1.231453369140625,0.0013633973076939581,0.042645548027753825,-0.015788886088505386
1783169866288522500,1.2415224609375,-0.019658640193939207,0.01471592309474945,0.01564341320320964
1783169866298592300,1.25159228515625,-0.06414513991326093,0.03640343876779079,-0.0019531068291515111
1783169866308661500,1.26166162109375,-0.06465630430579185,0.05316752656400203,0.00006911971345543861
1783169866318731300,1.271731201171875,0.033141806623339654,0.10516834743618965,-0.03432780153751373
1783169866328800500,1.281800537109375,0.035332010143995285,0.10206512072384356,-0.0786850488539785
1783169866338870300,1.291870361328125,0.030570202569663522,0.08000526460707187,-0.045113253315538164
1783169866348939500,1.301939453125,-0.009818798702955246,0.0709632954955101,-0.061835620861873025
1783169866359009500,1.312009521484375,0.02730827816426754,0.06382979035377502,-0.07044073292613029
1783169866369078300,1.322078369140625,-0.015737375096976758,0.05894084926843643,-0.0768440240971744
1783169866379148500,1.3321484375,0.012039689622819424,0.03571253389418125,-0.056543944194540376
1783169866389217300,1.34221728515625,0.05025894564092159,0.01314823538661003,-0.048558863724768156
1783169866399287600,1.35228759765625,0.003991115462779998,0.007862988460063934,-0.06599171762801706
1783169866409356300,1.362356201171875,0.03210369574725628,-0.025549451798200607,-0.03649995794482529
1783169866419426600,1.372426513671875,0.06742226188778877,0.02798749260008335,0.01851553457342088
1783169866429495300,1.382495361328125,0.03663695526272058,0.07094751340448856,0.027827187471836802
1783169866439565300,1.3925654296875,-0.006370119553804397,0.08767477632164955,0.037416488267853855
1783169866449634300,1.40263427734375,-0.016194763475656508,0.09283259747624396,0.03029934973903
1783169866459704300,1.412704345703125,0.037412031288444995,0.060603229522705075,-0.026317659691721198
1783169866469773300,1.422773193359375,0.042490649726986886,0.017243980267643927,-0.07170695346966385
1783169866479843300,1.43284326171875,0.03512158226370811,-0.009939794734120369,-0.06466280711181462
1783169866489912300,1.442912353515625,0.04990180276632308,-0.002896305963397026,-0.03155234547480941
1783169866499982300,1.452982421875,0.03999591030180454,0.020837036323547362,-0.007120572594925761
1783169866510051600,1.463051513671875,0.02896832033097744,0.08033610399663448,-0.0002098433583974838
1783169866520121300,1.473121337890625,-0.03818213887810707,0.13020341997146606,-0.05046323604136705
1783169866530190600,1.483190673828125,0.004403203395009041,0.09497136307060718,-0.023694106255099177
1783169866540260400,1.49326025390625,-0.009464870698750018,0.05027414321005344,-0.047355406219139695
1783169866550329300,1.503329345703125,-0.002515197691321373,0.041592239582538604,-0.04793123334571719
1783169866560399400,1.5133994140625,0.018497195199131965,0.04016542164981365,-0.08016936912760138
1783169866570468400,1.52346826171875,0.022094050647318363,0.042021278649568554,-0.11065744637176393
1783169866580538400,1.533538330078125,0.04943710786402225,0.032492402803897855,-0.07377016960978508
1783169866590607400,1.543607421875,0.03908756328523159,0.025333178699016568,-0.0322753259871155
1783169866600677400,1.553677490234375,-0.028735680618882178,0.05662321997582912,-0.02350691311992705
1783169866610746400,1.563746337890625,-0.022806875091791152,0.07922317431867122,0.020266689089685676
1783169866620816400,1.57381640625,0.0077747256547212595,0.10288988111019134,0.009509148231893777
1783169866630885400,1.583885498046875,0.018255787658691406,0.10487491744756698,-0.03489508003145456
1783169866640955400,1.593955322265625,0.06349398252815008,0.043432899013161656,-0.04096161352880299
1783169866651024400,1.6040244140625,0.044347675770521164,0.0029740473747253415,-0.04272453154809773
1783169866661094400,1.614094482421875,0.049066520985960954,-0.01624210974872112,-0.04147591972649097
1783169866671163400,1.624163330078125,0.058220718300342554,-0.041731940314173696,-0.01130078088901937
1783169866681233400,1.6342333984375,0.022265607821941376,-0.002429272973537445,0.02083667099736631
1783169866691302400,1.644302490234375,-0.033460955575108524,0.04592062417566776,0.02830897963941097
1783169866701372400,1.654372314453125,0.027014263653755186,0.08013561298847198,0.037693040186911816
1783169866711441200,1.664441162109375,0.0607154577255249,0.11804302657842636,0.02822992305383086
1783169866721511400,1.674511474609375,0.006868132203817367,0.0947919148504734,-0.048017011933028694
1783169866731580400,1.684580322265625,0.01648234824538231,0.04806640403270721,-0.05457257105633616
1783169866741650400,1.694650390625,-0.013361878137290477,0.018698855251073836,-0.08022022253200412
1783169866751719400,1.704719482421875,-0.04956541041880846,-0.009418985730409621,-0.07594123003855348
1783169866761789400,1.71478955078125,-0.08260463345050811,0.013667290824651717,-0.08818637910559773
1783169866771858400,1.7248583984375,-0.06172960320413112,0.040158991909027095,-0.08341573063768445
1783169866781928200,1.73492822265625,-0.03833411456942558,0.06471241840720177,-0.08132854910008609
1783169866791997400,1.74499755859375,-0.016681670209765433,0.08338847730457782,-0.05846840945109725
1783169866802067200,1.755067138671875,-0.025585692155361175,0.10929448745548724,-0.060847340476885434
1783169866812136400,1.765136474609375,0.016295885762572286,0.1087649106234312,-0.031289602885395285
1783169866822206500,1.77520654296875,0.055796121501922605,0.06815116068422794,-0.025899215083941815
1783169866832275500,1.785275390625,0.0650374125778675,0.05624854144454002,-0.02490348204486072
1783169866842345500,1.795345458984375,0.06617986061125994,0.03918050226569175,-0.0038449849903583523
1783169866852414500,1.80541455078125,0.05259966354817152,0.026405191844701765,-0.03822210556231439
1783169866862484500,1.815484375,0.031471243062615395,0.04680734388232231,-0.02416932255141437
1783169866872553500,1.825553466796875,0.036488778963685034,0.05880991636514663,-0.03328004605025053
1783169866882623500,1.83562353515625,0.011310498565435409,0.06643383537232875,-0.029601868994161486
1783169866892695600,1.845695556640625,-0.013205518531799316,0.058227148041129106,-0.021286314461007712
1783169866902765800,1.855765869140625,0.012196049228310584,0.02433890696465969,0.028307883660867807
1783169866912834600,1.86583447265625,0.023786241517961024,0.005983750584721565,0.030923619117215275
1783169866922904800,1.87590478515625,0.013241758888959884,0.023369185149669645,0.009675956166163086
1783169866932973600,1.8859736328125,0.03306523425579071,0.02929623711109161,0.01894245474860072
1783169866943043600,1.896043701171875,0.029153321509063242,0.047613399568200106,-0.012231705063581465
1783169866953112600,1.906112548828125,0.01038636945784092,0.05964928979873657,-0.03787818749547005
1783169866963182600,1.9161826171875,0.009335983622074127,0.09277706789672374,-0.03753134681917727
1783169866973251600,1.92625146484375,-0.03204524355828762,0.13771160364449023,-0.04402217014320194
1783169866983321600,1.936321533203125,0.01813362258374691,0.13352642691433428,-0.03796491593085229
1783169866993390600,1.946390625,0.03061871788650751,0.10882511637806892,-0.013034765074774622
1783169867003460600,1.956460693359375,0.04789133972674608,0.06434709222614765,-0.04496273892894387
1783169867013529900,1.96652978515625,0.0425879726216197,0.005597381615638733,-0.036031975106894966
1783169867023599600,1.976599609375,0.07910480863600969,-0.018659692284464836,-0.03824687467738986
1783169867033668900,1.9866689453125,0.06809066266864537,-0.023723989936709402,-0.044204029516130686
1783169867043738600,1.996738525390625,-0.011718202583491802,-0.009902969855070113,-0.03219020498692989
1783169867053807600,2.0068076171875,-0.025033026708662507,0.008363923719525337,-0.016788929976522923
1783169867063877600,2.016877685546875,0.08481178810596465,0.038187399575114245,0.001775996696576476
1783169867073946600,2.026946533203125,-0.024682313574850557,-0.0031055647999048233,-0.05485606417283415
1783169867084016600,2.0370166015625,0.0073345806717872615,0.04059679880440235,0.07232187049761414
1783169867094085600,2.047085693359375,0.09125263480842113,0.0024859715968370438,-0.025138459844514727
1783169867104156000,2.057156005859375,0.10524755015224217,0.04001636856794357,0.01759768907614052
1783169867114224600,2.067224609375,-0.03111789958029985,0.035138533398509024,0.045199543359503144
1783169867124294700,2.077294677734375,0.06079612174630165,0.07529343365430831,0.08267141507640481
1783169867134363600,2.08736376953125,0.022198972326517102,0.10904022043347358,-0.012856047507002949
1783169867144433700,2.09743359375,0.0015077742144465446,0.09839666134417056,-0.0009700871411710977
1783169867154502700,2.107502685546875,0.014481529816985129,0.037133506608009334,-0.05277480091936886
1783169867164572700,2.11757275390625,0.006667933456599712,0.03587795358896255,-0.028781419456750154
1783169867174641700,2.1276416015625,0.02597527599483728,0.04711538691818714,-0.08278890397623181
1783169867184711700,2.137711669921875,0.006541968989372253,0.04630991575419902,-0.07333974230326712
1783169867194780700,2.14778076171875,0.03154138568937778,0.03768938692510128,-0.027108956199884415
1783169867204850700,2.1578505859375,0.02547434073537588,0.036408699464797974,-0.008551116854697465
1783169867214919700,2.167919677734375,-0.010646481698751448,0.051184243792295456,-0.004960471951588988
1783169867224989700,2.17798974609375,0.005114858795702457,0.1022334630280733,-0.021668737907335162
1783169867235058700,2.18805859375,0.02824672805815935,0.0786053346812725,-0.03758738785535097
1783169867245128700,2.198128662109375,0.04179594546109438,0.014337152910232543,-0.04840206572785973
1783169867255197700,2.20819775390625,0.028964813199639318,-0.016022329518198965,-0.06734583565071225
1783169867265267700,2.218267822265625,0.03083645229041576,-0.028010873475670814,-0.027639994336664676
1783169867275336700,2.228336669921875,0.03055062108635902,-0.02190904946923256,0.03301876476556063
1783169867285406500,2.238406494140625,0.0049342415317893025,0.01507365049123764,0.07617949577383697
1783169867295475700,2.248475830078125,-0.03474661147147417,0.08875614181756973,0.11115399771705269
1783169867305545500,2.25854541015625,0.010015490318834782,0.09450199199318886,0.1089640133921057
1783169867315614700,2.26861474609375,-0.023642449133098126,0.10916004742085933,0.025309870888665317
1783169867325684700,2.278684814453125,-0.02380085456520319,0.08969780658185482,-0.03915281054116785
1783169867335753700,2.288753662109375,0.027820027078688143,0.054960839721560475,-0.07359466691240668
1783169867345823700,2.29882373046875,0.028093583323061465,0.028638649985194206,-0.1079582704156637
1783169867355892700,2.308892822265625,0.038734219802916046,-0.003950783452391624,-0.10513955973312258
1783169867365962800,2.318962646484375,0.02531301269382238,0.023454525345563887,-0.10261128336451947
1783169867376031700,2.32903173828125,0.01172609362900257,0.03334229763150215,-0.07829568421021103
1783169867386101800,2.339101806640625,-0.003694470603764057,0.0233189162671566,-0.06401895625032485
1783169867396170500,2.34917041015625,0.002319090597331524,-0.00044482115805149076,-0.017895137652754783
1783169867406240800,2.35924072265625,0.009840133751928807,-0.009618892216682433,-0.013890505121275782
1783169867416309500,2.3693095703125,0.024100714294612406,0.011621464210748672,0.030498598638176916
1783169867426379800,2.3793798828125,0.04606032490730285,0.06465162813067436,0.04896970954798162
1783169867436448500,2.389448486328125,0.05724398222267627,0.11110767435729503,0.033108708071336146
1783169867446518800,2.399518798828125,0.013829495649039745,0.09100012135207652,0.02530475632213056
1783169867456587800,2.409587890625,-0.027948329633474347,0.07286182259321212,0.06508351674191654
1783169867466657500,2.419657470703125,0.005907178217172623,0.03833469909131527,0.014007920955866575
1783169867476726800,2.429726806640625,0.0066904375493526454,0.09736030403375626,-0.029250571338459846
1783169867486796500,2.439796630859375,0.0076575290158391,0.05656944396197795,-0.06504574201479554
1783169867496865800,2.44986572265625,0.039651334647834297,0.0672989277690649,-0.07908880734927952
1783169867506935600,2.459935546875,0.06447422573715449,0.04431026636958122,-0.01235723113939166
1783169867517004800,2.4700048828125,0.032438919050991534,0.06399813265800476,-0.02181238416172564
1783169867527074600,2.480074462890625,-0.035661388228833676,0.06482523113191127,-0.024726298847049473
1783169867537143800,2.490143798828125,0.0015714871004223823,0.05111936186254024,-0.011936594574525951
1783169867547213800,2.5002138671875,-0.05016629892140627,0.03368833459019661,-0.05297675323225558
1783169867557282600,2.510282470703125,-0.08759528134465216,0.05305237575173378,-0.06164937757477164
1783169867567352800,2.520352783203125,-0.025979367648065087,0.04735913254618644,-0.07231273734308778
1783169867577421600,2.530421630859375,0.007529226461052894,0.08178162662982941,-0.07514043504968285
1783169867587491800,2.540491943359375,0.05334025278240442,0.07533902636170386,-0.07821757747270167
1783169867597560600,2.550560546875,0.03291793473958969,0.06546937425434589,-0.07310323013365268
1783169867607630800,2.560630859375,0.042910044182837004,0.06177636495530605,-0.030648382372409102
1783169867617699600,2.570699462890625,0.026006547915935516,0.04292787210047245,-0.012016601008176803
1783169867627769600,2.58076953125,0.01757803452759981,0.03112754419147968,0.0076790101952850815
1783169867637838600,2.590838623046875,0.0027656653210520743,0.053826282733678815,0.0070965341322124
1783169867647908600,2.60090869140625,0.017949498188495634,0.06836918734908104,-0.005064736043661832
1783169867657977600,2.6109775390625,0.004677344161272049,0.05503332043588161,0.00873882144652307
1783169867668047600,2.621047607421875,-0.014312310729920863,0.051152095088362694,0.018944573640450834
1783169867678116600,2.63111669921875,-0.03270107711851596,0.03220598707795143,0.007853197718411684
1783169867688186600,2.6411865234375,-0.018629297146201134,0.03166179719865322,0.016966916891932485
1783169867698256000,2.651255859375,0.015392214921116828,0.038272739771008486,-0.005520151660963893
1783169867708325600,2.66132568359375,0.03520458437204361,0.06225625742673874,-0.016422580882161853
1783169867718395000,2.671394775390625,0.02986234656125307,0.0671679948657751,-0.052454190662875766
1783169867728464600,2.681464599609375,-0.022241934685409068,0.08207622566223144,-0.1086845388635993
1783169867738533600,2.69153369140625,-0.11359598404169081,0.013328268128633499,-0.051397302021086215
1783169867748603600,2.701603759765625,0.08253449082374573,-0.05216799413263797,0.025509412048757073
1783169867758672600,2.711672607421875,0.022498832055926322,0.013421207109093666,-0.05496668494045734
1783169867768742700,2.72174267578125,-0.02278524778187275,-0.01811491788327694,0.021092180128395557
1783169867778811600,2.731811767578125,0.08392828326970338,0.008106149566173552,0.021359818088635803
1783169867788881700,2.741881591796875,0.08422375908493995,0.06261164673566817,0.004766702945157885
1783169867798950700,2.75195068359375,0.03059416796714067,0.07286532972455025,0.010387757697328925
1783169867809020700,2.762020751953125,-0.048598318952322,0.07581774978935718,0.001893631726875901
1783169867819089700,2.772089599609375,-0.08347089489102363,0.09170096309781074,0.015911124228686093
1783169867829159700,2.78215966796875,-0.06895867767482995,0.0953583165615797,-0.0006151362236589193
1783169867839228700,2.792228759765625,-0.02379208673685789,0.08284604099094867,-0.018991408456861973
1783169867849298700,2.802298583984375,0.07968582339435816,0.06810381441116332,-0.011075666896253824
1783169867859367700,2.81236767578125,0.07432371183931827,0.04504442586302757,-0.02477218381538987
1783169867869437700,2.822437744140625,0.05214344421327114,0.028802900636196133,-0.0031502807244658468
1783169867879506700,2.832506591796875,0.040673955693840975,0.025290508601069447,0.013377806358784437
1783169867889576700,2.84257666015625,0.016041618740558622,0.06733633717000484,0.03754807875826954
1783169867899642400,2.852642333984375,0.016905542093515396,0.08058218771219253,0.06106690151169896
1783169867909712400,2.86271240234375,-0.01495206993818283,0.09983984588980674,0.05004895615205168
1783169867919781400,2.872781494140625,-0.02558101598024368,0.08838438589572906,-0.007280366266518831
1783169867929851400,2.882851318359375,0.049455228042602536,0.06239245102703571,-0.02937259028293192
1783169867939920400,2.89292041015625,0.08422901978194713,0.00703705902993679,-0.06485401883497834
1783169867949990400,2.902990478515625,0.06569090805053711,-0.0442325249582529,-0.08625365747734903
1783169867960059400,2.913059326171875,0.07463204713612795,-0.059141340276598925,-0.059731049798056476
1783169867970129400,2.92312939453125,0.0923757936194539,-0.044259412965178484,-0.0474034100793302
1783169867980198400,2.933198486328125,0.047347734369337556,0.014645195946097374,-0.01988499629572034
1783169867990268400,2.943268310546875,0.026132512383162974,0.01923369278013706,-0.005062324890866875
1783169868000337400,2.95333740234375,0.033063188429176806,0.02728431276679039,0.005884235733002424
1783169868010407400,2.963407470703125,0.001180149695277214,0.016932430100440977,0.013258929219469428
1783169868020476400,2.973476318359375,0.001242109015583992,0.025161329263448714,0.026539997205510733
1783169868030546400,2.98354638671875,0.05336772531121969,0.0105178868830204,0.02105433233603835
1783169868040615400,2.993615478515625,0.05395283172279596,0.0536439119040966,-0.030719840173423288
1783169868050685400,3.003685546875,0.07079203058183192,0.05051438170671463,-0.02541048171892762
1783169868060754200,3.013754150390625,0.10835399173498153,0.022673604100942612,-0.05385061345733702
1783169868070824400,3.023824462890625,0.0574345363587141,0.011315174740552901,-0.08622048586010933
1783169868080893200,3.03389306640625,0.039835751304030415,0.019864391899108887,-0.039529607964307066
1783169868090963500,3.04396337890625,0.046889469207823276,0.03280570653676986,-0.04236607349924743
1783169868101032400,3.054032470703125,0.039276363855600356,0.04062894750833511,-0.02514605862908065
1783169868111102500,3.0641025390625,0.0632598815113306,0.07076397353112697,-0.003710398825258016
1783169868121171500,3.07417138671875,0.08008125245273112,0.09030629386901855,-0.021699279176071284
1783169868131241200,3.0842412109375,0.05885463228970766,0.09321487479209899,0.0032891777385026214
1783169868141310500,3.094310546875,0.011696867534518242,0.07599719800949097,0.02030066442452371
1783169868151380200,3.104380126953125,-0.012217092016339302,0.06416998209357261,0.025602424094453454
1783169868161449500,3.114449462890625,0.002249240231513977,0.05804419268965721,-0.0160927644059062
1783169868171519200,3.124519287109375,0.021862872239947317,0.0710807843953371,-0.08825864062421024
1783169868181588500,3.13458837890625,0.048887949548661706,0.051530280750989914,-0.10987557527907192
1783169868191658500,3.144658447265625,0.08944675443023442,0.034274025523662564,-0.11059621770381926
1783169868201727500,3.1547275390625,0.10002484706789254,0.02688917596936226,-0.10597827557958663
1783169868211797500,3.164797607421875,0.07109744326919316,0.04892389764487743,-0.045202685164660215
1783169868221866500,3.174866455078125,0.0487029483705759,0.07659984007775783,-0.029172537666186688
1783169868231936500,3.1849365234375,0.027968203377723693,0.0683662647396326,0.02495068218745291
1783169868242005200,3.195005126953125,0.026558921101689337,0.03642798868715763,0.020467033967375755
1783169868252075500,3.205075439453125,0.022378420546650884,0.021726678639650342,0.013832783584669231
1783169868262144300,3.215144287109375,-0.0038239422023296356,0.010655249527096749,-0.03668751640617847
1783169868272214500,3.225214599609375,-0.045104339356720445,-0.02385959901511669,-0.012855097658932209
1783169868282283300,3.235283203125,-0.052929918415844435,-0.010707271975278853,-0.03927307591997087
1783169868292353300,3.245353271484375,-0.07433598679900169,0.040996611776947973,-0.08769961850196123
1783169868302422300,3.25542236328125,-0.04398556445986032,0.07378478265702725,-0.04764021450988948
1783169868312492300,3.2654921875,0.011588730984926222,0.08883855940401554,-0.022464491394907235
1783169868322561500,3.2755615234375,0.04223229105174541,0.0856418091893196,-0.04103621313497424
1783169868332631300,3.28563134765625,0.03148760967552662,0.1135223342835903,-0.05799414300285279
1783169868342700500,3.295700439453125,0.06806114431321621,0.11031856980621814,-0.055163230425864455
1783169868352770300,3.305770263671875,0.07519815658628941,0.09946399831473826,-0.10195223493389785
1783169868362839600,3.315839599609375,-0.06377893694937228,0.018256956702470777,-0.05432597588412463
1783169868372909300,3.325909423828125,0.02422112580388784,0.02732347573339939,-0.04009586354494095
1783169868382978600,3.335978515625,-0.008697685718536376,0.06565116056203842,0.0023573037158697843
1783169868393048300,3.34604833984375,0.02015957545340061,0.07599953609704971,0.04514730171561241
1783169868403117300,3.356117431640625,0.010510288098454475,0.06436521240472794,0.05623597422391176
1783169868413187600,3.3661875,0.009147767573595046,0.05281564438641071,0.04635718896202743
1783169868423256300,3.37625634765625,0.05130173269212246,0.013732172754406928,0.02957118159495294
1783169868433326600,3.38632666015625,0.0017728548914194106,0.0351221667855978,-0.004816752631962299
1783169868443395300,3.396395263671875,-0.004409633135795593,0.04703121576607227,-0.02045256705060601
1783169868453465300,3.40646533203125,0.0024751579418778417,0.010445406168699264,-0.03584178629703819
1783169868463534300,3.416534423828125,-0.06216536427289247,0.006722001731395721,-0.04538834392987191
1783169868473604400,3.426604248046875,-0.07426175251901149,0.011519757401943206,-0.04847213528938591
1783169868483673300,3.43667333984375,-0.052125324034690855,0.022295418438315392,-0.037432708750292656
1783169868493743400,3.446743408203125,0.004033785560727119,0.056035775476694104,-0.020745047191157936
1783169868503812400,3.456812255859375,0.02724894919246435,0.09506137944161891,-0.011559943281859159
1783169868513882400,3.46688232421875,0.028372108003497123,0.09952654215693474,0.0064095747813582415
1783169868523951400,3.476951416015625,-0.0023509470403194426,0.10538520505726337,0.0013005612045526504
1783169868534021400,3.487021484375,-0.04855126494020223,0.10733984625637531,-0.025576339805126188
1783169868544090400,3.49709033203125,-0.043566462264955044,0.046430327263474465,-0.00489405565187335
1783169868554160400,3.507160400390625,-0.0885614960283041,0.039755671805143354,-0.0164735073518008
1783169868564229400,3.5172294921875,-0.07982084795087575,0.056685763818025585,-0.04680244851149618
1783169868574299400,3.52729931640625,-0.03431757240444422,0.055662850511074065,-0.026058789559826254
1783169868584368400,3.537368408203125,0.03317629341483116,0.06994564288556575,-0.06723287679553032
1783169868594438400,3.5474384765625,0.0758624657139182,0.09798691149950027,-0.07425956056192518
1783169868604507400,3.55750732421875,0.07000234150886535,0.08031155407726764,-0.05447093731276691
1783169868614577400,3.567577392578125,0.055149348030984396,0.037329321441054344,-0.057882060930505394
1783169868624646400,3.577646484375,0.021336802539229392,0.0187222361266613,-0.03637326282523572
1783169868634716200,3.587716064453125,0.03221037099212408,-0.0273491946965456,-0.034549116137996314
1783169868644785400,3.597785400390625,0.06530716942995786,-0.05029577051997185,0.03571574876457453
1783169868654855400,3.60785546875,0.05628945797681808,-0.01005903719961643,0.08334836448989807
1783169868664924400,3.61792431640625,0.05167290409207344,0.002052256354689598,0.07863770258091389
1783169868674994400,3.627994384765625,0.017353285861015318,0.02546294255852699,0.06863295285180211
1783169868685063400,3.6380634765625,0.021070552818477153,0.02816226464509964,0.04498422010838985
1783169868695133400,3.648133544921875,0.013476736688613891,0.045347792723774906,-0.042711672066524625
1783169868705202400,3.658202392578125,-0.045348084984719754,0.029430677145719526,-0.08115136590227484
1783169868715272400,3.6682724609375,-0.031548692212998865,0.006762333741784096,-0.029236762008816003
1783169868725341400,3.678341552734375,-0.014447627547383308,0.025491584131121636,-0.013771774112433193
1783169868735411500,3.688411376953125,-0.014224924707412719,0.0752893420010805,-0.019073387651890514
1783169868745480200,3.698480224609375,-0.03835866448879242,0.10152911415100097,-0.030284298300370573
1783169868755550500,3.708550537109375,-0.030680384945869443,0.1339274089306593,-0.04804667641893029
1783169868765619200,3.718619140625,0.03560907351970673,0.1273217270553112,-0.05985628361292183
1783169868775689500,3.728689453125,0.04315232850611209,0.11816343808770179,-0.04531308673657477
1783169868785758500,3.738758544921875,0.04033259491026401,0.09557342061698436,-0.013053542840480804
1783169868795828200,3.748828125,-0.011953472644090652,0.094809450507164,-0.0019156974282115698
1783169868805897500,3.7588974609375,-0.005767769746482372,0.08980418956577778,0.028415070362389085
1783169868815967200,3.76896728515625,-0.00800736536681652,0.043075171616673465,0.01699818881303072
1783169868826036500,3.779036376953125,-0.004921382050216198,0.03279927679598331,-0.027056860686466098
1783169868836106200,3.789106201171875,0.049018297930061815,0.036055648243427274,-0.047101942914724346
1783169868846175500,3.799175537109375,0.0564671526312828,0.022876433196663853,-0.06388035149723291
1783169868856245200,3.809245361328125,0.06444762999117375,-0.024475100564956664,0.007416779062524437
1783169868866314500,3.819314453125,0.019607202267646787,-0.03693769177496433,0.07644136158041656
1783169868876384500,3.829384521484375,0.04802899463176727,0.005974398234486579,0.11573526109270751
1783169868886453500,3.83945361328125,0.05262567477226257,0.06637246057391166,0.08493351478949189
1783169868896522800,3.849522705078125,-0.0015308628290891647,0.059652796930074685,0.002923486231267452
1783169868906591700,3.859591796875,0.02034603793621063,-0.00488251134455204,-0.0017195172689855097
1783169868916661800,3.869661865234375,-0.017294541411101816,-0.04084638965129852,-0.0006966770272701979
1783169868926730800,3.879730712890625,-0.06746873137801886,-0.037785248515009875,-0.014653086991608142
1783169868936800800,3.88980078125,-0.07817804917991161,0.030623101800680157,-0.03496558798439801
1783169868946869800,3.899869873046875,-0.05187631770968437,0.0714028559565544,-0.06276954071111977
1783169868956939800,3.909939697265625,-0.018564707477390766,0.06925766062140465,-0.06371222838871181
1783169868967008800,3.9200087890625,0.04100508734434843,0.07156710660755634,-0.058798518188297746
1783169868977078800,3.930078857421875,0.08658815012872219,0.07491583251357078,-0.06447576010711491
1783169868987147800,3.940147705078125,0.0725382897272706,0.07149345684945584,-0.0399389194175601
1783169868997217500,3.950217529296875,0.05822130282223224,0.05063128608465194,0.03532097729332745
1783169869007286800,3.960286865234375,0.007477204012870788,0.033013211807608606,0.06896174641475081
1783169869017356800,3.970356689453125,-0.05494622667431831,0.03699263683259487,0.04434840642288327
1783169869027425800,3.98042578125,-0.043808162066340445,0.0320201091170311,0.009987506333366036
1783169869037495800,3.990495849609375,-0.015755203014612196,0.020226795470714567,-0.05310783226601779
1783169869047564800,4.000564697265625,0.06731032594591378,-0.0013315408647060394,-0.061986573639884586
1783169869057634800,4.010634765625,0.07987462396472692,-0.00104220252931118,-0.05419774639457464
1783169869067703800,4.020703857421875,0.062169455926120276,0.051664136263728136,-0.05074534091837704
1783169869077773800,4.03077392578125,0.06841536457836628,0.057445642274618146,0.014722279770299792
1783169869087842800,4.0408427734375,0.05703939956128597,0.048688335323333734,0.091559654930979
1783169869097912800,4.050912841796875,0.04729658870398998,0.025845219874382017,0.06847586259394883
1783169869107981600,4.060981689453125,0.047207741376757616,0.05036006792783737,0.043439255688712
1783169869118051800,4.0710517578125,-0.14673077640235424,-0.011771686336398125,0.052052624124661086
1783169869128120600,4.08112060546875,-0.015364157870411873,0.0022205986589193343,-0.0031302608497440812
1783169869138190800,4.09119091796875,-0.03901625161468982,-0.010555296283960342,-0.029665070423483847
1783169869148259800,4.101259765625,-0.015641513507068158,0.00686930124759674,-0.07772117225788533
1783169869158329600,4.11132958984375,0.08522095342874526,0.032786417314410204,-0.0868002585094422
1783169869168398800,4.12139892578125,0.18209902690351007,0.057493573069572444,-0.1385221163097769
1783169869178468600,4.131468505859375,0.17256167549043894,0.05343816019892692,-0.07680924504473804
1783169869188537900,4.141537841796875,0.1724076539725065,0.04913315648138523,-0.007720511249452829
1783169869198607600,4.151607666015625,0.08605506616532801,0.012778817552328108,0.04823218905366957
1783169869208676900,4.1616767578125,-0.027177345260977745,0.03252630507349968,0.07245916007645428
1783169869218746600,4.17174658203125,-0.02644113994091749,0.03280746010243892,0.08702763752453029
1783169869228816000,4.18181591796875,-0.014754209278523922,0.02877075193226337,0.03873151638917625
1783169869238886000,4.191885986328125,0.006235387258231639,0.05025719207525253,-0.000978562708571553
1783169869248955000,4.201954833984375,0.017497662767767905,0.04166004412174225,-0.031155382046476006
1783169869259025000,4.21202490234375,0.07612871543467044,0.061166124102473254,-0.04282441172599792
1783169869269093600,4.22209375,0.15194675748497247,0.08460603640079498,-0.07568075247146189
1783169869279164000,4.232163818359375,0.139660984146595,0.07628712086677551,-0.05319748331084847
1783169869289232600,4.242232666015625,0.1386105983108282,0.040776831546425814,-0.0001701689351350069
1783169869299303000,4.252302978515625,0.0824377524510026,0.030644729110598564,-0.007648103600367904
1783169869309371600,4.26237158203125,-0.014352350479364393,0.03197977710664272,-0.013949322636425494
1783169869319442000,4.27244189453125,-0.06127572195678949,0.024537644407153128,-0.007016089307144284
1783169869329510700,4.2825107421875,-0.09435147760659456,-0.02093815861046314,0.040215690532326695
1783169869339580700,4.29258056640625,-0.0708107352823019,0.006365443378686905,-0.003523205690085888
1783169869349649700,4.302649658203125,-0.013783610680699348,0.06180676009356975,-0.0725173930697143
1783169869359719700,4.3127197265625,0.059705988422036164,0.09772270760536193,-0.1064757037077099
1783169869369790000,4.3227900390625,0.09975918186902999,0.09752572372853756,-0.09021715428084134
1783169869379858700,4.332858642578125,0.0761310535222292,0.0649111558496952,-0.07779957125633954
1783169869389928000,4.342927978515625,0.07085632798969745,0.06018412732779979,-0.06316496976949273
1783169869399997700,4.352997802734375,0.06468319231271744,0.06950549790263176,-0.02833915558196604
1783169869410067700,4.363067626953125,0.014436521631479262,0.09939385568797587,-0.01413980370722711
1783169869420136700,4.37313671875,0.019556348863244057,0.057681789118051524,0.007661547603830695
1783169869430206700,4.383206787109375,0.10198533348590134,0.004841010290384292,0.027344080130010842
1783169869440275700,4.393275634765625,0.11451426793038845,0.01219663375020027,-0.04009681339301169
1783169869450344700,4.4033447265625,0.08413140462636948,0.020798457878828048,-0.03147723441198468
1783169869460414700,4.413414794921875,0.06816694277524948,0.0037584757506847377,0.00011230126805603503
1783169869470484700,4.423484619140625,0.006933890916407108,-0.007551438292860984,0.012343275679275392
1783169869480554000,4.433553955078125,-0.03190846543610096,0.0008393734335899353,0.04444083394668996
1783169869490623700,4.443623779296875,-0.03995966994464397,0.06220423497855663,0.0020974106706678868
1783169869500692700,4.453692626953125,-0.02862491372078657,0.06425181515812874,-0.020905790710821746
1783169869510762800,4.4637626953125,-0.004659808504581451,0.07402911280691624,-0.05722425460889935
1783169869520831700,4.473831787109375,0.06956950304955244,0.09062310473322868,-0.06686002489514649
1783169869530901800,4.48390185546875,0.12095453011095524,0.11815934643447398,-0.09554901682808994
1783169869540970800,4.493970703125,0.061487611141800874,0.10124328294694424,-0.09266169788874686
1783169869551040800,4.504040771484375,0.043643326893448825,0.03804185362458229,-0.035077377795800564
1783169869561109800,4.51410986328125,-0.006296469795703887,0.002063362270593643,0.014900632011890411
1783169869571179800,4.5241796875,-0.0665758741915226,0.04571194986104965,0.005654664760828018
1783169869581248800,4.534248779296875,-0.05872457616925239,0.06429799238741397,0.029573300486803053
1783169869591318800,4.54431884765625,-0.006524433332681655,0.038701194316148754,-0.03752608612217009
1783169869601387800,4.5543876953125,0.012459668600559234,0.028368016350269316,-0.0645620501510799
1783169869611457800,4.564457763671875,0.0841802122041583,0.004329553636908531,-0.06610343437418341
1783169869621526800,4.57452685546875,0.11504705963283776,0.029198037433624265,-0.06069171152375638
1783169869631596800,4.5845966796875,0.06431757387071847,0.030600305446982383,-0.04331782126612961
1783169869641665800,4.594665771484375,0.04395049314647913,0.03132511259019374,-0.009574468553066253
1783169869651735800,4.60473583984375,0.01902238811701536,0.0520493361890316,0.028482582640647885
1783169869661804800,4.6148046875,0.005771569138765335,0.05505027157068252,-0.016761676643416285
1783169869671874800,4.624874755859375,0.007590308998525142,0.0535217468291521,-0.013121858836337923
1783169869681943600,4.634943603515625,0.024022972883284092,0.06375789416134357,-0.022639336505159733
1783169869692013800,4.645013916015625,-0.013629004640877245,0.07553016501963138,-0.07215849662944675
1783169869702082800,4.655082763671875,-0.02953764465153217,0.05119008901119232,-0.061434127388894554
1783169869712152800,4.66515283203125,0.010106675733625888,0.012608721682429313,-0.03603497078157961
1783169869722221800,4.675221923828125,0.011332418136298655,0.02097439896762371,-0.008573328686505555
1783169869732291600,4.68529150390625,0.016460136413574217,0.05573650026917457,0.019431188113614915
1783169869742360800,4.69536083984375,0.02985533229857683,0.055924131795763964,0.03462188911326229
1783169869752430600,4.7054306640625,0.07777063742280006,0.08344809853732585,0.06232238146550953
1783169869762499800,4.715499755859375,0.024271102425456045,0.1400783327758312,0.009949147084355354
1783169869772569600,4.725569580078125,-0.007206570377945899,0.11413140609264373,-0.03088051062785089
1783169869782638800,4.735638916015625,-0.01545534328520298,0.04509937092065811,-0.06751958478242158
1783169869792708900,4.745708984375,-0.02455897945612669,0.008088613909482956,-0.09569938508421182
1783169869802777900,4.75577783203125,-0.033606501525640486,0.012437456768751144,-0.07659070692323147
1783169869812847900,4.765847900390625,-0.020381693771481513,0.028672552254796025,-0.055507440753653645
1783169869822916900,4.775916748046875,0.019068565346300602,0.03121463795304298,-0.0391598978690803
1783169869832987000,4.78598681640625,0.04390139330774545,0.04728080661296844,0.006522679767012596
1783169869843055600,4.7960556640625,0.072765084220469,0.07215338206291198,0.013043167576938866
1783169869853126000,4.8061259765625,0.09327478828579187,0.04855623337626457,0.02713891294673085
1783169869863194600,4.816194580078125,0.07752133883684872,0.015665771165490148,0.07565919822677969
1783169869873265000,4.826264892578125,0.019634967057406902,0.031927170136570926,0.059273296093195676
1783169869883333600,4.836333740234375,-0.007677402760088443,0.012685878571867941,0.026098975439742204
1783169869893403600,4.846403564453125,-0.006349661287665367,-0.0010363573104143142,0.01579728859066963
1783169869903473000,4.856472900390625,-0.0058732759475708,0.03356733855903148,-0.03545665943697095
1783169869913543000,4.86654296875,0.009696341367065906,0.0574561636686325,-0.028714345569908616
1783169869923612200,4.876612060546875,0.0026110592812299727,0.06782265938222408,-0.04203063099980354
1783169869933682000,4.886681884765625,0.010508534532785415,0.07943477124273776,-0.01306384503878653
1783169869943751200,4.896751220703125,0.01940758804231882,0.07192308043837548,-0.006631839229911565
1783169869953821000,4.906821044921875,-0.016386194394528864,0.10073182629346847,-0.035328795273602005
1783169869963890200,4.91689013671875,-0.018174831376969812,0.06274433320462704,0.00621317542642355
1783169869973960000,4.9269599609375,-0.0065159577652812,0.03266717484891415,-0.04731953118816018
1783169869984029000,4.93702880859375,-0.013306933079659938,0.05276712906956672,-0.05860884083509445
1783169869994099000,4.947098876953125,-0.012345979093015193,0.0648065264314413,-0.03909830387495458
1783169870004168000,4.95716796875,-0.025855741268396376,0.07129647297263145,-0.048797348655760284
1783169870014238200,4.96723828125,0.021146248403191566,0.05918284133076667,-0.007172448912635445
1783169870024307000,4.977306884765625,0.03455284246504307,0.03782207339406013,0.014328165886178612
1783169870034377200,4.987377197265625,0.029411095662415027,0.05238952792882919,0.02174319138303399
1783169870044446000,4.997446044921875,0.02433539983332157,0.10682488247156142,0.022515271734073757
1783169870054516000,5.007515869140625,0.05190583606511354,0.1237836160570383,-0.05568279732055962
1783169870064585000,5.0175849609375,0.027447394374012946,0.036492286095023155,-0.05115706352442503
1783169870074655000,5.027655029296875,0.04896130704581737,-0.008929156386852264,0.0033379122510552406
1783169870084724000,5.037723876953125,0.01712181519269943,-0.012274959683418274,-0.027518121522665022
1783169870094794000,5.0477939453125,-0.003980301807820797,0.0008937339693307876,0.011478913934901356
1783169870104863000,5.057863037109375,0.00343728097230196,0.046610944527387614,0.036534883127734064
1783169870114933000,5.06793310546875,0.01398351716697216,0.06733984430134296,0.01701769723109901
1783169870125002000,5.078001953125,0.010222411067783831,0.08629472014009952,0.028687384497746823
1783169870135072000,5.088072021484375,0.07461977217644453,0.04972819976508617,0.01427826232984662
1783169870145141200,5.098141357421875,0.07713672343343496,0.03402326563298702,0.04408654061630368
1783169870155211000,5.1082109375,0.0310723068729043,0.057367316341400146,0.005172580332309007
1783169870165280000,5.118280029296875,-0.03374590999633074,0.05031155261099338,-0.04617679089382291
1783169870175350000,5.12835009765625,-0.0574804213270545,-0.00032440964877605437,-0.030901480350643395
1783169870185419000,5.1384189453125,-0.06412614295184611,-0.025915947023034094,-0.07429360896199941
1783169870195489000,5.148489013671875,-0.08289338726401328,-0.016163199293613432,-0.0841767781380564
1783169870205558000,5.15855810546875,-0.016734861701726913,0.037409400939941405,-0.04171593902744353
1783169870215628000,5.1686279296875,0.030307459980249404,0.09327040437161922,-0.029907062485814092
1783169870225697000,5.178697021484375,0.07588906145989895,0.10641863975822925,0.017514613902568817
1783169870235767000,5.18876708984375,0.09962766444385052,0.09489712879061699,0.045080447024479504
1783169870245836000,5.1988359375,0.05868190607130527,0.12307283743917942,0.00569923455491662
1783169870255906000,5.208906005859375,0.052497372217476364,0.08880290356874465,-0.0048032355632632966
1783169870265975000,5.21897509765625,0.03439297572821379,0.023674305576086043,-0.012316095411404967
1783169870276045000,5.229045166015625,-0.020126842227578164,-0.016810849547386167,-0.02354541849941015
1783169870286114000,5.239114013671875,-0.044213235735893246,-0.029117957934737204,-0.07602035968936979
1783169870296184000,5.24918408203125,-0.015743512576818466,-0.015144962161779402,-0.06281374517902731
1783169870306253000,5.259253173828125,-0.01015109939724207,0.009081716600060463,-0.044740036088973284
1783169870316323000,5.269322998046875,-0.053768415066599844,0.026484102299809454,-0.025134222060814497
1783169870326391800,5.279391845703125,-0.01596066245883703,0.056523266732692715,-0.019126652209088206
1783169870336462000,5.289462158203125,0.01753419538587332,0.07761690816581249,-0.0157795337382704
1783169870346530800,5.29953076171875,0.023590134423971176,0.08039104905426502,-0.050007455097883936
1783169870356601000,5.30960107421875,0.057447103579342365,0.094330142557621,-0.0787234811682254
1783169870366669800,5.319669921875,0.04884527945071458,0.07228431496620177,-0.054881052483618256
1783169870376740000,5.329739990234375,0.05310848985314369,0.06210135912597179,-0.00982011387720704
1783169870386809000,5.33980908203125,0.020778584134578705,0.07300503045618534,0.01311440618224442
1783169870396878800,5.34987890625,-0.008107026349008083,0.0847311240851879,0.0032864012595266103
1783169870406948000,5.359947998046875,0.032031799554824825,0.03618307401537895,0.01646576243676245
1783169870417017900,5.370017822265625,0.014911445666849613,0.03529693883061409,0.0014293021507561206
1783169870427087000,5.380087158203125,-0.02312543952167034,0.03183540019989013,-0.026470877492055296
1783169870437156900,5.390156982421875,-0.014549334356188773,0.015960370197892187,-0.05642535931617021
1783169870447226000,5.40022607421875,-0.032037644773721695,0.03051321168541908,-0.042224473071470855
1783169870457296000,5.4102958984375,0.0048632221221923825,0.04892272860109806,-0.058136181822046634
1783169870467365000,5.420365234375,0.010810147827863693,0.05819090768396854,-0.10286956897452473
1783169870477435100,5.43043505859375,0.008835340623557567,0.089458737128973,-0.08543693426698445
1783169870487504100,5.440504150390625,0.03515402322858572,0.055876785522699354,-0.0739404846753925
1783169870497574100,5.45057421875,0.02690437353849411,0.02166588836312294,-0.05652290140651166
1783169870507643000,5.460642822265625,0.03327332404851913,0.015978490376472473,-0.01152194935902953
1783169870517713200,5.470713134765625,0.05548603263944387,0.05033785609602928,0.05382606353797018
1783169870527782000,5.480781982421875,0.03197334736585617,0.09178454972803592,0.03829831260368228
1783169870537852200,5.49085205078125,0.016678455339372157,0.06428571742773055,0.05389737520851195
1783169870547921000,5.5009208984375,0.028411563231050967,0.048100306302309034,0.05770853099450469
1783169870557991000,5.510990966796875,0.019608371311426162,0.06306114406883716,-0.004438932295516133
1783169870568060000,5.521059814453125,0.025993103912472722,0.06674421649575234,-0.03485745143480599
1783169870578130000,5.5311298828125,0.04152297373861074,0.03372106781601906,-0.020766163044422865
1783169870588199000,5.541198974609375,0.005452712447941303,0.04795534487366676,-0.022977044026926158
1783169870598269000,5.55126904296875,-0.032576281695067884,0.05289923101663589,-0.037905513893812894
1783169870608338200,5.561338134765625,-0.011418635115027427,0.04006429936289787,-0.026060470060259102
1783169870618408000,5.571407958984375,0.031417467048764226,0.028174539604783055,-0.025389658126607536
1783169870628478000,5.58147802734375,0.06872866831123828,0.021727847683429717,0.006756999979540705
1783169870638547000,5.591546875,0.08471475747227668,0.018421207353472708,0.014400135143846273
1783169870648617000,5.601616943359375,-0.012326689870655536,0.03579436695873737,0.008860036673396826
1783169870658686000,5.61168603515625,-0.018592180006206036,-0.0016658873856067657,0.04065137853585184
1783169870668756000,5.621755859375,0.01622603539675474,0.00976502268910408,0.025470249082148073
1783169870678825000,5.631824951171875,-0.02951192568838596,0.03794131585955619,-0.0038047991104424
1783169870688894000,5.64189404296875,-0.0006008885025978088,0.0626893881469965,-0.01283485858850181
1783169870698964200,5.651964111328125,0.032765374526381494,0.0874848067075014,0.020060498993098735
1783169870709034000,5.662033935546875,0.04963029234856367,0.08032032190561295,0.010779971885308623
1783169870719103000,5.67210302734375,0.07113777527958154,0.0746148037403822,0.030648820763826367
1783169870729173000,5.682173095703125,0.08661299230903387,0.09083411713540554,0.023811156763508916
1783169870739242000,5.692241943359375,0.06553367166221141,0.10614917516708373,0.00009155074097216129
1783169870749312000,5.70231201171875,0.004611293187737464,0.06897533654868603,-0.017241276853904128
1783169870759381000,5.712381103515625,-0.0267260943621397,0.041833062601089474,-0.020210721118748186
1783169870769451000,5.722450927734375,-0.06982493911534547,-0.0015589198797941208,-0.006363616747781634
1783169870779520000,5.73252001953125,-0.08000234199762343,0.008360416588187217,-0.0029938480537384745
1783169870789590000,5.742590087890625,-0.04971124863028526,0.030375849041342735,-0.039375951772555706
1783169870799659000,5.752658935546875,-0.028451310719549653,0.04805880524814129,-0.08716982247419655
1783169870809729000,5.76272900390625,0.03088321404159069,0.0280506209641695,-0.07176014496162533
1783169870819798000,5.772798095703125,0.062008420145511625,0.025236732587218282,-0.04950571612082422
1783169870829868000,5.782867919921875,0.07109715100824833,0.02513444125652313,-0.011474968412145972
1783169870839937000,5.79293701171875,0.07612462378144264,0.03017418898940086,0.03608991583921015
1783169870850007000,5.803007080078125,0.04452624720782041,0.08541267660856247,0.07383965464942156
1783169870860076000,5.813075927734375,0.047237551993131635,0.09268003726303577,0.11292261482477188
1783169870870146000,5.82314599609375,-0.04049216938614845,0.11974924597442149,0.004166033638268709
1783169870880215000,5.833215087890625,-0.04184592208266258,0.042402971443533895,-0.03578801028318703
1783169870890285000,5.84328515625,-0.020497136844694612,-0.005081248787045478,-0.036845629577338695
1783169870900353800,5.853353759765625,-0.049613925735652445,-0.013887071055173873,-0.07196012451313435
1783169870910423800,5.863423828125,-0.025512919180095194,-0.0005874444991350174,-0.06101663262918591
1783169870920492500,5.873492431640625,-0.01627922688871622,0.01091477724611759,-0.04239135407097638
1783169870930562800,5.883562744140625,-0.04352262312322855,0.0058294368058443066,-0.005227013933286071
1783169870940631800,5.8936318359375,-0.0423112015068531,0.01756546730697155,-0.09153583566397427
1783169870950701800,5.903701904296875,0.1261702189326286,0.055614919716119766,-0.2113224179740995
1783169870960770800,5.913770751953125,0.045641514973342415,0.04589958138763904,-0.011976268997788428
1783169870970840600,5.923840576171875,-0.00663578475266695,0.08173486487865447,-0.027439430263265965
1783169870980909800,5.933909912109375,0.042541210870444775,0.04983516727089882,0.03769413616545498
1783169870990979600,5.9439794921875,0.027508476911485193,0.10064473253190517,0.04727291556745767
1783169871001048800,5.954048828125,-0.008258709779381751,0.12934417279362678,0.02282097668237984
1783169871011118600,5.96411865234375,-0.0032432197049260137,0.15302432358860968,-0.0010547697499394416
1783169871021187800,5.974187744140625,0.012565759323537349,0.11949264086484908,-0.03345481809526682
1783169871031257900,5.9842578125,0.08366787876784801,0.05067161809504032,-0.03816248432956636
1783169871041326800,5.994326904296875,0.05411620559096336,-0.001464227333664894,-0.05604110923893749
1783169871051396900,6.00439697265625,0.00852495950013399,-0.0007318214058876037,-0.011019187468662857
1783169871061465900,6.0144658203125,0.022066870379447937,0.01000116953253746,0.005175649072229862
1783169871071535900,6.024535888671875,0.01957709939032793,0.049313189223408695,-0.015700769413635133
1783169871081604600,6.0346044921875,0.02574965054541826,0.06423252593576907,-0.005099661226570606
1783169871091675000,6.0446748046875,0.04063187011778355,0.0762087949335575,-0.014885361377522348
1783169871101743600,6.05474365234375,0.03953530705273151,0.06666589056253433,-0.01682334370277822
1783169871111814000,6.06481396484375,0.09335282195806503,0.023901684591174123,0.017206497801467775
1783169871121882600,6.074882568359375,0.06458470037430525,-0.006195932030677795,0.03196962103880942
1783169871131952600,6.08495263671875,0.05807341878414154,0.02116261501610279,0.0558818270239979
1783169871142021600,6.095021728515625,0.054313773989677426,0.026504560565948486,0.016864041039347646
1783169871152091600,6.105091552734375,0.06840951935946941,0.027131168031692503,0.002308715333789587
1783169871162161000,6.115160888671875,0.0250835878521204,0.018591303223371505,0.02285224860347807
1783169871172230700,6.125230712890625,0.04642331300079822,0.0028448680371046067,0.04438311241008341
1783169871182300000,6.1352998046875,0.02012041248679161,0.03758943368196487,0.035584377469867465
1783169871192369700,6.14536962890625,0.07093465392291545,0.062383683198690414,0.03654182432517409
1783169871202439000,6.15543896484375,0.0872349235996604,0.07412555891871452,0.04804631109274923
1783169871212508700,6.1655087890625,0.06690554453730582,0.08023030553460121,0.03425780504122376
1783169871222578000,6.175577880859375,0.061252341081202026,0.06066518884301185,-0.013441446179524063
1783169871232647700,6.185647705078125,0.02187310137301683,0.05246843838393688,-0.08452559157572687
1783169871242716700,6.195716552734375,-0.006451660357415676,0.011850596791505814,-0.12050021047219633
1783169871252787000,6.205786865234375,-0.023571721984446046,-0.0119862058699131,-0.09041311524435877
1783169871262855700,6.215855712890625,-0.0434177014440298,0.024417232897877693,-0.07663659189157188
1783169871272926000,6.225926025390625,-0.003156418204307556,0.043382045608758926,-0.05932941019460559
1783169871282994700,6.23599462890625,0.012387772408127783,0.0726449649721384,-0.023703020213916896
1783169871293065000,6.24606494140625,0.012067162151634692,0.07012976728081703,-0.006495061107724904
1783169871303133700,6.2561337890625,0.0463873649045825,0.06375497155189513,-0.007924144062772392
1783169871313203700,6.26620361328125,0.07274725630283355,0.09098024760782718,-0.0017691285643726587
1783169871323272700,6.276272705078125,0.04629676401168108,0.07421148363649845,-0.0045662850022315975
1783169871333342700,6.2863427734375,0.06153320384919643,0.04898702600896358,0.012697495944425463
1783169871343411700,6.29641162109375,0.026185119353234768,-0.0062087915122509,0.01819054040275514
1783169871353481700,6.306481689453125,0.004492342983186245,-0.012026537880301474,0.016615034714341163
1783169871363550700,6.31655078125,-0.020575462777912615,-0.04192950871288776,-0.004976838564500212
1783169871373620700,6.326620849609375,0.013145897299051284,-0.038621114817261694,-0.04643975267894566
1783169871383690000,6.33668994140625,0.051146249869465824,-0.016097148320078847,-0.07431362883672117
1783169871393759700,6.346759765625,0.029134909069538115,-0.0009147767573595046,-0.08655680514238774
1783169871403828700,6.356828857421875,0.030559388914704323,0.052205988055467605,-0.04521262203678488
1783169871413898800,6.366898681640625,0.07101619472652673,0.0680786799699068,-0.0499228455543518
1783169871423967700,6.3769677734375,0.09875205065310001,0.05661152953803539,0.005381473842635751
1783169871434037800,6.387037841796875,0.06988982104510068,0.051564183020591736,0.06807517283856869
1783169871444106800,6.397106689453125,0.04734539628177881,0.07497019304931163,0.06968677275367081
1783169871454176800,6.4071767578125,0.026453999422490597,0.09499123681485652,0.04846234454773366
1783169871464245800,6.417245849609375,0.008334989885985852,0.06681026746928692,0.008598901519179344
1783169871474315500,6.4273154296875,0.03857289176136255,0.029562779092788694,-0.02317000931575894
1783169871484385800,6.4373857421875,0.06924070948660373,0.01889993078112602,-0.09170636992529034
1783169871494454800,6.447454833984375,0.09060060064047575,-0.011111176601052283,-0.04184073445089161
1783169871504524800,6.45752490234375,0.06071662676930427,0.017932547053694722,-0.18643164928033948
1783169871514593800,6.46759375,0.07464987505376339,-0.08325228370428085,-0.0056870326604694125
1783169871524663800,6.477663818359375,0.029594927796721456,-0.015720131701231002,0.06187332252375781
1783169871534732800,6.48773291015625,-0.004662731114029884,0.06894552593231201,0.115326826422289
1783169871544802600,6.497802490234375,0.05776742157489061,0.13675707939863205,0.11089425080232322
1783169871554871800,6.507871826171875,0.050504152573645114,0.14824351905286312,0.02558985687382519
1783169871564941600,6.517941650390625,0.044677346116304396,0.12633330053985117,-0.004139730153232813
1783169871575010800,6.5280107421875,0.03531505900919437,0.08968260901272296,-0.04700447388961911
1783169871585080800,6.538080810546875,0.03278115661740303,0.04924713824987411,-0.044906990153715014
1783169871595149800,6.54814990234375,0.010271218645572662,0.04125847758352756,-0.04119337645806372
1783169871605219800,6.5582197265625,-0.010153145223855973,0.05248772760629654,-0.07096994443200529
1783169871615288800,6.568288818359375,0.005374678775668144,0.09042495181262493,-0.0795673846464604
1783169871625358800,6.57835888671875,0.02185410441160202,0.06066109718978405,-0.07338073190078138
1783169871635427800,6.588427734375,-0.013815174862742424,0.041677579778432845,-0.07023885367847979
1783169871645497900,6.598497802734375,-0.025270634856820105,0.037813890087604524,-0.07720701219066978
1783169871655566600,6.608566650390625,-0.01723813504874706,0.011032266145944594,-0.05705905410982668
1783169871665636900,6.618636962890625,-0.03553688506633043,-0.014788988330960273,-0.007213073183968663
1783169871675705600,6.62870556640625,-0.07556026789695024,0.03977145389616489,0.016634835393354294
1783169871685776000,6.63877587890625,-0.03920709801167249,0.08576222069859504,0.020297668749839067
1783169871695844600,6.6488447265625,0.03505231641978025,0.10631401033997535,0.032314854279905554
1783169871705914600,6.65891455078125,0.10589929205924271,0.09534428803622721,-0.010608341645449399
1783169871715984000,6.66898388671875,0.07993921363353729,0.08541033852100371,-0.058423912722244856
1783169871726053600,6.6790537109375,0.09491963288336992,0.056523851254582404,-0.0537931111164391
1783169871736123000,6.689122802734375,0.07335194419771432,0.03893851020336151,-0.014354030979797244
1783169871746192600,6.699192626953125,0.005358896684646606,0.024086393508315086,0.006454509901627898
1783169871756262000,6.709261962890625,-0.04514905528128147,0.01058978307545185,-0.016652736376225948
1783169871766331600,6.71933154296875,-0.06369944197237491,-0.011591653594374656,-0.01776004003100097
1783169871776401000,6.72940087890625,-0.08810761478096246,-0.017454992669820785,-0.03186813342571258
1783169871786470700,6.739470703125,-0.04227437662780285,0.009344751450419426,-0.036276012995839116
1783169871796540000,6.749539794921875,-0.01248597208559513,0.029845687687397003,-0.01091112398430705
1783169871806610000,6.75960986328125,0.014013035522401332,0.026409868019819257,0.03474149690493941
1783169871816678700,6.7696787109375,0.019164134675264358,0.14585048643648624,-0.08275741285942495
1783169871826749000,6.7797490234375,-0.02409545359760523,0.17183540704250336,-0.12891783714033664
1783169871836817700,6.789817626953125,0.0428971847012639,0.11898702943027019,-0.058795011056959626
1783169871846888000,6.799887939453125,-0.03982376860529184,0.05883037463128567,-0.07700301405116915
1783169871856956700,6.809956787109375,-0.1277060501977801,0.049019174712896345,-0.10597111518643795
1783169871867026700,6.820026611328125,-0.11802315283417701,0.024769115075469014,-0.09655614804401993
1783169871877095700,6.830095703125,-0.10719254674017428,-0.000841126999258995,-0.10303871499635278
1783169871887165700,6.840165771484375,-0.12293781288266181,-0.003848492121696472,-0.04808123627565801
1783169871897235500,6.8502353515625,-0.06921236017495393,0.0325298122048378,-0.03228453220687806
1783169871907305500,6.860305419921875,-0.01388327166289091,0.08914426435232162,-0.046564840363338585
1783169871917374500,6.87037451171875,-0.004960545016825199,0.09989128381609916,-0.08077128054350614
1783169871927444500,6.880444580078125,0.08120236543715,0.06422434262931347,-0.05264109153710305
1783169871937513500,6.890513427734375,0.10303308897316456,-0.015194646522402763,0.014792422397062181
1783169871947583500,6.90058349609375,0.07276888361275195,-0.021276596784591675,0.03983604356497526
1783169871957652200,6.91065234375,0.09122370097488164,-0.007811550533771514,0.06407857748307287
1783169871967722500,6.920722412109375,0.11857611054182052,0.02059270617365837,0.11635682705715297
1783169871977791200,6.930791259765625,0.104777886813879,0.03478022148013115,0.14325089839734137
1783169871987861500,6.940861572265625,0.058390814170241355,0.06581015051603317,0.11790705217383801
1783169871997930200,6.95093017578125,0.04500730872303247,0.09296937559843063,0.0980411989700049
1783169872008000300,6.961000244140625,0.07759148146361113,0.11167816772162914,0.07054317038729786
1783169872018069200,6.9710693359375,0.07345335874557495,0.10095628269910811,0.021509528757631777
1783169872028139300,6.98113916015625,0.044864393121004105,0.10046528431177139,-0.030395722785592078
1783169872038208500,6.99120849609375,0.032309155191481115,0.05672317321896553,-0.09844744168333709
1783169872048278300,7.0012783203125,0.006578209346532821,-0.0007008417457342147,-0.09345167922265828
1783169872058347500,7.011347412109375,0.012731471279263495,-0.03212941471040249,-0.0644892771758139
1783169872068417300,7.021417236328125,0.008990823446214198,0.01566401759982109,-0.056471536545455454
1783169872078486500,7.031486572265625,0.02389876198172569,0.037836686441302295,-0.046768984633311625
1783169872088556300,7.041556396484375,0.06174100138098001,0.0678220748603344,0.002270721410959959
1783169872098625500,7.05162548828125,0.05359481206536293,0.08947977991700172,0.011724632324278355
1783169872108695300,7.0616953125,0.04546820423305034,0.14570903213918207,0.03350983621813357
1783169872118764300,7.071764404296875,0.030548867520689964,0.1490934138804674,0.005002192201465368
1783169872128834600,7.08183447265625,0.00856675281524658,0.1355003573358059,-0.050128012737631795
1783169872138903300,7.0919033203125,-0.03131722154468298,0.0918511852234602,-0.06373100615441799
1783169872148973600,7.1019736328125,-0.05977028582990169,0.015796704068779945,-0.08170680782794952
1783169872159042300,7.112042236328125,-0.04133183508068323,-0.026035189488530158,-0.08260733686424791
1783169872169112300,7.1221123046875,-0.016481179201602934,-0.029829905596375463,-0.04705043192319572
1783169872179181300,7.132181396484375,0.020218612164258954,-0.016627894195914268,-0.012449512532725929
1783169872189251300,7.142251220703125,0.025213936233520508,0.02319090597331524,0.03775879889950156
1783169872199320300,7.1523203125,0.026288871988654136,0.08419394846856594,0.06229191326200962
1783169872209390300,7.162390380859375,0.08555354638397693,0.14727087462842464,0.051402635783329605
1783169872219459300,7.172459228515625,0.13961831404864788,0.13418109143078327,0.026223332471773025
1783169872229529300,7.182529296875,0.1199929916024208,0.07500818697214126,0.008987827771529554
1783169872239598300,7.192598388671875,0.06986760921329259,0.02573182262778282,-0.02527114631347358
1783169872249668400,7.20266845703125,0.007035889986157417,-0.009423077383637428,-0.04333323803097009
1783169872259737600,7.212737548828125,-0.0436620315939188,-0.06408697998523712,-0.010216858109831809
1783169872269807400,7.222807373046875,-0.06364157430529593,-0.09938274977207183,0.009823547943308948
1783169872279877400,7.23287744140625,-0.05060235225111246,-0.10929098032414912,-0.01249568976201117
1783169872289946400,7.2429462890625,-0.00708498982489109,-0.059759179913997644,-0.013156710954010485
1783169872300016400,7.253016357421875,0.019748072043061254,-0.0028910452663898465,-0.0009393266767263412
1783169872310085400,7.26308544921875,0.022632979829609393,0.024842764833569526,0.011527721512690187
1783169872320155400,7.2731552734375,0.059577101345360275,0.07798515695631504,0.033365751572325825
1783169872330224400,7.283224365234375,0.08961948064863681,0.12412848397195339,0.05294416613690555
1783169872340294400,7.29329443359375,0.04542173474282026,0.13736673572957514,0.046021454201638695
1783169872350363400,7.30336328125,-0.006842413240671158,0.11653086844980716,0.01281622695326805
1783169872360433400,7.313433349609375,-0.02113777283579111,0.055223874571919435,-0.0217945562440902
1783169872370502400,7.32350244140625,-0.017815350414812563,0.006544307076930999,-0.05354907322749495
1783169872380572400,7.333572509765625,-0.040211306618154044,-0.022647885137796402,-0.05773688030615449
1783169872390641400,7.343641357421875,-0.013969488641619681,-0.029728783309459685,-0.07378704767934978
1783169872400711400,7.35371142578125,-0.0026537293791770934,0.0018698855251073835,-0.06029248307310044
1783169872410780400,7.363780517578125,0.056012686862051485,0.03982639895379543,-0.05810732105374336
1783169872420850200,7.37385009765625,0.08988514584749936,0.09284604147970676,-0.04248078592009842
1783169872430919400,7.38391943359375,0.10596388172805309,0.11481178957223892,-0.016689488190039993
1783169872440989400,7.393989501953125,0.07684329344481229,0.0827267985254526,0.006299830796569586
1783169872451058400,7.404058349609375,0.0035778584867715833,-0.00006079027652740478,0.09444660854414105
1783169872461128400,7.41412841796875,-0.009855039060115813,-0.012310615518689155,0.0937549730181694
1783169872471197400,7.424197509765625,-0.023338205489516258,-0.0126963999658823,0.01065196159146726
1783169872481267500,7.434267333984375,-0.00727934335321188,-0.029648119288682936,-0.009000614187866449
1783169872491336400,7.44433642578125,-0.03102525286078453,-0.050018707144260405,0.011630305104330182
1783169872501406500,7.454406494140625,-0.03618278175443411,-0.03276011382937431,0.0074302961312234395
1783169872511475200,7.46447509765625,0.02963087589293718,0.025868016228079795,-0.034641835922747846
1783169872521545500,7.47454541015625,0.08253419856280088,0.09178221164047717,-0.06736329824216664
1783169872531614200,7.4846142578125,0.10891221013963222,0.10444003316164016,-0.05253653518408537
1783169872541684500,7.4946845703125,0.11606588128656148,0.09550561607778071,-0.00771174342110753
1783169872551753200,7.504753173828125,0.07159574818015098,0.0901648395717144,0.011037453777715563
1783169872561823500,7.514823486328125,0.0458230090200901,0.07174655482769011,0.0023822920266538855
1783169872571892500,7.524892578125,0.02763239555209875,0.06805588361620903,0.046631256663054226
1783169872581962200,7.534962158203125,0.001541384223103523,0.05450783525705337,0.009903846637904643
1783169872592031500,7.545031494140625,-0.01476911458671093,0.03178279322981834,-0.014922843843698502
1783169872602101200,7.555101318359375,0.012545008796453476,0.016650690549612043,-0.011046586932241916
1783169872612170500,7.56517041015625,0.03488485089838505,-0.003975333371758461,-0.04720058098360896
1783169872622240300,7.575240234375,0.013646540297567844,-0.015238485664129256,-0.08490100075937806
1783169872632309500,7.5853095703125,0.02987754413038492,-0.005060205999016762,-0.0346549876652658
1783169872642379300,7.595379150390625,0.030615503016114234,0.04260696958303451,-0.016551394893601537
1783169872652448500,7.605448486328125,0.05675006122589111,0.06658639558553696,0.01372873868830502
1783169872662518500,7.6155185546875,0.11063654971420764,0.09430793072581291,0.01680317769758403
1783169872672587500,7.62558740234375,0.13703852668851613,0.11319675559103488,-0.014444631872698665
1783169872682657500,7.635657470703125,0.12740239107608795,0.08909224190413952,0.02361000816822052
1783169872692726300,7.645726318359375,0.11964578559994697,0.08410977731645107,0.03801796129234135
1783169872702796500,7.655796630859375,0.11082096637040376,0.06691781949698924,0.0027358547046780583
1783169872712865300,7.665865234375,0.10764905833601951,0.0660568187534809,0.006010346330702305
1783169872722935600,7.675935546875,0.039460488250851626,0.07713117047548293,0.0059490445975214235
1783169872733004300,7.68600439453125,0.09424801723212003,0.043836803638935086,0.033538331660255785
1783169872743074300,7.69607421875,0.0846487064987421,0.05094985051453113,0.026926220044121145
1783169872753143300,7.706143310546875,0.06278700330257415,0.07425766086578368,-0.00007101940959692001
1783169872763213300,7.71621337890625,0.06935498351603746,0.06791209123134613,0.010175722381845116
1783169872773282300,7.7262822265625,0.07562690339237452,0.0357364992916584,-0.014672960735857487
1783169872783352300,7.736352294921875,0.029583529619872567,0.02451543257534504,-0.05644479466900229
1783169872793421300,7.74642138671875,0.01624269427061081,-0.006888590469956398,-0.052447103334963316
1783169872803491300,7.7564912109375,-0.014763269367814063,-0.031231004565954207,-0.037093539923802016
1783169872813560600,7.766560546875,-0.009046645286679268,-0.024512509965896604,-0.0044018882207572455
1783169872823630300,7.77663037109375,0.00998334161490202,-0.03607493746578693,0.013254837566241622
1783169872833699600,7.786699462890625,0.013086276066303252,-0.004461655583977699,0.029344387101754545
1783169872843769300,7.796769287109375,0.042084991535544396,0.015348375779390334,0.011698182708770035
1783169872853838300,7.80683837890625,0.08777122243344783,0.04619944111704826,0.023853607665747404
1783169872863908400,7.816908447265625,0.07489391294270753,0.07860884181261062,0.022555749874934552
1783169872873977300,7.826977294921875,-0.02363835747987032,0.057365562775731085,0.045085707721486686
1783169872884047400,7.83704736328125,0.024264672684669492,0.1006955859363079,-0.010720569848269223
1783169872894116400,7.847116455078125,-0.024343875400722026,0.08192191188335418,-0.005675926744565367
1783169872904185900,7.857185791015625,-0.037818566262722016,0.05295183798670768,-0.06697049953229725
1783169872914254600,7.867254638671875,-0.01847965954244137,0.02299509114027023,-0.12368651235811412
1783169872924324900,7.877324951171875,-0.00997194343805313,0.03852992940247059,-0.10774528525210916
1783169872934393600,7.8873935546875,0.011796820777654647,0.02305705046057701,-0.10219532297477125
1783169872944463600,7.897463623046875,0.07052841120958328,0.01730652410984039,-0.06076419223807752
1783169872954532900,7.907532958984375,0.03966916256546974,0.03764613230526447,0.015688348323479293
1783169872964602600,7.9176025390625,-0.005322071805596351,0.07497545374631881,0.04936966865099966
1783169872974672000,7.927671875,-0.03502221354246139,0.08320435290932655,0.06130275609418749
1783169872984741600,7.93774169921875,0.000002922609448432922,0.04287058895528316,0.07741561344005167
1783169872994811000,7.947810791015625,0.03301554989516735,-0.03901975874602794,0.07306845108121633
1783169873004880600,7.957880615234375,0.010372340932488441,-0.034215573334693904,0.04650784947909414
1783169873014950000,7.967949951171875,0.04922492641806602,-0.024801263779401776,0.009482333290204405
1783169873025019600,7.97801953125,0.04457534704655409,0.02306055759191513,-0.019283523271232842
1783169873035089700,7.988089599609375,0.016125497631728648,0.0355360082834959,0.004412628810480237
1783169873045159000,7.998158935546875,0.014041092573106288,0.06177227330207825,0.011890198149532079
1783169873055228700,8.008228759765625,0.03448240757733583,0.09418751921653747,-0.009304565570503473
1783169873065298000,8.0182978515625,0.017748714919388293,0.10197627339661121,-0.02584704650528729
1783169873075367700,8.02836767578125,0.026087504197657107,0.07797697364985942,-0.03853460557758808
1783169873085437000,8.03843701171875,0.0374006331115961,0.0478752653747797,-0.011021306360512972
1783169873095506700,8.048506591796874,-0.019506664502620695,0.031021161207556724,-0.03198649910837412
1783169873105575700,8.05857568359375,-0.06792728880047798,0.023099136036634445,-0.043139907415956254
1783169873115645700,8.068645751953126,-0.0679632368966937,0.017167407900094984,-0.04750877014994621
1783169873125714700,8.078714599609375,-0.042267070104181764,0.03464578144550323,-0.06309102775044739
1783169873135785000,8.088784912109375,0.004379822519421577,0.050992520612478255,-0.039357977724447844
1783169873145853700,8.098853759765625,0.03949906669557094,0.08911562277972698,-0.06614595834165811
1783169873155924000,8.108924072265625,0.0689542937606573,0.10450140796005725,-0.08857077531330287
1783169873165992700,8.11899267578125,0.04643909509181976,0.06818447843194007,-0.08806984005384147
1783169873176062700,8.129062744140626,0.026739830626547334,0.037652562046051025,-0.07091485324390231
1783169873186131700,8.139131591796875,-0.003546294304728508,0.0036819033831357955,-0.03126256874799728
1783169873196201700,8.14920166015625,-0.019834873543679712,0.0005652326673269272,0.00007708382420241832
1783169873206270700,8.159270751953125,-0.0005894903257489204,0.017087328401207923,0.01198883621841669
1783169873216340700,8.1693408203125,0.025899288149178027,0.030726562175154685,0.02871536848321557
1783169873226409700,8.17940966796875,0.05162146616578102,0.047796939441561694,0.02250570018813014
1783169873236479700,8.189479736328124,0.025092355680465698,0.10830196928679943,-0.016054843548312783
1783169873246548700,8.199548828125,0.08163052772134542,0.1032096145838499,-0.01071224041134119
1783169873256618800,8.20961865234375,0.10156009381115436,0.032819150540232656,-0.014192629873007534
1783169873266687700,8.219687744140625,0.052604924245178694,0.00008767828345298767,-0.04158668662458658
1783169873276757800,8.2297578125,0.010579553942382336,-0.013317162212729453,-0.03611643851995468
1783169873286826800,8.23982666015625,-0.005960954231023788,-0.049395606809854505,-0.026703078812733292
1783169873296896800,8.249896728515624,0.009000175796449184,-0.03911912746727467,0.04828128889240324
1783169873306965800,8.2599658203125,0.0067293082550168035,-0.0031587562918663024,0.03908120660968124
1783169873317035800,8.270035888671876,0.011518588358163833,0.04393909496963024,0.024599676792696118
1783169873327104800,8.280104736328125,0.022955343651771543,0.10630991868674755,0.016608897234499452
1783169873337174500,8.290174560546875,0.02570259653329849,0.10838497139513492,-0.019527268899232147
1783169873347243800,8.300243896484375,0.057228200131654736,0.11734276935458182,-0.007186769698932767
1783169873357313800,8.310313720703125,0.04465133489221334,0.09453706330657005,-0.03815912332870066
1783169873367382800,8.3203828125,0.04314297615587711,0.07072481056451797,-0.07760850566364824
1783169873377452800,8.330452880859376,0.08094692937135696,0.019806524232029915,-0.05925400687083602
1783169873387521800,8.340521728515625,0.042694355605542654,-0.018043606212735173,-0.04027348513416946
1783169873397591800,8.350591796875,-0.007857143241167068,0.01504091726541519,0.00777034174054861
1783169873407660800,8.360660888671875,-0.004070025917887687,0.029668577554821968,0.008301599073037505
1783169873417730800,8.370730712890625,-0.06599281360656023,0.06066986501812935,-0.00215009070597589
1783169873427799800,8.3807998046875,-0.05146569108217954,0.04835632688999176,0.022402239813655613
1783169873437869800,8.390869873046874,-0.024983050087094307,0.05087035553753376,0.00010879413671791553
1783169873447938600,8.4009384765625,0.01517214242964983,0.07497837635576725,-0.05417633828036487
1783169873458008800,8.4110087890625,0.048128947874903676,0.0756511610507965,-0.0764348587743938
1783169873468077600,8.42107763671875,0.05964987432062625,0.06499766508936881,-0.07518544323518872
1783169873478147800,8.43114794921875,0.04949380648732185,0.04190262070596218,-0.03318623028695583
1783169873488216800,8.441216796875,0.03512801200449466,0.023386720806360242,0.00885426451973617
1783169873498286800,8.451286865234374,-0.014131985726952552,0.020530746853351593,0.03908844006806612
1783169873508355800,8.46135595703125,-0.07718933040350676,0.049259997731447215,0.053080505867674946
1783169873518425600,8.471425537109376,-0.07591185781359672,0.04811842648088932,0.07333163206204772
1783169873528494800,8.481494873046875,-0.03976736224293709,0.056201195171475406,0.06675283819362521
1783169873538564600,8.491564697265625,-0.012981646648049353,0.06317161870598792,0.012674188134074211
1783169873548633900,8.5016337890625,0.02914513820260763,0.06939736135303974,-0.024475392825901506
1783169873558703600,8.51170361328125,0.09247282425314188,0.06681319007873535,-0.037788171124458314
1783169873568772900,8.52177294921875,0.07947130386084318,0.03547404896318912,-0.06242796073183417
1783169873578843000,8.5318427734375,0.02884498621225357,0.031577626046538354,-0.036408918660506606
1783169873588911900,8.541911865234376,-0.020477847622334955,0.03028933980166912,-0.04739719953425228
1783169873598982000,8.55198193359375,-0.011554244193434714,0.02725800928175449,-0.03967449632771313
1783169873609050600,8.562050537109375,-0.03693535368740558,0.026062662017345428,-0.029140900418907403
1783169873619121000,8.572120849609375,-0.038251696982979776,0.013638064730167388,-0.009110358172655104
1783169873629189600,8.582189697265624,-0.023394904112815855,0.03675415190160274,-0.023217136393114922
1783169873639260000,8.592260009765624,-0.012070377022027968,0.047865913024544716,-0.044230990588292475
1783169873649328600,8.60232861328125,0.01593406671285629,0.015263035583496093,0.00027845161519944665
1783169873659399000,8.61239892578125,0.07811462855488062,0.06109948860704899,-0.02279255430549383
1783169873669467600,8.622467529296875,0.06487345418781042,0.07514028891921043,-0.003198869106546044
1783169873679537700,8.63253759765625,0.0903606544047594,0.07275777769684791,0.0010796849954873323
1783169873689606700,8.642606689453125,-0.008658230490982532,0.08509411217868328,-0.002115530849248171
1783169873699676700,8.6526767578125,-0.007907119862735271,0.07804653175473213,0.014375512159243225
1783169873709745700,8.66274560546875,-0.02852349917292595,0.05854512794911861,-0.0172235220015049
1783169873719815700,8.672815673828126,-0.04115706303566694,0.00958382090330124,-0.04022979212291539
1783169873729885000,8.682885009765625,-0.03139642426073551,-0.01093406646847725,-0.059276876289770006
1783169873739954700,8.69295458984375,-0.008583703950047492,-0.008376198679208755,-0.056504050575569266
1783169873750024000,8.70302392578125,0.02576017193943262,0.01135141509771347,-0.06225406546965241
1783169873760093700,8.71309375,0.03142272774577141,0.04352174634039402,-0.054607788500189776
1783169873770163000,8.723162841796874,0.0388452789619565,0.06311024390757083,-0.03230046042837202
1783169873780232700,8.733232666015626,0.08420885377675294,0.039594343763589855,0.008994038316607474
1783169873790301700,8.7433017578125,0.09163140499293804,0.09322188905477523,0.028335648450627922
1783169873800371700,8.753371826171875,0.019572130954265594,0.13991875829994677,0.0039558980189263815
1783169873810440700,8.763440673828125,0.044617724883556364,0.09698445645868778,-0.012087182026356459
1783169873820511000,8.773510986328125,0.029378362436592576,0.018526421293616292,0.008781272348761558
1783169873830579700,8.783579833984374,-0.02601677704900503,-0.003391396003961563,-0.021905469272658226
1783169873840649700,8.793649658203124,0.0028352234259247776,-0.014566285490989685,-0.020039383139833805
1783169873850719700,8.8037197265625,0.04791764321178198,0.0033744448691606518,-0.03287979468628764
1783169873860788700,8.813788818359376,0.04907733464092016,0.02798924616575241,-0.05577829358428716
1783169873870857700,8.823857666015625,0.03985124113410711,0.02967325372993946,-0.031389117737114426
1783169873880927700,8.833927734375,0.01443710615336895,0.050339609661698335,-0.011504852093756198
1783169873890997800,8.843997802734375,-0.0017626257583498953,0.049964346608519554,0.008315481467917562
1783169873901066800,8.854066650390624,-0.010822130526602268,0.08149696446955204,-0.00155263626947999
1783169873911136800,8.86413671875,-0.019528291812539098,0.09425298566818237,-0.003173369339108467
1783169873921206000,8.8742060546875,0.015473755724728106,0.0682791709780693,-0.02002002085223794
1783169873931275800,8.88427587890625,0.02595803259909153,0.0707493604838848,-0.04064933270923793
1783169873941345000,8.894344970703125,0.04456862504482269,0.05681202054619789,-0.07706694613285363
1783169873951414800,8.904414794921875,0.06136164667457342,0.06323240898251534,-0.039059287038818
1783169873961484000,8.914484130859375,0.086944708481431,0.07686053684055805,-0.021370704808831215
1783169873971553800,8.9245537109375,0.07956716545075178,0.0768278036147356,-0.017254574726894498
1783169873981623000,8.934623046875,0.0322118322968483,0.06773556562066078,0.0065481064692139625
1783169873991692800,8.94469287109375,-0.003568506136536598,0.044862639555335045,0.011257160943001509
1783169874001761800,8.95476171875,-0.0586436198875308,0.028080431580543515,-0.03138802175857126
1783169874011832000,8.96483203125,-0.015896365050971507,0.023261633121967315,-0.006423530241474509
1783169874021900800,8.97490087890625,-0.026495792737603188,-0.00634907676577568,-0.0016058277614414691
1783169874031971000,8.98497119140625,0.0063052376240491865,0.015375263786315917,-0.03373794588558376
1783169874042039800,8.995039794921874,0.10140811811983584,0.06179916130900383,-0.039722865514084695
1783169874052110000,9.005110107421874,0.11810147876739502,0.07876724724471569,-0.0036214784327894445
1783169874062178800,9.0151787109375,0.06164747787863016,0.07990589588582515,0.0295074687089771
1783169874072248800,9.025248779296875,0.06220657306611538,0.06405073962807654,0.05721957843378186
1783169874082317800,9.03531787109375,0.017578326788544655,0.06384323435723781,0.06527998916208744
1783169874092387800,9.045387939453125,0.010730360589921474,0.039536476096510884,0.05768215444423258
1783169874102456800,9.055456787109375,0.0281269010707736,0.02828501424193382,0.001829261253774166
1783169874112526800,9.06552685546875,0.019729951864480972,0.06123685125112533,-0.0689461835194379
1783169874122595800,9.075595947265626,0.0151341485068202,0.034918753167986864,-0.09763020701631903
1783169874132665900,9.085665771484376,0.0455287022486329,-0.013371522748470305,-0.0860764742795378
1783169874142735000,9.095735107421875,0.009438567213714123,0.013446926072239875,-0.06406834835000336
1783169874152804900,9.105804931640625,-0.011864625316858292,0.02266483627259731,-0.009010916386172175
1783169874162873900,9.115873779296875,0.015927929233014584,0.028235914403200148,0.014339783258736133
1783169874172944000,9.12594384765625,0.0017959435060620308,0.05526186849474907,0.034569793599843975
1783169874183012900,9.136012939453124,0.02112783596366644,0.026074352455139158,0.018960721057653427
1783169874193083000,9.146082763671876,0.01941197195649147,0.04694412200450897,0.021989421229064464
1783169874203152000,9.15615185546875,0.03472410737872123,0.05390051701366901,0.010319295570999384
1783169874213222000,9.166221923828125,0.03060556614398956,0.08496259475350379,0.013598609502613544
1783169874223291000,9.176290771484375,0.029928689795732495,0.06662555855214596,-0.011628916864842177
1783169874233360600,9.186360595703125,0.027444471764564514,0.08452887951135635,-0.02297353689558804
1783169874243430000,9.196429931640624,0.05667758051156997,0.07683949405252934,-0.028918343709409235
1783169874253500000,9.2065,0.06910714623481035,0.03350245662927628,-0.04172762946523726
1783169874263569000,9.21656884765625,0.052042029665410515,0.0032248072654008863,-0.042269115930795666
1783169874273639000,9.226638916015625,0.03572422433197498,-0.0005757540613412857,-0.025512846114858982
1783169874283708000,9.2367080078125,0.0037307109609246254,-0.006877484554052352,0.014412190907821058
1783169874293778000,9.24677783203125,-0.024349720619618893,0.00376665905714035,0.032870296205580234
1783169874303847000,9.256846923828125,-0.03054769847691059,0.02514145551919937,0.045808395972847936
1783169874313917000,9.2669169921875,-0.020500936236977577,0.034215573334693904,0.040668329670652745
1783169874323986000,9.27698583984375,0.0061129299223423,0.05208499202430248,-0.00029116496630012987
1783169874334056000,9.287055908203126,0.062386605808138845,0.0824222626209259,-0.05337349746488034
1783169874344124700,9.297124755859375,0.12634119158536194,0.06466624117791653,-0.06389803328439593
1783169874354195000,9.30719482421875,0.10047902057617902,0.05621931535005569,-0.01990209356099367
1783169874364263700,9.317263671875,0.06922375835180282,0.04740589429736137,0.02167765186615288
1783169874374334000,9.327333984375,-0.007066869646310806,0.06784194860458373,0.017466756172850727
1783169874384403000,9.33740283203125,-0.021408698731660843,0.06852467017173766,0.00674940119497478
1783169874394473000,9.347472900390626,-0.0367646732956171,0.013118424770236014,0.002245002447813749
1783169874404542000,9.3575419921875,-0.048666708013415334,-0.010579846203327178,-0.010216419718414544
1783169874414611700,9.36761181640625,-0.021883915027976035,0.00875379981994629,-0.03916333193518221
1783169874424681000,9.377680908203125,0.0254494985550642,0.041542555221915245,-0.037491745461151
1783169874434750700,9.387750732421875,0.06047638827264309,0.07389058111906051,-0.018847250745818018
1783169874444820000,9.397820068359374,0.0818316032513976,0.11211889722645282,0.0018188859902322292
1783169874454889700,9.4078896484375,0.10321136814951896,0.11996902620494365,0.0027907266970723867
1783169874464959000,9.417958984375,0.06518880374729633,0.0362678296893835,-0.08628449100703
1783169874475029000,9.428029052734376,-0.04215250381380319,-0.001104161849617958,0.00462685608305037
1783169874485098000,9.438097900390625,-0.038567046542465684,0.016667057162523268,0.02265847959704697
1783169874495168000,9.44816796875,-0.016882161217927932,-0.014302081596851347,0.04898768359608948
1783169874505237000,9.458237060546875,-0.005121580797433853,-0.011857026532292366,0.022005568646267057
1783169874515307000,9.46830712890625,0.008279752567410469,0.0015489830076694487,-0.041445962979644535
1783169874525375700,9.478375732421876,0.04541092108786106,0.03557926290333271,-0.048501799775287506
1783169874535446000,9.488446044921876,0.051499885612726205,0.055793783414363855,-0.00976151555776596
1783169874545514800,9.4985146484375,0.07293781043887138,0.060845806106925006,0.028608181781694293
1783169874555585000,9.5085849609375,0.07894844903051852,0.08401040859520435,0.010062032874301075
1783169874565653800,9.51865380859375,0.03564122222363949,0.07791793693900108,0.025060280041769144
1783169874575723800,9.528723876953125,0.0032706922337412832,0.06180500652790069,0.020457973878085612
1783169874585792800,9.538792724609374,0.010338730923831462,0.033406010517477984,-0.0055323535554111
1783169874595862800,9.54886279296875,-0.022185528323054312,0.02689385214447975,-0.046513913893699646
1783169874605932000,9.55893212890625,0.011806173127889633,0.04162672637403011,-0.03318096958994865
1783169874616001800,9.569001708984375,0.027561960664391517,0.0362462023794651,-0.005606880096346139
1783169874626071000,9.579071044921875,0.027041736182570456,0.05915186167061329,-0.0023819997657090423
1783169874636140800,9.589140869140625,0.044460488495230675,0.06972761622071266,-0.014730463076755403
1783169874646210000,9.5992099609375,0.06207827051132917,0.06597790829837322,-0.02335734858140349
1783169874656279800,9.60927978515625,0.05970131224691867,0.038892917495965955,-0.011867547926306723
1783169874666349000,9.61934912109375,0.03199029850065708,0.01544657545685768,-0.002209273547306657
1783169874676418800,9.629418701171875,-0.002452361588180065,0.048565585726499556,0.02397489595785737
1783169874686487800,9.63948779296875,-0.003541618129611015,0.04512041370868682,0.03305661255791783
1783169874696558000,9.64955810546875,0.012504384525120258,0.05512275228500366,-0.0003060702744871378
1783169874706626800,9.659626708984375,0.030772447143495082,0.06591010375916957,-0.019349355049058794
1783169874716697000,9.669697021484374,0.05137742827683687,0.05900105502307414,-0.02747355172857642
1783169874726765800,9.679765869140626,0.07223463060557841,0.05904314059913158,-0.04203435732685029
1783169874736835800,9.6898359375,0.038861937835812564,0.03269464737772941,-0.03737549867033958
1783169874746904800,9.69990478515625,0.0030500352203845977,0.03791150524318218,-0.05799056280627846
1783169874756974800,9.709974853515625,0.012267945420742034,0.027811551511287686,-0.013457812792435287
1783169874767043800,9.7200439453125,-0.025830606827139852,0.011550737062096595,0.006876973097398877
1783169874777113900,9.73011376953125,-0.006801204447448253,0.008001520147919654,0.028872385675832626
1783169874787184000,9.74018408203125,0.015403613097965717,0.043968321064114566,0.02537672557979822
1783169874797252900,9.7502529296875,-0.002594400407373905,0.07677402760088443,-0.014607348153740167
1783169874807323000,9.760322998046876,0.010812778176367282,0.0771808548361063,-0.016979191851615904
1783169874817391900,9.770391845703125,0.02180383552908897,0.06370762527883052,0.00599843669719994
1783169874827462000,9.7804619140625,-0.00847264479100704,0.07950842100083827,-0.030388270131498574
1783169874837531000,9.79053076171875,0.04198416150957346,0.06869476604163646,-0.0069571987267583605
1783169874847601000,9.800600830078125,0.05535217712670564,0.06492927602827549,-0.0391078754208982
1783169874857670000,9.810669921875,0.005880290210247039,0.03947510129809379,-0.050802843259274956
1783169874867740000,9.820739990234374,-0.007373159116506576,0.017597031489014623,-0.03729015847444534
1783169874877809000,9.830808837890626,0.030060207220911978,0.001696282523870468,-0.04690503210313618
1783169874887879000,9.84087890625,0.037083822247385975,0.023296119913458823,-0.04783018412403762
1783169874897948000,9.850947998046875,0.024203297886252403,0.03674070789813995,0.013368454008549451
1783169874908018400,9.861018310546875,0.048646249747276306,0.032926118046045304,0.039435061548650265
1783169874918087200,9.871087158203125,0.07540653863996268,0.05834697502851486,0.021123378984257576
1783169874928157400,9.881157470703124,0.044777007098495955,0.06247311504781246,0.026204408575594425
1783169874938226200,9.89122607421875,-0.009406126248836516,0.07686229040622711,0.020899434035271405
1783169874948296200,9.901296142578126,0.024497604657709598,0.046674657413363456,-0.008331701950356363
1783169874958365200,9.911365234375,-0.005306581975519657,0.014459902507066726,-0.022963161632046102
1783169874968435200,9.921435302734375,0.0036713819891214367,0.021202947026491163,-0.04032616516947746
1783169874978504400,9.93150439453125,-0.018202303905785082,0.04846621700525283,-0.031450273339822886
1783169874988574200,9.94157421875,0.007194295418262481,0.06834522195160389,-0.0368294821601361
1783169874998643500,9.9516435546875,-0.0014718261182308195,0.06547697303891181,-0.021566227380931377
1783169875008713200,9.961713134765626,-0.0010053776502609252,0.055934653189778326,0.0066602616067975755
1783169875018782500,9.971782470703126,0.005433423225581646,0.0621574732273817,-0.011079977745190261
1783169875028852200,9.981852294921875,0.009625029696524142,0.05975508826076984,-0.01129186693020165
1783169875038921500,9.99192138671875,0.0072945409223437304,0.06428571742773055,-0.012910554173216224
1783169875048991200,10.0019912109375,0.052690848962962625,0.041454876938462254,-0.004847659226879477
1783169875059060200,10.012060302734374,0.03914280060380697,0.07102116316258907,-0.03747296769544482
1783169875069130500,10.022130615234374,0.02760404624044895,0.06616963147819042,-0.05261529950872063
1783169875079199200,10.03219921875,0.02979512654393911,0.03164601510763168,-0.037529666318744416
1783169875089269500,10.04226953125,-0.005540098470449447,0.004416647398471832,-0.03151069829016924
1783169875099338200,10.052338134765625,-0.0009033785805106163,0.0017073884397745133,-0.003587503097951412
1783169875109408300,10.062408203125,0.008261047866940497,0.02329670443534851,0.028393881443887947
1783169875119477200,10.072477294921875,0.021962825483083724,0.05688508578240871,0.0021888152811676263
1783169875129547300,10.08254736328125,0.034920214472711084,0.06660626932978629,0.007128902031853794
1783169875139616300,10.0926162109375,0.06693857002407312,0.0589507861405611,-0.017542744018509984
1783169875149686300,10.102686279296876,0.047267654870450496,-0.007503507497906684,-0.025278964293748138
1783169875159755300,10.11275537109375,0.03714168991446495,0.015001754298806189,0.005193623120337725
1783169875169825300,10.1228251953125,-0.0026046295404434203,0.012045242580771446,0.0062452510651201006
1783169875179894300,10.132894287109375,0.0041547815918922424,0.011386486411094665,0.0228929459400475
1783169875189964300,10.14296435546875,0.00831716196835041,0.02719312735199928,0.030841201530769465
1783169875200033300,10.153033203125,0.026225451363623142,0.07697101147770881,0.012944529508054256
1783169875210103300,10.163103271484376,0.012234627673029899,0.02585164961516857,-0.0372372592434287
1783169875220172300,10.17317236328125,0.021050679074227807,0.015149053815007208,-0.07825418315604328
1783169875230242300,10.1832421875,0.056769058187305925,0.02513327221274376,-0.0891569046381861
1783169875240311300,10.193311279296875,0.06578969224989414,0.01653553973734379,-0.08413827275857329
1783169875250381300,10.20338134765625,0.03641717503219843,0.017203648257255552,-0.028766660279035565
1783169875260450300,10.2134501953125,-0.03195902657955885,0.0350134457141161,0.007998889799416065
1783169875270520300,10.223520263671874,-0.008931202213466168,0.049393268722295755,0.050483182850852605
1783169875280589300,10.23358935546875,0.0041948213413357735,0.06245616391301155,0.05967763911038637
1783169875290659000,10.2436591796875,0.017576865483820436,0.061650692749023434,0.047684930434450504
1783169875300728300,10.253728271484375,0.04303513186722994,0.07995967189967632,-0.0028594080191105603
1783169875310798300,10.26379833984375,0.04722527703344822,0.08667992006540298,-0.015167320124059915
1783169875320867300,10.273867431640625,0.03759644794464111,0.0610550649434328,-0.06855111978724598
1783169875330937300,10.283937255859374,0.017311492545902727,0.06721358757317066,-0.09053308836221695
1783169875341006300,10.29400634765625,-0.030232056656479833,0.05297989503741264,-0.08751936656422912
1783169875351076400,10.304076416015626,-0.005310673628747463,0.010953355690836906,-0.0891947524305433
1783169875361145300,10.314145263671875,0.007736147210001945,0.000058452188968658445,-0.013431801568344235
1783169875371215400,10.32421533203125,0.00611819061934948,0.006562427255511283,0.018070348089188337
1783169875381284400,10.334284423828125,0.024081132811307904,0.04249591042399406,0.018387378149107098
1783169875391354400,10.344354248046875,-0.0031470658540725706,0.07644494177699089,0.014616992764919996
1783169875401423000,10.354423095703124,0.1099780858054757,0.08391863865852356,0.0334668738592416
1783169875411493400,10.364493408203124,0.028233868576586246,0.09727379479408263,0.02171476900614798
1783169875421562000,10.37456201171875,0.025858371616899967,0.08108721462488173,0.030600524642691015
1783169875431632400,10.38463232421875,0.03306435747295618,0.047533320069313045,-0.017071254049241542
1783169875441701400,10.394701416015625,0.03169160781502724,0.018599486529827118,-0.03404394309483468
1783169875451771100,10.404771240234375,0.005327332502603531,-0.004999415722489357,-0.03186908327378332
1783169875461840400,10.41484033203125,0.0030436054795980453,-0.009035539370775222,-0.0615066811684519
1783169875471910100,10.42491015625,0.002778232541680336,0.006867547681927681,-0.07185162263736128
1783169875481979400,10.4349794921875,-0.023740356549620627,0.012898060017824172,-0.041871714111045004
1783169875492049200,10.445049072265626,-0.020285832181572913,0.040296939074993134,0.0009723521634936332
1783169875502118400,10.455118408203125,-0.01978665048778057,0.061038113808631896,0.03309526406787336
1783169875512188200,10.465188232421875,-0.0047714521855115885,0.07481997092366219,0.03220540255606174
1783169875522257400,10.47525732421875,0.031278643099963664,0.07814414691030978,0.015877295024320483
1783169875532327400,10.485327392578125,0.03729454238861799,0.07708557776808739,-0.046365591464191676
1783169875542396400,10.495396484375,0.07299334001839161,0.047429275172948836,-0.024117665429413317
1783169875552466400,10.505466552734376,0.04797609540075064,0.04684124615192413,-0.03052665568888187
1783169875562535200,10.51553515625,0.0012242810979485512,0.04825637364685535,-0.02585179574564099
1783169875572605400,10.52560546875,-0.010366495713591575,0.032168577677011485,0.011018091490119696
1783169875582674200,10.535674072265625,-0.03964607395082712,0.050515550750494,0.0017344225771725177
1783169875592744400,10.545744384765625,0.012917641501128672,0.03965630308389664,0.0022126345481723545
1783169875602813200,10.555813232421874,0.013063479712605476,0.04962590843439102,0.00015299860462546347
1783169875612883500,10.565883544921874,0.010194354017078876,0.08508943600356578,-0.027291765420883893
1783169875622952200,10.5759521484375,0.03796177412569523,0.0695955142736435,-0.023491861681267618
1783169875633022200,10.586022216796875,0.03045534401834011,0.05322013353407383,-0.025959493903815745
1783169875643092500,10.596092529296875,0.017732932828366757,0.062090253210067746,-0.030242797246202824
1783169875653161200,10.6061611328125,0.004110357928276062,0.05732289267778396,-0.02336326686553657
1783169875663230500,10.61623046875,-0.019056290386617183,0.04587210885882377,0.0019528876334428786
1783169875673300200,10.62630029296875,-0.018808160844445226,0.012885785058140755,-0.015651231183484195
1783169875683369500,10.636369384765626,0.00641921939253807,0.011247954723238944,0.0006166705936193465
1783169875693439200,10.646439208984376,0.03641805181503296,0.016264321580529213,-0.02676788767725229
1783169875703509200,10.65650927734375,0.04092266975790262,0.05008534263968467,0.003970072674751282
1783169875713578200,10.666578125,0.044672962202131745,0.07078384727537632,-0.018683876877650617
1783169875723648300,10.676648193359375,0.05984013619571924,0.06790916862189769,-0.005273337293043732
1783169875733717200,10.68671728515625,0.02131517522931099,0.07467208688557148,0.03720313777811825
1783169875743787300,10.696787353515624,-0.010264496643841266,0.050123921084403986,0.03777012401111424
1783169875753856500,10.7068564453125,-0.0029062428355216977,-0.020693243938684464,-0.025373656839877367
1783169875763926300,10.71692626953125,0.05140519306659698,-0.021740122643113136,-0.029760785882920027
1783169875773995500,10.72699560546875,0.02668868496119976,-0.013545125749707222,-0.025436931334435937
1783169875784065300,10.737065185546875,0.02917173394858837,0.0030243162572383877,-0.013400602712482213
1783169875794134300,10.74713427734375,0.01696545558720827,0.05058744694292545,0.030647870915755628
1783169875804204300,10.757204345703125,0.048127486570179456,0.08783142818808555,0.010913169810920952
1783169875814273300,10.767273193359374,0.04666179793179035,0.09119827427268028,0.03762910810522735
1783169875824343300,10.77734326171875,0.014416063365340232,0.09651742346882819,0.01092179150879383
1783169875834412300,10.787412353515625,0.023412439769506452,0.05669920782148838,0.022848010819777845
1783169875844482300,10.797482421875,0.00950403366535902,0.04238660483062267,-0.021927534973993894
1783169875854551300,10.80755126953125,-0.0001911386579275131,0.03347615314424038,-0.036257162164896724
1783169875864621300,10.817621337890625,0.01499386325329542,0.025000585743784904,-0.022683760168775914
1783169875874690300,10.827690185546874,0.043808162066340445,0.02007598882317543,-0.026220629058033226
1783169875884760300,10.83776025390625,0.042915597140789026,0.042159810337424275,-0.0350884106464684
1783169875894829300,10.847829345703126,0.01664221498221159,0.0517313562810421,-0.028283406806737185
1783169875904899000,10.857899169921875,0.03957388549745083,0.050666357398033136,-0.055371027957648034
1783169875914968000,10.867968017578125,0.03531564353108406,0.024611878687143325,-0.01984890206903219
1783169875925038000,10.8780380859375,0.04799976853728294,0.033357495200634,0.01748100389391184
1783169875935107000,10.888107177734375,0.14561492411494253,-0.04322714730799198,-0.048251551341265436
1783169875945177000,10.898177001953124,0.009805646960437297,-0.00035480478703975673,0.018769582399725912
1783169875955246000,10.90824609375,-0.02010170778632164,0.008814005574584007,-0.01954151662029326
1783169875965316000,10.918316162109376,0.006106500181555748,0.008283844220638275,0.08485876905284821
1783169875975384800,10.928384765625,-0.026278350594639777,0.03815057469606399,0.008787921285256742
1783169875985455000,10.938455078125,-0.14727292045503854,0.1521907953739166,0.1501240721024573
1783169875995524000,10.948524169921875,-0.08767828345298767,0.18008710255920887,0.11499262603186071
1783169876005594000,10.958593994140625,-0.022874095109105107,0.13877484896183012,-0.010750307399407029
1783169876015663000,10.9686630859375,-0.08419862464368343,0.08245850297808646,0.004106485470756888
1783169876025733000,10.978733154296876,0.010477554872632026,0.05543780958354473,-0.08471212712377309
1783169876035802000,10.988802001953125,-0.014849194085597992,0.01862988166809082,-0.15304010567963122
1783169876045871900,10.998871826171875,0.05137888958156109,-0.07786357640326022,-0.135009651209414
