time,seconds_elapsed,z,y,x
1783169865120460300,0.073460205078125,0.004177662543952465,-0.0015017995610833168,0.012881646864116192
1783169865130529300,0.083529296875,0.008496777154505253,0.003091620746999979,0.019620507955551147
1783169865140599300,0.093599365234375,0.006767885759472847,-0.004587332718074322,0.017604373395442963
1783169865150668000,0.10366796875,0.0055769202299416065,-0.0008418634533882141,0.014435743913054466
1783169865160738300,0.11373828125,0.002454380039125681,-0.006453807465732098,0.019497552886605263
1783169865170807300,0.123807373046875,0.00044609024189412594,-0.0023669209331274033,0.015917731449007988
1783169865180877300,0.133877197265625,-0.003029383486136794,-0.0032008960843086243,0.013345835730433464
1783169865190946300,0.1439462890625,0.0034871050156652927,-0.0010525239631533623,0.006870891898870468
1783169865201016000,0.15401611328125,0.01255844533443451,-0.018670253455638885,-0.0005670920945703983
1783169865211085300,0.164085205078125,0.010241495445370674,-0.020833272486925125,0.00551210530102253
1783169865221155000,0.174155029296875,-0.0006342821288853884,-0.013108327984809875,0.0163049828261137
1783169865231224300,0.184224365234375,-0.010197427123785019,-0.005474910140037537,0.018571864813566208
1783169865241294000,0.194294189453125,-0.011360589414834976,-0.0009733932092785835,0.011909526772797108
1783169865251363300,0.20436328125,-0.015042942017316818,0.01623355597257614,0.008493224158883095
1783169865261433300,0.214433349609375,-0.015961047261953354,0.015989726409316063,0.008303241804242134
1783169865271503000,0.224503173828125,-0.01317005418241024,0.01891334354877472,-0.002677770797163248
1783169865281572400,0.234572265625,-0.005810191854834557,0.021606458351016045,-0.010908883064985275
1783169865291641300,0.244641357421875,0.0024120518937706947,0.008650446310639381,-0.019313819706439972
1783169865301711400,0.25471142578125,0.012303896248340607,-0.004141771234571934,-0.024512559175491333
1783169865311781000,0.264781005859375,0.016376402229070663,-0.005871760658919811,-0.010949344374239445
1783169865321850400,0.274850341796875,0.014450741931796074,-0.00007834937423467636,-0.002569768577814102
1783169865331920100,0.284920166015625,0.00831854622811079,-0.0019494863227009773,-0.0009995689615607262
1783169865341989400,0.2949892578125,0.005982937756925821,0.0018906560726463795,0.004193922504782677
1783169865352059400,0.305059326171875,0.009488456882536411,0.0004000850021839142,-0.0001686017494648695
1783169865362128400,0.31512841796875,0.0011642402969300747,0.009516129270195961,0.00888823252171278
1783169865372198400,0.325198486328125,-0.004557561129331589,0.017122916877269745,0.008112720213830471
1783169865382267100,0.33526708984375,-0.0037323608994483948,0.010468059219419956,-0.0033573477994650602
1783169865392337400,0.34533740234375,0.004152460023760796,0.013991421088576317,-0.01966441608965397
1783169865402406100,0.35540625,0.010952542535960674,0.014773320406675339,-0.028549661859869957
1783169865412476400,0.365476318359375,0.012887861579656601,0.012467289343476295,-0.02447316236793995
1783169865422545200,0.375545166015625,0.0004914771998301148,0.00916258618235588,-0.004499292001128197
1783169865432615200,0.385615234375,-0.0056756045669317245,0.007344446144998074,-0.0022052449639886618
1783169865442684200,0.39568408203125,-0.011805136688053608,0.008427820168435574,-0.005115547217428684
1783169865452754200,0.405754150390625,-0.02003856562077999,0.013260658830404282,0.0016741820145398378
1783169865462823200,0.4158232421875,-0.022043805569410324,0.010810929350554943,-0.003363963682204485
1783169865472893200,0.42589306640625,-0.013378411531448364,0.0010861302725970745,-0.02028515562415123
1783169865482962400,0.43596240234375,-0.0023950585164129734,-0.008100012317299843,-0.02191847935318947
1783169865493032200,0.4460322265625,0.0020854438189417124,-0.007476832717657089,-0.015421963296830654
1783169865503101400,0.456101318359375,0.004903052002191544,-0.014891741797327995,-0.008399411104619503
1783169865513171200,0.466171142578125,0.002093417104333639,-0.01426137238740921,0.001978927757591009
1783169865523240400,0.476240478515625,-0.0012879101559519768,-0.009017767384648323,0.005435324739664793
1783169865533310200,0.486310302734375,-0.009512284770607948,0.007634446024894714,0.012226652354001999
1783169865543379200,0.496379150390625,-0.015126146376132965,0.018113598227500916,0.0057237036526203156
1783169865553449200,0.50644921875,-0.021394696086645126,0.023723280057311058,-0.004266346339136362
1783169865563518200,0.516518310546875,-0.013144819997251034,0.02525991201400757,-0.023645123466849327
1783169865573588500,0.52658837890625,0.0019515752792358398,0.02070004865527153,-0.02999170497059822
1783169865583657200,0.5366572265625,0.014431478455662727,0.012521492317318916,-0.030072111636400223
1783169865593727200,0.546727294921875,0.017083454877138138,0.009053790010511875,-0.01668653078377247
1783169865603796200,0.556796142578125,0.014263845048844814,0.005825395230203867,-0.007840067148208618
1783169865613866200,0.5668662109375,0.006264774594455957,0.0032610376365482807,-0.009911207482218742
1783169865623935200,0.576935302734375,-0.008981913328170776,0.01363586075603962,0.018857881426811218
1783169865634005200,0.587005126953125,-0.012841898947954178,0.015956273302435875,0.020894400775432587
1783169865644074200,0.59707421875,-0.004527629353106022,0.010675644502043724,0.0003962963819503784
1783169865654144300,0.607144287109375,0.00696044834330678,0.014286357909440994,-0.005835500080138445
1783169865664213200,0.617213134765625,0.01488490216434002,0.01505613885819912,-0.007449990138411522
1783169865674283300,0.627283203125,0.01633872091770172,0.0111157251521945,-0.010586128570139408
1783169865684352300,0.637352294921875,0.009442650713026524,0.009017542004585266,-0.01973591186106205
1783169865694422300,0.64742236328125,-0.0011082612909376621,0.012381380423903465,-0.020120738074183464
1783169865704491300,0.6574912109375,-0.007887820713222027,0.00914391502737999,-0.014513104222714901
1783169865714561300,0.667561279296875,-0.010412497445940971,0.006982227321714163,-0.007050393149256706
1783169865724630300,0.67763037109375,-0.002341924700886011,0.010296551510691643,-0.0007724834140390158
1783169865734700300,0.6877001953125,0.0038603113498538733,0.014211664907634258,0.002861133310943842
1783169865744769300,0.697769287109375,0.01329162996262312,0.010297883301973343,-0.003996506333351135
1783169865754839300,0.70783935546875,0.00744599150493741,0.0069952975027263165,-0.0024878254625946283
1783169865764908300,0.717908203125,-0.0005700746551156044,0.00727080786600709,-0.007305935490876436
1783169865774978000,0.72797802734375,0.00020943256095051765,-0.0025219013914465904,-0.02085769735276699
1783169865785047300,0.73804736328125,-0.005879781674593687,-0.005113980732858181,-0.014789600856602192
1783169865795117300,0.748117431640625,-0.004321832209825516,-0.004557379521429539,-0.013122729025781155
1783169865805186300,0.758186279296875,-0.003134150290861726,-0.009108828380703926,-0.009024268947541714
1783169865815256300,0.76825634765625,-0.00839043129235506,0.0031539625488221645,0.0031032341066747904
1783169865825325300,0.7783251953125,-0.009333456866443157,0.004357977770268917,0.001953813713043928
1783169865835395300,0.788395263671875,-0.009161416441202164,0.008249654434621334,-0.014902930706739426
1783169865845464300,0.79846435546875,-0.008820798248052597,0.011335193179547787,-0.01469387300312519
1783169865855534300,0.808534423828125,-0.010453582741320133,0.017173107713460922,-0.017324276268482208
1783169865865603300,0.818603271484375,-0.014942252077162266,0.00870063528418541,-0.017239976674318314
1783169865875673300,0.82867333984375,-0.00898129865527153,0.0034957528114318848,-0.01418160181492567
1783169865885742000,0.8387421875,-0.0018634030129760504,0.007399956230074167,-0.01691611483693123
1783169865895812400,0.848812255859375,0.0026107076555490494,-0.003943245857954025,-0.02775837481021881
1783169865905881300,0.85888134765625,0.003804199630394578,-0.008510813117027283,-0.020396027714014053
1783169865915951600,0.86895166015625,-0.008082552812993526,-0.006098255515098572,-0.01168775837868452
1783169865926020400,0.879020263671875,-0.012012298218905926,-0.010918175801634789,-0.003957728855311871
1783169865936090400,0.88909033203125,-0.01699027791619301,-0.007722647860646248,0.00047350465320050716
1783169865946159400,0.899159423828125,-0.020011812448501587,-0.004811706021428108,0.0047158002853393555
1783169865956229400,0.9092294921875,-0.017715634778141975,-0.008895664475858212,-0.008653534576296806
1783169865966298400,0.91929833984375,-0.01731128618121147,-0.0060949381440877914,-0.019949372857809067
1783169865976368400,0.929368408203125,-0.009799308143556118,-0.0027731768786907196,-0.021453794091939926
1783169865986437400,0.939437255859375,-0.004856013227254152,-0.00893654115498066,-0.02839294634759426
1783169865996507400,0.94950732421875,-0.0002681858604773879,-0.005616644397377968,-0.024975577369332314
1783169866006576400,0.959576416015625,-0.0004435586743056774,-0.007757008075714111,-0.00611503142863512
1783169866016646400,0.969646484375,-0.0018153528217226267,-0.010572236031293869,0.005716327577829361
1783169866026715400,0.97971533203125,-0.008216890506446362,-0.01850580796599388,-0.0027854430954903364
1783169866036785400,0.989785400390625,-0.011534390039741993,-0.02390509843826294,-0.001630696700885892
1783169866046854400,0.9998544921875,-0.012895547784864902,-0.014676849357783794,-0.003561960067600012
1783169866056924400,1.00992431640625,-0.00785311870276928,-0.007183779962360859,-0.008636612445116043
1783169866066993400,1.019993408203125,-0.011874040588736534,-0.0015627909451723099,-0.008715135976672173
1783169866077063400,1.0300634765625,-0.015550533309578896,0.006741211283951998,-0.013234253041446209
1783169866087132400,1.04013232421875,-0.01842246949672699,0.00807079765945673,-0.01908314973115921
1783169866097202200,1.0502021484375,-0.01685892790555954,0.001277339644730091,-0.035656269639730453
1783169866107271400,1.060271484375,-0.01684410311281681,-0.004389441572129726,-0.035363730043172836
1783169866117341200,1.070341064453125,-0.014127412810921669,-0.011800486594438553,-0.017191652208566666
1783169866127410400,1.080410400390625,-0.008361482992768288,-0.02731461077928543,0.0018792875343933702
1783169866137480400,1.09048046875,-0.006179289426654577,-0.03388276323676109,0.01213032752275467
1783169866147549400,1.100549560546875,-0.004321169573813677,-0.0328662283718586,0.015068203210830688
1783169866157619500,1.110619384765625,0.00018942647147923708,-0.027028314769268036,0.01580403372645378
1783169866167688400,1.1206884765625,0.003432502970099449,-0.018948927521705627,0.013049501925706863
1783169866177758500,1.130758544921875,-0.001589952502399683,-0.012356271035969257,-0.0017073398921638727
1783169866187827500,1.140827392578125,-0.012633226811885834,0.0008666897192597389,-0.00511165289208293
1783169866197897500,1.1508974609375,-0.017584577202796936,0.007003145292401314,-0.016609584912657738
1783169866207966200,1.16096630859375,-0.012514764443039894,0.0025153127498924732,-0.02200336754322052
1783169866218036500,1.171036376953125,-0.003972942009568214,-0.0033846544101834297,-0.014485795982182026
1783169866228105200,1.181105224609375,0.0019730161875486374,-0.018746711313724518,-0.007449684198945761
1783169866238175500,1.191175537109375,0.004356012679636478,-0.02874768152832985,0.003293507732450962
1783169866248244200,1.201244140625,-0.007510434836149216,-0.02715376764535904,0.020917262881994247
1783169866258314500,1.211314453125,-0.014763553626835346,-0.026883725076913834,0.01930605061352253
1783169866268383500,1.221383544921875,-0.017846545204520226,-0.03236865624785423,0.004428463522344828
1783169866278453200,1.231453369140625,-0.012883210554718971,-0.018733270466327667,-0.002174045192077756
1783169866288522500,1.2415224609375,-0.003928821533918381,-0.007810669019818306,-0.0004939599893987179
1783169866298592300,1.25159228515625,0.0024491832591593266,-0.008875399827957153,-0.0005805129185318947
1783169866308661500,1.26166162109375,-0.0002879422390833497,-0.013207060284912586,0.001803756458684802
1783169866318731300,1.271731201171875,-0.005382569506764412,-0.004255644045770168,0.00041012419387698174
1783169866328800500,1.281800537109375,-0.0020156872924417257,-0.006711193360388279,-0.0028010134119540453
1783169866338870300,1.291870361328125,0.005303744692355394,-0.004424603655934334,0.000701576005667448
1783169866348939500,1.301939453125,0.007928306236863136,-0.0006558289751410484,0.005350328516215086
1783169866359009500,1.312009521484375,0.005317343398928642,0.007675870321691036,0.010451879352331161
1783169866369078300,1.322078369140625,0.001311230706050992,0.0018061422742903233,0.0023928447626531124
1783169866379148500,1.3321484375,-0.001102125970646739,-0.004764941520988941,-0.01177357416599989
1783169866389217300,1.34221728515625,-0.004563097842037678,-0.0080734146758914,-0.008385025896131992
1783169866399287600,1.35228759765625,-0.00023279828019440174,-0.011655899696052074,-0.01802034303545952
1783169866409356300,1.362356201171875,0.0028990954160690308,-0.021511856466531754,-0.023677490651607513
1783169866419426600,1.372426513671875,0.0034248032607138157,-0.016722429543733597,-0.01619427651166916
1783169866429495300,1.382495361328125,-0.003592213848605752,-0.007786303758621216,0.0031612911261618137
1783169866439565300,1.3925654296875,-0.009096168912947178,-0.012916084378957748,0.006893711164593697
1783169866449634300,1.40263427734375,-0.009537948295474052,-0.018738850951194763,-0.0064587825909256935
1783169866459704300,1.412704345703125,-0.009029550477862358,-0.01847386732697487,-0.011994163505733013
1783169866469773300,1.422773193359375,-0.00931322667747736,-0.018674811348319054,-0.014408135786652565
1783169866479843300,1.43284326171875,-0.0011762045323848724,-0.030222276225686073,-0.01948571763932705
1783169866489912300,1.442912353515625,0.006145407445728779,-0.032352931797504425,-0.022548004984855652
1783169866499982300,1.452982421875,0.006052995100617409,-0.024407655000686646,-0.007524579763412476
1783169866510051600,1.463051513671875,-0.002488844096660614,-0.016090739518404007,0.011087514460086823
1783169866520121300,1.473121337890625,-0.0034507778473198414,-0.01682950183749199,-0.001201109029352665
1783169866530190600,1.483190673828125,-0.007091187871992588,-0.009496734477579594,-0.005884236190468073
1783169866540260400,1.49326025390625,-0.011483806185424328,0.0011793444864451885,-0.009036354720592499
1783169866550329300,1.503329345703125,-0.013449382036924362,0.0006312425248324871,-0.012720223516225815
1783169866560399400,1.5133994140625,-0.01258997991681099,0.0004155267961323261,-0.015479259192943573
1783169866570468400,1.52346826171875,-0.0056030466221272945,0.0016182297840714455,-0.019495796412229538
1783169866580538400,1.533538330078125,0.0027584803756326437,0.004995650611817837,-0.012793418951332569
1783169866590607400,1.543607421875,0.00607128394767642,0.0101371631026268,-0.0024854904040694237
1783169866600677400,1.553677490234375,0.012191494926810265,0.0029511558823287487,-0.010281627997756004
1783169866610746400,1.563746337890625,0.01177835650742054,0.0011216853745281696,-0.010250426828861237
1783169866620816400,1.57381640625,0.004332957789301872,0.006140146404504776,-0.0009501366876065731
1783169866630885400,1.583885498046875,0.002985946834087372,0.008050300180912018,-0.005924716126173735
1783169866640955400,1.593955322265625,-0.0021227949764579535,-0.002147742547094822,-0.010235575959086418
1783169866651024400,1.6040244140625,-0.0050591640174388885,-0.010996888391673565,-0.0169985294342041
1783169866661094400,1.614094482421875,-0.004091904032975435,-0.020305968821048737,-0.018723726272583008
1783169866671163400,1.624163330078125,-0.0015657104086130857,-0.01217228639870882,-0.019499994814395905
1783169866681233400,1.6342333984375,-0.004752715118229389,-0.026270795613527298,-0.0112303476780653
1783169866691302400,1.644302490234375,0.001289149047806859,-0.036629568785429,-0.012334044091403484
1783169866701372400,1.654372314453125,0.002520328387618065,-0.029558073729276657,-0.009124934673309326
1783169866711441200,1.664441162109375,-0.01013552863150835,-0.01434969250112772,0.009697694331407547
1783169866721511400,1.674511474609375,-0.012036493048071861,-0.013523046858608723,0.002923677209764719
1783169866731580400,1.684580322265625,-0.00998696405440569,-0.015760866925120354,-0.00939830020070076
1783169866741650400,1.694650390625,-0.009619713760912418,-0.007706137374043465,-0.010687270201742649
1783169866751719400,1.704719482421875,-0.009706049226224422,0.0004147663712501526,0.0018417563987895846
1783169866761789400,1.71478955078125,-0.005119552835822105,-0.00048591475933790207,-0.008483584970235825
1783169866771858400,1.7248583984375,0.0015085708582773805,0.000007709488272666931,-0.020970268175005913
1783169866781928200,1.73492822265625,0.0035741187166422606,0.011364227160811424,-0.020938577130436897
1783169866791997400,1.74499755859375,0.0013590541202574968,0.023617014288902283,-0.014974527060985565
1783169866802067200,1.755067138671875,0.0039785392582416534,0.01771198771893978,-0.020714171230793
1783169866812136400,1.765136474609375,0.008663871325552464,0.020400719717144966,-0.03005426749587059
1783169866822206500,1.77520654296875,0.004627051763236523,0.022695565596222878,-0.021787548437714577
1783169866832275500,1.785275390625,0.005532396025955677,0.01339046098291874,-0.013682791031897068
1783169866842345500,1.795345458984375,0.010613175109028816,-0.0038471147418022156,-0.010663831606507301
1783169866852414500,1.80541455078125,0.01389562338590622,-0.01392187736928463,0.00021978653967380524
1783169866862484500,1.815484375,0.009467851370573044,-0.024605680257081985,0.004380443133413792
1783169866872553500,1.825553466796875,0.005977556575089693,-0.022523708641529083,0.0046445284970104694
1783169866882623500,1.83562353515625,0.00030289299320429564,-0.022840891033411026,-0.003893831977620721
1783169866892695600,1.845695556640625,0.004915205761790276,-0.021860716864466667,-0.017133142799139023
1783169866902765800,1.855765869140625,0.0019582980312407017,-0.01729845628142357,-0.027785785496234894
1783169866912834600,1.86583447265625,-0.0013585984706878662,-0.01012472715228796,-0.021073617041110992
1783169866922904800,1.87590478515625,-0.0035013779997825623,-0.007467691786587238,-0.014390414580702782
1783169866932973600,1.8859736328125,-0.004623123444616795,-0.0069460757076740265,-0.016527192667126656
1783169866943043600,1.896043701171875,0.00040572346188127995,-0.0034802379086613655,-0.014772968366742134
1783169866953112600,1.906112548828125,0.00739645678550005,-0.009400454349815845,-0.006757405586540699
1783169866963182600,1.9161826171875,0.015490335412323475,-0.0027979444712400436,0.0008075698278844357
1783169866973251600,1.92625146484375,0.016367943957448006,0.0015555387362837791,0.004081022925674915
1783169866983321600,1.936321533203125,0.016133319586515427,0.000011437572538852692,-0.0017779318150132895
1783169866993390600,1.946390625,0.00786124262958765,-0.0061034513637423515,-0.003201266983523965
1783169867003460600,1.956460693359375,0.0021628770045936108,-0.006376692093908787,0.0144959706813097
1783169867013529900,1.96652978515625,0.002263083588331938,-0.007786598987877369,0.01808611862361431
1783169867023599600,1.976599609375,0.005835713818669319,-0.012708920054137707,0.004318374674767256
1783169867033668900,1.9866689453125,0.006504427175968885,-0.009603366255760193,0.013183848932385445
1783169867043738600,1.996738525390625,0.008121231570839882,-0.005022463388741016,0.017866751179099083
1783169867053807600,2.0068076171875,0.015535391867160797,-0.017005503177642822,0.0039030429907143116
1783169867063877600,2.016877685546875,0.0038249401841312647,0.005031089298427105,-0.009512098506093025
1783169867073946600,2.026946533203125,0.002736675087362528,-0.018807943910360336,0.0034490779507905245
1783169867084016600,2.0370166015625,0.0019734131637960672,-0.020798657089471817,-0.0028130789287388325
1783169867094085600,2.047085693359375,0.0069736335426568985,-0.02984517067670822,-0.013452449813485146
1783169867104156000,2.057156005859375,0.0032172449864447117,-0.026661094278097153,-0.0035127331502735615
1783169867114224600,2.067224609375,0.006718513090163469,-0.030209049582481384,0.019868507981300354
1783169867124294700,2.077294677734375,-0.004149314947426319,-0.019793158397078514,0.02760818600654602
1783169867134363600,2.08736376953125,-0.004159912001341581,-0.030328255146741867,0.015968577936291695
1783169867144433700,2.09743359375,-0.004330354277044535,-0.016888346523046494,-0.00019521242938935757
1783169867154502700,2.107502685546875,-0.003952403087168932,-0.017711125314235687,0.008154412731528282
1783169867164572700,2.11757275390625,-0.005109546240419149,-0.006543957628309727,0.005900579039007425
1783169867174641700,2.1276416015625,0.0012463538441807032,-0.007437448017299175,-0.009397150948643684
1783169867184711700,2.137711669921875,0.008326900191605091,-0.01681976392865181,-0.01659833826124668
1783169867194780700,2.14778076171875,0.018005141988396645,-0.009315635077655315,-0.008459103293716908
1783169867204850700,2.1578505859375,0.012090794742107391,-0.00491822324693203,0.0031184563413262367
1783169867214919700,2.167919677734375,0.000518310465849936,-0.007807350717484951,0.007392501924186945
1783169867224989700,2.17798974609375,-0.006897794082760811,-0.015336372889578342,-0.008222410455346107
1783169867235058700,2.18805859375,-0.003817543853074312,-0.014637860469520092,-0.013316976837813854
1783169867245128700,2.198128662109375,-0.0035184710286557674,-0.013519332744181156,-0.016069887205958366
1783169867255197700,2.20819775390625,-0.002079466823488474,-0.016320165246725082,-0.00887838751077652
1783169867265267700,2.218267822265625,0.003542199730873108,-0.015688464045524597,-0.01516557764261961
1783169867275336700,2.228336669921875,0.007142140995711088,-0.0182753037661314,-0.013637743890285492
1783169867285406500,2.238406494140625,0.006460105534642935,-0.019816208630800247,-0.007204877678304911
1783169867295475700,2.248475830078125,0.003679563757032156,-0.015128502622246742,-0.0050849830731749535
1783169867305545500,2.25854541015625,-0.00922158733010292,-0.012060808017849922,0.007479810155928135
1783169867315614700,2.26861474609375,-0.018525205552577972,-0.00893187802284956,0.0015105630736798048
1783169867325684700,2.278684814453125,-0.02006344497203827,-0.00911483820527792,-0.004915911238640547
1783169867335753700,2.288753662109375,-0.013095784932374954,-0.00696379691362381,-0.007883328013122082
1783169867345823700,2.29882373046875,-0.0040215966291725636,-0.0017469311133027077,-0.007601032964885235
1783169867355892700,2.308892822265625,-0.0018878232222050428,-0.0009624892845749855,-0.0030477459076792
1783169867365962800,2.318962646484375,-0.0021823688875883818,0.011274735443294048,0.0021763108670711517
1783169867376031700,2.32903173828125,-0.009578793309628963,0.00943311583250761,-0.006784387398511171
1783169867386101800,2.339101806640625,-0.01334583479911089,0.004453803412616253,-0.02035958506166935
1783169867396170500,2.34917041015625,-0.01565677672624588,-0.002178911119699478,-0.028267592191696167
1783169867406240800,2.35924072265625,-0.01166043896228075,-0.006019988097250462,-0.025953838601708412
1783169867416309500,2.3693095703125,-0.010584021918475628,-0.014950636774301529,-0.022662581875920296
1783169867426379800,2.3793798828125,-0.013862106949090958,-0.01851474493741989,-0.00268780835904181
1783169867436448500,2.389448486328125,-0.022276202216744423,-0.01176520623266697,0.015883397310972214
1783169867446518800,2.399518798828125,-0.015411371365189552,-0.01675809919834137,0.01857079192996025
1783169867456587800,2.409587890625,-0.006892564706504345,-0.017177965492010117,0.005182980559766293
1783169867466657500,2.419657470703125,-0.008618559688329697,-0.023538392037153244,-0.005959153175354004
1783169867476726800,2.429726806640625,-0.012109987437725067,-0.02940809726715088,-0.007826955989003181
1783169867486796500,2.439796630859375,-0.010248703882098198,-0.04299261420965195,-0.013990309089422226
1783169867496865800,2.44986572265625,-0.003902972210198641,-0.04707964137196541,-0.006955648772418499
1783169867506935600,2.459935546875,-0.007430861704051495,-0.033119086176157,0.01803305745124817
1783169867517004800,2.4700048828125,-0.00763090793043375,-0.026557499542832375,0.026516128331422806
1783169867527074600,2.480074462890625,-0.003219115547835827,-0.024890629574656487,0.006388755515217781
1783169867537143800,2.490143798828125,-0.005795213393867016,-0.009390328079462051,-0.008251296356320381
1783169867547213800,2.5002138671875,-0.007920948788523674,0.00674043782055378,-0.003991836681962013
1783169867557282600,2.510282470703125,-0.005847491789609194,0.008268679492175579,-0.00903954915702343
1783169867567352800,2.520352783203125,-0.0005661773029714823,0.010490022599697113,-0.01626603677868843
1783169867577421600,2.530421630859375,0.00551854120567441,0.016696281731128693,-0.015136267989873886
1783169867587491800,2.540491943359375,0.005189906805753708,0.018213484436273575,-0.00883948989212513
1783169867597560600,2.550560546875,0.005891173146665096,0.01965462416410446,-0.00907038152217865
1783169867607630800,2.560630859375,0.0031787436455488205,0.009662442840635777,-0.006060742307454348
1783169867617699600,2.570699462890625,0.003471239935606718,0.005249730311334133,-0.0014585754834115505
1783169867627769600,2.58076953125,-0.001083830837160349,0.0017237053252756596,0.004263492301106453
1783169867637838600,2.590838623046875,-0.00515563553199172,-0.003312612883746624,0.0021682207006961107
1783169867647908600,2.60090869140625,-0.0008655493147671223,-0.0036862539127469063,-0.0001210325863212347
1783169867657977600,2.6109775390625,-0.0008787515107542276,0.004790737293660641,-0.0008924494031816721
1783169867668047600,2.621047607421875,0.00011061271652579308,0.010565802454948425,-0.001216556178405881
1783169867678116600,2.63111669921875,0.004155720584094524,0.0025558164343237877,-0.004438571631908417
1783169867688186600,2.6411865234375,0.006671874783933163,-0.0025039231404662132,-0.006704921834170818
1783169867698256000,2.651255859375,0.0038784209173172712,0.0013978653587400913,0.001094392267987132
1783169867708325600,2.66132568359375,-0.006303909234702587,0.01744820550084114,0.01242827344685793
1783169867718395000,2.671394775390625,-0.02145032212138176,0.028603259474039078,0.016308313235640526
1783169867728464600,2.681464599609375,-0.03011944517493248,0.02628151699900627,0.029047278687357903
1783169867738533600,2.69153369140625,-0.017127366736531258,0.04366438835859299,0.005201698746532202
1783169867748603600,2.701603759765625,-0.01169425155967474,0.03331241384148598,-0.020079955458641052
1783169867758672600,2.711672607421875,-0.006415431387722492,0.03324475139379501,-0.011867193505167961
1783169867768742700,2.72174267578125,0.0027940464206039906,0.02679724059998989,-0.0014158838894218206
1783169867778811600,2.731811767578125,0.0002693695714697242,0.026942647993564606,0.003075537271797657
1783169867788881700,2.741881591796875,-0.0007250546477735043,0.0272811371833086,-0.0009008285123854876
1783169867798950700,2.75195068359375,0.001066671684384346,0.03583986312150955,-0.005931088235229254
1783169867809020700,2.762020751953125,-0.0012862312141805887,0.04008281230926514,-0.005837611388415098
1783169867819089700,2.772089599609375,-0.0020355412270873785,0.03931500017642975,-0.002669965149834752
1783169867829159700,2.78215966796875,-0.004881927743554115,0.038207657635211945,0.002804428804665804
1783169867839228700,2.792228759765625,-0.0017307291273027658,0.014435636810958385,-0.00010909023694694042
1783169867849298700,2.802298583984375,0.0007108570425771177,0.00027081556618213654,-0.009794473648071289
1783169867859367700,2.81236767578125,0.004989273846149445,-0.0033650584518909454,-0.010257517918944359
1783169867869437700,2.822437744140625,0.01434442587196827,-0.011627781204879284,-0.010556856170296669
1783169867879506700,2.832506591796875,0.02322360686957836,-0.017871040850877762,-0.01583952270448208
1783169867889576700,2.84257666015625,0.023237189278006554,-0.012673349119722843,-0.021851874887943268
1783169867899642400,2.852642333984375,0.016265500336885452,-0.008788072504103184,-0.01927075907588005
1783169867909712400,2.86271240234375,0.002485506236553192,0.0011010440066456795,-0.011990741826593876
1783169867919781400,2.872781494140625,-0.005456910468637943,-0.0038894247263669968,-0.021073129028081894
1783169867929851400,2.882851318359375,-0.011514270678162575,-0.012189166620373726,-0.033904772251844406
1783169867939920400,2.89292041015625,-0.011893884278833866,-0.016631469130516052,-0.030629979446530342
1783169867949990400,2.902990478515625,-0.0017222068272531033,-0.02143554389476776,-0.013403857126832008
1783169867960059400,2.913059326171875,0.012163184583187103,-0.02369071915745735,-0.008637350052595139
1783169867970129400,2.92312939453125,0.01744130253791809,-0.024846799671649933,-0.008181950077414513
1783169867980198400,2.933198486328125,0.01100934948772192,-0.019919268786907196,-0.0035066702403128147
1783169867990268400,2.943268310546875,-0.002008714247494936,-0.015072847716510296,-0.007288358639925718
1783169868000337400,2.95333740234375,-0.006856047082692385,-0.011716349050402641,-0.007408568169921637
1783169868010407400,2.963407470703125,-0.006602247711271048,-0.014821328222751617,-0.0118951965123415
1783169868020476400,2.973476318359375,-0.0045343199744820595,-0.019938193261623383,-0.012150530703365803
1783169868030546400,2.98354638671875,-0.002726299688220024,-0.026092227548360825,-0.008078557439148426
1783169868040615400,2.993615478515625,-0.006463335826992989,-0.02848704904317856,-0.0045044757425785065
1783169868050685400,3.003685546875,-0.006999695673584938,-0.017343051731586456,0.00213078991509974
1783169868060754200,3.013754150390625,-0.012026178650557995,-0.006652595475316048,0.007871091365814209
1783169868070824400,3.023824462890625,-0.012514336034655571,-0.0024980641901493073,0.002759952563792467
1783169868080893200,3.03389306640625,-0.007983032613992691,-0.009298720397055149,-0.008858373388648033
1783169868090963500,3.04396337890625,-0.009952706284821033,-0.020211022347211838,-0.009823236614465714
1783169868101032400,3.054032470703125,-0.008643229492008686,-0.02449977770447731,-0.0005016399081796408
1783169868111102500,3.0641025390625,-0.010239528492093086,-0.030619189143180847,0.007082509808242321
1783169868121171500,3.07417138671875,-0.009978240355849266,-0.027145089581608772,0.013204194605350494
1783169868131241200,3.0842412109375,-0.0027411002665758133,-0.020966824144124985,0.012358641251921654
1783169868141310500,3.094310546875,-0.0010177036747336388,-0.015285493806004524,0.0124729098752141
1783169868151380200,3.104380126953125,-0.0019407554063946009,-0.004127114079892635,0.006120471283793449
1783169868161449500,3.114449462890625,-0.003290938911959529,-0.0006842147558927536,0.002879735082387924
1783169868171519200,3.124519287109375,-0.004683239385485649,-0.004040862433612347,-0.0032324856147170067
1783169868181588500,3.13458837890625,0.0050560059025883675,-0.011400498449802399,-0.0022146054543554783
1783169868191658500,3.144658447265625,0.012161852791905403,-0.016012560576200485,0.005905905272811651
1783169868201727500,3.1547275390625,0.021006155759096146,-0.02147693559527397,0.012442628853023052
1783169868211797500,3.164797607421875,0.02409622073173523,-0.03370936959981918,0.018199319019913673
1783169868221866500,3.174866455078125,0.01644466631114483,-0.04017876088619232,0.021513666957616806
1783169868231936500,3.1849365234375,0.009164382703602314,-0.044829174876213074,0.029865607619285583
1783169868242005200,3.195005126953125,-0.0007490995340049267,-0.033753372728824615,0.035905078053474426
1783169868252075500,3.205075439453125,-0.012287511490285397,-0.022145984694361687,0.029221078380942345
1783169868262144300,3.215144287109375,-0.012501997873187065,-0.013314385898411274,0.01624341495335102
1783169868272214500,3.225214599609375,-0.005771923344582319,-0.0005629044026136398,0.004430432338267565
1783169868282283300,3.235283203125,-0.005934343673288822,0.011502818204462528,0.0029623752925544977
1783169868292353300,3.245353271484375,-0.0020972611382603645,0.008903573267161846,-0.002799107227474451
1783169868302422300,3.25542236328125,-0.0003816201351583004,0.009035936556756496,-0.004767572972923517
1783169868312492300,3.2654921875,-0.0027771336026489735,0.010993892326951027,0.0028370835352689028
1783169868322561500,3.2755615234375,-0.006783740129321814,0.011821448802947998,0.011086244136095047
1783169868332631300,3.28563134765625,-0.005538712255656719,0.00951914582401514,0.010060127824544907
1783169868342700500,3.295700439453125,-0.016527574509382248,0.016566064208745956,-0.005002390127629042
1783169868352770300,3.305770263671875,-0.0037766259629279375,0.009646639227867126,0.0023916105274111032
1783169868362839600,3.315839599609375,0.007585290819406509,0.006462267599999905,0.0012250919826328754
1783169868372909300,3.325909423828125,0.016085036098957062,0.0032659415155649185,-0.0028317011892795563
1783169868382978600,3.335978515625,0.012550956569612026,-0.002809537574648857,-0.004406980704516172
1783169868393048300,3.34604833984375,0.006496259476989508,-0.006536631844937801,0.0025081830099225044
1783169868403117300,3.356117431640625,0.005139878951013088,-0.014436104334890842,0.01666087657213211
1783169868413187600,3.3661875,0.002515333704650402,-0.02383653074502945,0.020242828875780106
1783169868423256300,3.37625634765625,-0.007173366844654083,-0.015790700912475586,0.030580131337046623
1783169868433326600,3.38632666015625,-0.016510942950844765,-0.009630808606743813,0.031180674210190773
1783169868443395300,3.396395263671875,-0.018449217081069946,-0.004988960921764374,0.01694958284497261
1783169868453465300,3.40646533203125,-0.020205572247505188,0.000903815496712923,-0.0012041220907121897
1783169868463534300,3.416534423828125,-0.016624119132757187,0.0050916410982608795,-0.01115914061665535
1783169868473604400,3.426604248046875,-0.00857924297451973,-0.0009255055338144302,-0.020926816388964653
1783169868483673300,3.43667333984375,0.0007926324033178389,-0.006193339824676514,-0.025580955669283867
1783169868493743400,3.446743408203125,0.004102941602468491,-0.00734489131718874,-0.020495915785431862
1783169868503812400,3.456812255859375,0.0012949692318215966,-0.008919874206185341,-0.010474422946572304
1783169868513882400,3.46688232421875,-0.008234886452555656,0.0002571120858192444,0.021664604544639587
1783169868523951400,3.476951416015625,-0.01742212101817131,0.009082009084522724,0.03197978809475899
1783169868534021400,3.487021484375,-0.010907231830060482,0.016458697617053986,0.007788432762026787
1783169868544090400,3.49709033203125,-0.0002357116900384426,0.019948234781622887,-0.008513984270393848
1783169868554160400,3.507160400390625,0.008706117980182171,0.024320345371961594,-0.011000311933457851
1783169868564229400,3.5172294921875,0.018037796020507812,0.026454903185367584,-0.01648356020450592
1783169868574299400,3.52729931640625,0.018106769770383835,0.024000532925128937,-0.008444010280072689
1783169868584368400,3.537368408203125,0.01045166701078415,0.025421980768442154,0.0046274843625724316
1783169868594438400,3.5474384765625,0.005809777416288853,0.017259923741221428,0.01453231368213892
1783169868604507400,3.55750732421875,0.006166842766106129,0.00772366626188159,0.0201619490981102
1783169868614577400,3.567577392578125,0.010732832364737988,-0.004201436415314674,0.016705699265003204
1783169868624646400,3.577646484375,0.017498793080449104,-0.014662076719105244,0.011418771930038929
1783169868634716200,3.587716064453125,0.01347901951521635,-0.017030157148838043,0.005064203403890133
1783169868644785400,3.597785400390625,0.00695736613124609,-0.017287129536271095,0.0023977626115083694
1783169868654855400,3.60785546875,-0.008080173283815384,-0.012702498584985733,0.00956725887954235
1783169868664924400,3.61792431640625,-0.018329598009586334,-0.011510597541928291,0.020857665687799454
1783169868674994400,3.627994384765625,-0.01968141831457615,-0.006611446850001812,0.013516929931938648
1783169868685063400,3.6380634765625,-0.02210354246199131,-0.0007912777364253998,0.013786301016807556
1783169868695133400,3.648133544921875,-0.02269849181175232,0.008688244968652725,0.019083062186837196
1783169868705202400,3.658202392578125,-0.01938430778682232,0.010729978792369366,0.024392852559685707
1783169868715272400,3.6682724609375,-0.013221221044659615,0.014298614114522934,0.008769949898123741
1783169868725341400,3.678341552734375,-0.007423324044793844,0.014039518311619759,-0.0015838323161005974
1783169868735411500,3.688411376953125,-0.00646538520231843,0.02554037980735302,0.004919340834021568
1783169868745480200,3.698480224609375,-0.0011165551841259003,0.027563828974962234,0.0031642820686101913
1783169868755550500,3.708550537109375,0.010699624195694923,0.015763629227876663,-0.009607706218957901
1783169868765619200,3.718619140625,0.02062639594078064,0.019922662526369095,-0.011233481578528881
1783169868775689500,3.728689453125,0.01736561954021454,0.030033353716135025,0.003847199957817793
1783169868785758500,3.738758544921875,0.009834667667746544,0.03899062052369118,0.03021300584077835
1783169868795828200,3.748828125,0.009437057189643383,0.027294017374515533,0.02593650110065937
1783169868805897500,3.7588974609375,0.010791025124490261,0.01593603752553463,0.008836284279823303
1783169868815967200,3.76896728515625,0.015407615341246128,0.01009972020983696,0.013763930648565292
1783169868826036500,3.779036376953125,0.010344890877604485,0.01372923981398344,0.02175154723227024
1783169868836106200,3.789106201171875,0.005066239275038242,0.013785166665911674,0.015348244458436966
1783169868846175500,3.799175537109375,0.01045951060950756,0.008082249201834202,0.002085785148665309
1783169868856245200,3.809245361328125,0.019388556480407715,-0.0012697074562311172,-0.0018455733079463243
1783169868866314500,3.819314453125,0.01450471580028534,-0.010343078523874283,0.013372834771871567
1783169868876384500,3.829384521484375,0.004749024286866188,-0.013735145330429077,0.026595963165163994
1783169868886453500,3.83945361328125,-0.010677596554160118,-0.009094093926250935,0.04133620858192444
1783169868896522800,3.849522705078125,-0.010309814475476742,-0.004868722520768642,0.02425868809223175
1783169868906591700,3.859591796875,-0.007280111312866211,-0.0038396231830120087,0.010100503452122211
1783169868916661800,3.869661865234375,-0.00529072992503643,0.014616083353757858,0.015480888076126575
1783169868926730800,3.879730712890625,-0.012919532135128975,0.021424027159810066,0.015979046002030373
1783169868936800800,3.88980078125,-0.01602531038224697,0.015637245029211044,-0.006544905249029398
1783169868946869800,3.899869873046875,-0.009290514513850212,0.0005667125806212425,-0.023578960448503494
1783169868956939800,3.909939697265625,0.0011959479888901114,-0.0012466339394450188,-0.01650107651948929
1783169868967008800,3.9200087890625,0.008309557102620602,0.004185647703707218,-0.009175186045467854
1783169868977078800,3.930078857421875,0.009918106719851494,0.009399318136274815,0.0002047333400696516
1783169868987147800,3.940147705078125,0.014352399855852127,0.01776006445288658,-0.00006607058458030224
1783169868997217500,3.950217529296875,0.009604249149560928,0.026876065880060196,0.006234435830265284
1783169869007286800,3.960286865234375,-0.00008434650953859091,0.029561728239059448,0.004786803387105465
1783169869017356800,3.970356689453125,-0.006390179041773081,0.02085265889763832,-0.005681283306330442
1783169869027425800,3.98042578125,-0.011609676294028759,0.012544132769107819,-0.013556374236941338
1783169869037495800,3.990495849609375,-0.008218673057854176,0.0065181986428797245,-0.021547721698880196
1783169869047564800,4.000564697265625,-0.00017825921531766653,-0.0014379844069480896,-0.023979170247912407
1783169869057634800,4.010634765625,0.008299381472170353,-0.014011567458510399,-0.017638182267546654
1783169869067703800,4.020703857421875,0.012063994072377682,-0.026163311675190926,-0.015511258505284786
1783169869077773800,4.03077392578125,0.011438683606684208,-0.024516677483916283,-0.003484690096229315
1783169869087842800,4.0408427734375,0.0011900084791705012,-0.013195850886404514,0.00019592279568314552
1783169869097912800,4.050912841796875,-0.025631219148635864,0.024309713393449783,-0.0008576237596571445
1783169869107981600,4.060981689453125,-0.038438208401203156,0.037418972700834274,-0.006473266053944826
1783169869118051800,4.0710517578125,-0.04345134273171425,0.04905245825648308,-0.03439890593290329
1783169869128120600,4.08112060546875,-0.04198786988854408,0.05704541504383087,-0.05148466303944588
1783169869138190800,4.09119091796875,-0.029113084077835083,0.03694067895412445,-0.06130240857601166
1783169869148259800,4.101259765625,-0.00915575958788395,0.013589037582278252,-0.05309663712978363
1783169869158329600,4.11132958984375,-0.004995635244995356,-0.003737754188477993,-0.03514666482806206
1783169869168398800,4.12139892578125,-0.008231796324253082,-0.004178090952336788,-0.00329596153460443
1783169869178468600,4.131468505859375,-0.004333194345235825,-0.008965388871729374,0.005898069590330124
1783169869188537900,4.141537841796875,-0.004058114252984524,-0.006413593888282776,0.005847254768013954
1783169869198607600,4.151607666015625,-0.011220153421163559,0.005991144105792046,0.0149691142141819
1783169869208676900,4.1616767578125,-0.01328230369836092,0.010615181177854538,0.005135637242347002
1783169869218746600,4.17174658203125,-0.012673771940171719,0.007461465895175934,-0.01345136296004057
1783169869228816000,4.18181591796875,-0.0050336215645074844,-0.0009709810838103294,-0.02034119702875614
1783169869238886000,4.191885986328125,0.004154816269874573,-0.0008439486846327782,-0.014958414249122143
1783169869248955000,4.201954833984375,0.014142526313662529,-0.016112016513943672,-0.009181477129459381
1783169869259025000,4.21202490234375,0.01487409695982933,-0.03300604596734047,-0.01097351685166359
1783169869269093600,4.22209375,0.008814476430416107,-0.04237133637070656,-0.00524136982858181
1783169869279164000,4.232163818359375,0.0009477644343860447,-0.04599030688405037,0.001286570681259036
1783169869289232600,4.242232666015625,-0.009175024926662445,-0.034973226487636566,0.026525776833295822
1783169869299303000,4.252302978515625,-0.021101992577314377,-0.01227537076920271,0.03810626640915871
1783169869309371600,4.26237158203125,-0.024663088843226433,0.0040784478187561035,0.012168369255959988
1783169869319442000,4.27244189453125,-0.014878369867801666,0.009220479056239128,-0.02502800151705742
1783169869329510700,4.2825107421875,-0.006930607371032238,0.012704480439424515,-0.039325740188360214
1783169869339580700,4.29258056640625,-0.008955408819019794,0.02964671328663826,-0.022423725575208664
1783169869349649700,4.302649658203125,-0.018785782158374786,0.03223089128732681,-0.008277908898890018
1783169869359719700,4.3127197265625,-0.02313312515616417,0.029965076595544815,-0.018776889890432358
1783169869369790000,4.3227900390625,-0.012321054935455322,0.02792081981897354,-0.010062920860946178
1783169869379858700,4.332858642578125,-0.0010654714424163103,0.0211702398955822,-0.006665792316198349
1783169869389928000,4.342927978515625,0.006154124159365892,0.020618967711925507,0.0034173440653830767
1783169869399997700,4.352997802734375,0.00486408919095993,0.0162508524954319,0.010211068205535412
1783169869410067700,4.363067626953125,0.006134812254458666,-0.00006498396396636963,-0.0012828318867832422
1783169869420136700,4.37313671875,0.005427476949989796,-0.018030934035778046,-0.01338503509759903
1783169869430206700,4.383206787109375,-0.003693527076393366,-0.012932480312883854,-0.005043476354330778
1783169869440275700,4.393275634765625,-0.011517361737787724,-0.005005846731364727,0.011892363429069519
1783169869450344700,4.4033447265625,-0.016643214970827103,-0.002237234264612198,0.016009056940674782
1783169869460414700,4.413414794921875,-0.012964322231709957,0.006324296351522207,0.017455685883760452
1783169869470484700,4.423484619140625,-0.011142753064632416,0.018157780170440674,0.012502063997089863
1783169869480554000,4.433553955078125,-0.005207632202655077,0.024057747796177864,0.006913419812917709
1783169869490623700,4.443623779296875,-0.0008410317823290825,0.02222004532814026,-0.006520936731249094
1783169869500692700,4.453692626953125,0.004418444819748402,0.01013115979731083,-0.01514931209385395
1783169869510762800,4.4637626953125,0.006062648259103298,0.00032832473516464233,-0.00993898045271635
1783169869520831700,4.473831787109375,0.004761960357427597,-0.0038818661123514175,0.002434331923723221
1783169869530901800,4.48390185546875,-0.00303081376478076,-0.010799707844853401,0.017342541366815567
1783169869540970800,4.493970703125,-0.0023588980548083782,-0.015595793724060059,0.018427513539791107
1783169869551040800,4.504040771484375,0.0012822021963074803,-0.009286455810070038,0.02255696803331375
1783169869561109800,4.51410986328125,-0.0013687082100659609,-0.006224620155990124,0.022989997640252113
1783169869571179800,4.5241796875,-0.00966561771929264,-0.003131905570626259,0.016299709677696228
1783169869581248800,4.534248779296875,-0.015810862183570862,-0.0013324068859219551,0.002969524124637246
1783169869591318800,4.54431884765625,-0.008253924548625946,0.004004958551377058,-0.009335426613688469
1783169869601387800,4.5543876953125,-0.004286613315343857,0.0041306596249341965,-0.004236272070556879
1783169869611457800,4.564457763671875,0.005686093121767044,0.011847964487969875,-0.0008043996058404446
1783169869621526800,4.57452685546875,0.004064494743943214,0.014640288427472115,0.008574187755584717
1783169869631596800,4.5845966796875,0.004655063152313232,0.0044471933506429195,0.011417089961469173
1783169869641665800,4.594665771484375,0.003782345447689295,-0.0024831509217619896,0.01570158451795578
1783169869651735800,4.60473583984375,-0.007639105431735516,-0.0036026015877723694,0.028684042394161224
1783169869661804800,4.6148046875,-0.009171487763524055,-0.004275316372513771,0.025720208883285522
1783169869671874800,4.624874755859375,-0.003296216484159231,-0.010165193118155003,0.009638920426368713
1783169869681943600,4.634943603515625,-0.004630459938198328,0.0011556386016309261,0.006265760399401188
1783169869692013800,4.645013916015625,-0.002280052052810788,0.008654818870127201,0.0068882424384355545
1783169869702082800,4.655082763671875,0.002561308443546295,0.00735439732670784,-0.00608934136107564
1783169869712152800,4.66515283203125,0.002085145330056548,0.0028895162977278233,-0.007940486073493958
1783169869722221800,4.675221923828125,0.004430591128766537,-0.004389435984194279,-0.01412008423358202
1783169869732291600,4.68529150390625,0.009480413049459457,-0.011812474578619003,-0.011998097412288189
1783169869742360800,4.69536083984375,0.015766803175210953,-0.013799991458654404,-0.004596373997628689
1783169869752430600,4.7054306640625,0.009251218289136887,-0.006415603682398796,0.02608519047498703
1783169869762499800,4.715499755859375,-0.0001518708886578679,-0.0009180400520563126,0.034058958292007446
1783169869772569600,4.725569580078125,0.004538359120488167,0.0022193598560988903,0.01712263561785221
1783169869782638800,4.735638916015625,0.011948605068027973,0.008172590285539627,-0.000950374873355031
1783169869792708900,4.745708984375,0.0167499128729105,0.016820749267935753,-0.007985818199813366
1783169869802777900,4.75577783203125,0.014899017289280891,0.017992805689573288,-0.011338472366333008
1783169869812847900,4.765847900390625,0.017372455447912216,0.013044143095612526,-0.01648538187146187
1783169869822916900,4.775916748046875,0.0182489026337862,0.001991226337850094,-0.02251344546675682
1783169869832987000,4.78598681640625,0.013829153031110764,-0.004019523039460182,-0.010889138095080853
1783169869843055600,4.7960556640625,0.005942467600107193,-0.00833331048488617,0.0075101088732481
1783169869853126000,4.8061259765625,0.0005489531904459,-0.0052913278341293335,0.019970018416643143
1783169869863194600,4.816194580078125,-0.0014484175480902195,-0.009800326079130173,0.011997312307357788
1783169869873265000,4.826264892578125,-0.005885728634893894,-0.014683358371257782,0.004616175778210163
1783169869883333600,4.836333740234375,-0.003673174185678363,-0.016746774315834045,-0.0010430414695292711
1783169869893403600,4.846403564453125,-0.0003005627077072859,-0.027741502970457077,-0.0007380479946732521
1783169869903473000,4.856472900390625,0.0029868432320654392,-0.031526919454336166,-0.008531255647540092
1783169869913543000,4.86654296875,0.0027222451753914356,-0.03115077316761017,-0.013711349107325077
1783169869923612200,4.876612060546875,-0.00034012366086244583,-0.0206158384680748,-0.007000182755291462
1783169869933682000,4.886681884765625,-0.003886791877448559,-0.0063239652663469315,0.0008497904054820538
1783169869943751200,4.896751220703125,-0.009586755186319351,0.007596644107252359,-0.0018860746640712023
1783169869953821000,4.906821044921875,-0.01355150155723095,0.010592418722808361,-0.013623854145407677
1783169869963890200,4.91689013671875,-0.012271584942936897,0.010955141857266426,-0.01461002230644226
1783169869973960000,4.9269599609375,-0.009728282690048218,0.013043191283941269,-0.006006885319948196
1783169869984029000,4.93702880859375,-0.004347099922597408,0.012824279256165028,-0.0024635489098727703
1783169869994099000,4.947098876953125,0.0021862483117729425,0.010798824019730091,-0.0018073881510645151
1783169870004168000,4.95716796875,0.0073527805507183075,0.0053555890917778015,-0.009902065619826317
1783169870014238200,4.96723828125,0.009927459061145782,0.006529766600579023,-0.01532454788684845
1783169870024307000,4.977306884765625,0.007089329417794943,0.007040028460323811,-0.007079135160893202
1783169870034377200,4.987377197265625,-0.0005937768146395683,0.013371577486395836,0.008678357116878033
1783169870044446000,4.997446044921875,-0.008083384484052658,0.012640539556741714,0.0065582143142819405
1783169870054516000,5.007515869140625,-0.011726806871592999,0.006493838503956795,0.0010974833276122808
1783169870064585000,5.0175849609375,-0.0016238391399383545,0.0022695320658385754,-0.005838719196617603
1783169870074655000,5.027655029296875,0.0032214676029980183,-0.0035203201696276665,-0.0050864568911492825
1783169870084724000,5.037723876953125,0.0020328990649431944,-0.010314310900866985,-0.0035277088172733784
1783169870094794000,5.0477939453125,0.006233034655451775,-0.024531317874789238,-0.004414523020386696
1783169870104863000,5.057863037109375,0.0013895437587052584,-0.032765813171863556,0.0032660337164998055
1783169870114933000,5.06793310546875,0.0014105665031820536,-0.03744325786828995,0.0010207842569798231
1783169870125002000,5.078001953125,0.0022377443965524435,-0.045187465846538544,-0.005162809044122696
1783169870135072000,5.088072021484375,-0.00013765855692327023,-0.04567937180399895,0.0033869650214910507
1783169870145141200,5.098141357421875,-0.007330058142542839,-0.02571924403309822,0.026864327490329742
1783169870155211000,5.1082109375,-0.016953574493527412,-0.01584729552268982,0.03154345974326134
1783169870165280000,5.118280029296875,-0.008680731989443302,-0.01317507866770029,0.00799658801406622
1783169870175350000,5.12835009765625,-0.004521075636148453,-0.006621028296649456,-0.012219183146953583
1783169870185419000,5.1384189453125,0.002569324104115367,0.0117419995367527,-0.015555057674646378
1783169870195489000,5.148489013671875,0.010341493412852287,0.01758657395839691,-0.020547686144709587
1783169870205558000,5.15855810546875,0.015257954597473145,0.008864986710250378,-0.032932717353105545
1783169870215628000,5.1686279296875,0.02055181935429573,-0.003818846307694912,-0.03734782710671425
1783169870225697000,5.178697021484375,0.017027124762535095,-0.009892451576888561,-0.010313283652067184
1783169870235767000,5.18876708984375,0.004112327471375465,-0.007908139377832413,0.028984036296606064
1783169870245836000,5.1988359375,-0.0026939131785184145,-0.016330653801560402,0.0422697477042675
1783169870255906000,5.208906005859375,0.007456289138644934,-0.027624838054180145,0.023751351982355118
1783169870265975000,5.21897509765625,0.017467377707362175,-0.02565756067633629,0.006234409753233194
1783169870276045000,5.229045166015625,0.015248746611177921,-0.018793387338519096,0.011030308902263641
1783169870286114000,5.239114013671875,0.008635585196316242,-0.004514849744737148,0.0022855536080896854
1783169870296184000,5.24918408203125,-0.0015996526926755905,0.0038981810212135315,-0.00781033793464303
1783169870306253000,5.259253173828125,-0.013999064452946186,0.01603633537888527,-0.01134728267788887
1783169870316323000,5.269322998046875,-0.019419660791754723,0.013654937967658043,-0.011976588517427444
1783169870326391800,5.279391845703125,-0.021346192806959152,0.010501489043235779,-0.015386499464511871
1783169870336462000,5.289462158203125,-0.020371323451399803,0.008105825632810593,-0.007833609357476234
1783169870346530800,5.29953076171875,-0.013934729620814323,0.0013360697776079178,-0.006642909254878759
1783169870356601000,5.30960107421875,-0.004759324248880148,-0.007691378705203533,0.0037457540165632963
1783169870366669800,5.319669921875,0.0070818886160850525,-0.01635970175266266,0.005596917122602463
1783169870376740000,5.329739990234375,0.010764893144369125,-0.01795908436179161,0.011758958920836449
1783169870386809000,5.33980908203125,0.010169943794608116,-0.02210109867155552,0.014717464335262775
1783169870396878800,5.34987890625,0.006017390638589859,-0.020393330603837967,0.009566748514771461
1783169870406948000,5.359947998046875,-0.0022288213949650526,-0.008184866048395634,0.010240528732538223
1783169870417017900,5.370017822265625,-0.01056758128106594,0.004179144278168678,0.007454368285834789
1783169870427087000,5.380087158203125,-0.012432060204446316,0.010140097700059414,-0.0027031945064663887
1783169870437156900,5.390156982421875,-0.006315159145742655,0.016664426773786545,-0.011278407648205757
1783169870447226000,5.40022607421875,-0.004073310177773237,0.024734603241086006,-0.011698653921484947
1783169870457296000,5.4102958984375,-0.00540955550968647,0.01763410121202469,-0.005054028704762459
1783169870467365000,5.420365234375,-0.006730216555297375,0.002465002704411745,-0.012690376490354538
1783169870477435100,5.43043505859375,-0.004329538904130459,-0.007750374265015125,-0.011414638720452785
1783169870487504100,5.440504150390625,-0.0033854481298476458,-0.016921769827604294,-0.004834500141441822
1783169870497574100,5.45057421875,0.0006726532010361552,-0.019442811608314514,0.004610272590070963
1783169870507643000,5.460642822265625,0.0031896065920591354,-0.025453567504882812,0.005930667743086815
1783169870517713200,5.470713134765625,-0.002488067140802741,-0.020958563312888145,0.008725966326892376
1783169870527782000,5.480781982421875,-0.0013889807742089033,-0.019406473264098167,0.000031277770176529884
1783169870537852200,5.49085205078125,-0.0032595526427030563,-0.016720671206712723,-0.008966602385044098
1783169870547921000,5.5009208984375,-0.005117906257510185,-0.017896190285682678,-0.0064190225675702095
1783169870557991000,5.510990966796875,-0.007050312124192715,-0.013640593737363815,0.0009002047590911388
1783169870568060000,5.521059814453125,-0.0037922009360045195,-0.016060343012213707,0.0005148453637957573
1783169870578130000,5.5311298828125,0.006331013049930334,-0.010077589191496372,0.003314813133329153
1783169870588199000,5.541198974609375,0.011787563562393188,-0.012840884737670422,0.0009605786763131618
1783169870598269000,5.55126904296875,0.010558096691966057,-0.013653531670570374,-0.0052892244420945644
1783169870608338200,5.561338134765625,0.0047790370881557465,-0.013159248977899551,-0.006631191354244947
1783169870618408000,5.571407958984375,0.0019091656431555748,-0.017155729234218597,-0.007308249361813068
1783169870628478000,5.58147802734375,-0.011143519543111324,-0.01533918734639883,0.0015065476763993502
1783169870638547000,5.591546875,-0.024686507880687714,-0.0052451444789767265,0.016796883195638657
1783169870648617000,5.601616943359375,-0.021105090156197548,-0.0035718800500035286,0.018458962440490723
1783169870658686000,5.61168603515625,-0.010885361582040787,-0.004136319272220135,-0.003116270061582327
1783169870668756000,5.621755859375,-0.0016915968153625727,0.00636345986276865,-0.008373083546757698
1783169870678825000,5.631824951171875,0.0008776841568760574,0.011474352329969406,-0.0033567154314368963
1783169870688894000,5.64189404296875,0.0010446642991155386,-0.001127726398408413,-0.004493086598813534
1783169870698964200,5.651964111328125,0.003205117303878069,-0.015808919444680214,-0.006422919686883688
1783169870709034000,5.662033935546875,0.0084629962220788,-0.03171864524483681,-0.00018739467486739159
1783169870719103000,5.67210302734375,0.0062372637912631035,-0.04310953617095947,0.011713704094290733
1783169870729173000,5.682173095703125,0.00392803642898798,-0.051175981760025024,0.018357492983341217
1783169870739242000,5.692241943359375,-0.003899106988683343,-0.03833969682455063,0.03726077824831009
1783169870749312000,5.70231201171875,-0.0066826436668634415,-0.01981768012046814,0.03864242509007454
1783169870759381000,5.712381103515625,-0.005395876243710518,-0.0009400993585586548,0.02866974100470543
1783169870769451000,5.722450927734375,-0.0038914564065635204,0.00964969489723444,0.01139914058148861
1783169870779520000,5.73252001953125,-0.009050250053405762,0.0203046053647995,0.00005694129504263401
1783169870789590000,5.742590087890625,-0.015886051580309868,0.02427910640835762,-0.00836557149887085
1783169870799659000,5.752658935546875,-0.014895662665367126,0.021036259829998016,-0.014552517794072628
1783169870809729000,5.76272900390625,-0.005085110664367676,0.013066485524177551,-0.016729120165109634
1783169870819798000,5.772798095703125,0.007108165416866541,0.0015065423212945461,-0.011733484454452991
1783169870829868000,5.782867919921875,0.01701059751212597,-0.008290695026516914,0.00391844566911459
1783169870839937000,5.79293701171875,0.018875230103731155,-0.0198241975158453,0.01237494871020317
1783169870850007000,5.803007080078125,0.010562704876065254,-0.01833522319793701,0.025470776483416557
1783169870860076000,5.813075927734375,-0.003380540758371353,-0.0017493227496743202,0.04836544021964073
1783169870870146000,5.82314599609375,-0.007853053510189056,-0.003421521745622158,0.04210994020104408
1783169870880215000,5.833215087890625,-0.004292181693017483,-0.007897195406258106,0.015570670366287231
1783169870890285000,5.84328515625,-0.004192046821117401,0.006365097127854824,0.0033624735660851
1783169870900353800,5.853353759765625,-0.0009926378261297941,0.010614819824695587,0.006312094628810883
1783169870910423800,5.863423828125,-0.0016805322375148535,0.011170621030032635,0.003040667623281479
1783169870920492500,5.873492431640625,-0.004771364852786064,0.011892875656485558,0.004135902039706707
1783169870930562800,5.883562744140625,-0.011716090142726898,0.0034357407130301,0.010959186591207981
1783169870940631800,5.8936318359375,-0.012107583694159985,0.028269276022911072,-0.010912304744124413
1783169870950701800,5.903701904296875,-0.009902752935886383,0.011899357661604881,-0.031227964907884598
1783169870960770800,5.913770751953125,-0.00920315645635128,0.012264873832464218,-0.006863173097372055
1783169870970840600,5.923840576171875,-0.0039676483720541,0.014996478334069252,0.014489253051578999
1783169870980909800,5.933909912109375,0.00849214568734169,0.007564157247543335,0.013579044491052628
1783169870990979600,5.9439794921875,0.01507787685841322,-0.0006375797092914581,0.0009982716292142868
1783169871001048800,5.954048828125,0.009880904108285904,-0.0038518933579325676,0.00006807176396250725
1783169871011118600,5.96411865234375,0.0021438878029584885,-0.004971752874553204,0.00673423008993268
1783169871021187800,5.974187744140625,-0.0021222622599452734,0.004742920398712158,0.009414825588464737
1783169871031257900,5.9842578125,-0.0036514494568109512,0.010676976293325424,0.008990317583084106
1783169871041326800,5.994326904296875,-0.000592897180467844,0.01098846085369587,0.00750092975795269
1783169871051396900,6.00439697265625,0.0013203176204115152,0.011625755578279495,0.0026795431040227413
1783169871061465900,6.0144658203125,0.009528147988021374,0.009681375697255135,-0.002163291210308671
1783169871071535900,6.024535888671875,0.01166826393455267,0.010251824744045734,-0.0022975143510848284
1783169871081604600,6.0346044921875,0.012947614304721355,0.01691930927336216,0.005632438231259584
1783169871091675000,6.0446748046875,0.018139179795980453,0.01776512898504734,0.007104899734258652
1783169871101743600,6.05474365234375,0.01641949638724327,0.019646774977445602,0.00007792538963258266
1783169871111814000,6.06481396484375,0.010840173810720444,0.024825025349855423,0.009212035685777664
1783169871121882600,6.074882568359375,0.005318359471857548,0.029664386063814163,0.01692407950758934
1783169871131952600,6.08495263671875,0.0017987259197980165,0.024783078581094742,0.014917653985321522
1783169871142021600,6.095021728515625,-0.004232324659824371,0.024740898981690407,0.009691725485026836
1783169871152091600,6.105091552734375,-0.0025673164054751396,0.022089455276727676,0.008307680487632751
1783169871162161000,6.115160888671875,0.0061055738478899,0.010541687719523907,0.002795271808281541
1783169871172230700,6.125230712890625,0.01404685340821743,0.0047399913892149925,0.003951882943511009
1783169871182300000,6.1352998046875,0.02021082118153572,-0.0022376105189323425,0.010265395976603031
1783169871192369700,6.14536962890625,0.014036813750863075,-0.009586071595549583,0.014166661538183689
1783169871202439000,6.15543896484375,0.004945363849401474,-0.0025578495115041733,0.026515021920204163
1783169871212508700,6.1655087890625,-0.0024712730664759874,0.0019689914770424366,0.03425523266196251
1783169871222578000,6.175577880859375,-0.0075798942707479,0.013554386794567108,0.03649737313389778
1783169871232647700,6.185647705078125,-0.0013251944910734892,0.017699331045150757,0.025147510692477226
1783169871242716700,6.195716552734375,0.009380010887980461,0.018221858888864517,0.004760109819471836
1783169871252787000,6.205786865234375,0.02038312703371048,0.024290936067700386,-0.007837707176804543
1783169871262855700,6.215855712890625,0.019780784845352173,0.028079291805624962,-0.006513830274343491
1783169871272926000,6.225926025390625,0.01422649621963501,0.029553618282079697,-0.00322456075809896
1783169871282994700,6.23599462890625,0.01603541150689125,0.026974095031619072,-0.01117526926100254
1783169871293065000,6.24606494140625,0.015322750434279442,0.01739230751991272,-0.019919756799936295
1783169871303133700,6.2561337890625,0.011226380243897438,0.009918920695781708,-0.014685493893921375
1783169871313203700,6.26620361328125,0.008575470186769962,0.004810711368918419,-0.000657025957480073
1783169871323272700,6.276272705078125,0.006716148462146521,-0.008289629593491554,0.003826300147920847
1783169871333342700,6.2863427734375,0.008574768900871277,-0.015894819051027298,-0.004386622458696365
1783169871343411700,6.29641162109375,0.008515750989317894,-0.02090691402554512,-0.00747713353484869
1783169871353481700,6.306481689453125,0.0007640878320671618,-0.016530007123947144,-0.010111533105373383
1783169871363550700,6.31655078125,-0.007057801820337772,-0.013438730500638485,-0.02621597796678543
1783169871373620700,6.326620849609375,-0.011663472279906273,-0.011335899122059345,-0.04427646845579147
1783169871383690000,6.33668994140625,-0.013328214175999165,-0.005728080868721008,-0.046213652938604355
1783169871393759700,6.346759765625,-0.01125867199152708,-0.010996879078447819,-0.03671921789646149
1783169871403828700,6.356828857421875,-0.006051691714674234,-0.018547210842370987,-0.036520157009363174
1783169871413898800,6.366898681640625,-0.005867933388799429,-0.01135268248617649,-0.033326759934425354
1783169871423967700,6.3769677734375,-0.004605595022439957,-0.015573259443044662,-0.032439928501844406
1783169871434037800,6.387037841796875,-0.0045786970295012,-0.01357881911098957,-0.019113734364509583
1783169871444106800,6.397106689453125,-0.0163606908172369,-0.0138925239443779,-0.016252273693680763
1783169871454176800,6.4071767578125,-0.020738128572702408,-0.019471846520900726,-0.02007470838725567
1783169871464245800,6.417245849609375,-0.010567186400294304,-0.03174128755927086,-0.030184850096702576
1783169871474315500,6.4273154296875,-0.009184472262859344,-0.043150268495082855,-0.02725137770175934
1783169871484385800,6.4373857421875,-0.004240063950419426,-0.0617256835103035,-0.015526749193668365
1783169871494454800,6.447454833984375,-0.019996656104922295,-0.05842842161655426,-0.020410986617207527
1783169871504524800,6.45752490234375,-0.01633831486105919,-0.04834481328725815,-0.012655221857130527
1783169871514593800,6.46759375,-0.014743346720933914,-0.04866998642683029,-0.010952928103506565
1783169871524663800,6.477663818359375,-0.01656397059559822,-0.050871461629867554,-0.012347769923508167
1783169871534732800,6.48773291015625,-0.02294064313173294,-0.055201224982738495,-0.013033534400165081
1783169871544802600,6.497802490234375,-0.03433981537818909,-0.05154680460691452,-0.004220406990498304
1783169871554871800,6.507871826171875,-0.03579682856798172,-0.05201498791575432,0.004735004156827927
1783169871564941600,6.517941650390625,-0.02142339199781418,-0.05533184856176376,0.008374899625778198
1783169871575010800,6.5280107421875,-0.007124613970518112,-0.05746077746152878,0.0019348427886143327
1783169871585080800,6.538080810546875,0.005431189201772213,-0.054769378155469894,-0.0007392188999801874
1783169871595149800,6.54814990234375,0.0013602813705801964,-0.0433950200676918,0.011650338768959045
1783169871605219800,6.5582197265625,-0.002509493613615632,-0.04097845405340195,0.01052090898156166
1783169871615288800,6.568288818359375,-0.0011928270105272532,-0.031455788761377335,0.0032102661207318306
1783169871625358800,6.57835888671875,-0.01375480368733406,-0.009473409503698349,0.017875397577881813
1783169871635427800,6.588427734375,-0.019239850342273712,0.011704845353960991,0.022827012464404106
1783169871645497900,6.598497802734375,-0.01146208867430687,0.015597587451338768,-0.0017872524913400412
1783169871655566600,6.608566650390625,0.003500348888337612,0.018710823729634285,-0.01999635063111782
1783169871665636900,6.618636962890625,0.013251028954982758,0.02269931510090828,-0.02069082297384739
1783169871675705600,6.62870556640625,0.020157404243946075,0.01776048168540001,-0.016887295991182327
1783169871685776000,6.63877587890625,0.02239757403731346,0.0049491990357637405,-0.025836005806922913
1783169871695844600,6.6488447265625,0.016937030479311943,-0.012607956305146217,-0.02648501843214035
1783169871705914600,6.65891455078125,0.0035283765755593777,-0.015695076435804367,0.0021459879353642464
1783169871715984000,6.66898388671875,-0.002962812315672636,-0.02540469542145729,0.025441456586122513
1783169871726053600,6.6790537109375,-0.006928774993866682,-0.041399773210287094,0.02262030728161335
1783169871736123000,6.689122802734375,-0.012781338766217232,-0.04268794506788254,0.020794443786144257
1783169871746192600,6.699192626953125,-0.019109921529889107,-0.038765259087085724,0.01912454515695572
1783169871756262000,6.709261962890625,-0.01984468661248684,-0.03814580664038658,0.00712620560079813
1783169871766331600,6.71933154296875,-0.015619315207004547,-0.03645043820142746,-0.010106311179697514
1783169871776401000,6.72940087890625,-0.0075414152815938,-0.02892487868666649,-0.02220638282597065
1783169871786470700,6.739470703125,0.00040071201510727406,-0.02208414115011692,-0.02315731905400753
1783169871796540000,6.749539794921875,0.01866493746638298,-0.02803577296435833,-0.02278554067015648
1783169871806610000,6.75960986328125,0.01626387983560562,-0.0277424193918705,-0.006013404577970505
1783169871816678700,6.7696787109375,-0.010211138054728508,-0.025360751897096634,0.018725231289863586
1783169871826749000,6.7797490234375,-0.014769403263926506,-0.024175379425287247,0.008313070051372051
1783169871836817700,6.789817626953125,-0.0013979387003928423,-0.009652630425989628,0.004147353582084179
1783169871846888000,6.799887939453125,0.005316801369190216,0.0009037582203745842,0.0007148997392505407
1783169871856956700,6.809956787109375,0.015032279305160046,0.021564295515418053,-0.01736050844192505
1783169871867026700,6.820026611328125,0.019256941974163055,0.048805609345436096,-0.03447648882865906
1783169871877095700,6.830095703125,0.024412821978330612,0.06720272451639175,-0.05850326269865036
1783169871887165700,6.840165771484375,0.024933122098445892,0.07613135874271393,-0.0747426450252533
1783169871897235500,6.8502353515625,0.014898598194122314,0.08552566170692444,-0.07227496057748795
1783169871907305500,6.860305419921875,-0.00211630598641932,0.102127805352211,-0.0396425686776638
1783169871917374500,6.87037451171875,-0.006164310500025749,0.08585216850042343,-0.036104824393987656
1783169871927444500,6.880444580078125,-0.0021236822940409184,0.06071553751826286,-0.046329546719789505
1783169871937513500,6.890513427734375,0.006168069783598185,0.04129869490861893,-0.04350845888257027
1783169871947583500,6.90058349609375,0.00743637140840292,0.028210032731294632,-0.02489793673157692
1783169871957652200,6.91065234375,0.005479214712977409,0.014745356515049934,-0.02249150350689888
1783169871967722500,6.920722412109375,0.0009410351631231606,0.009331567212939262,-0.017997052520513535
1783169871977791200,6.930791259765625,-0.004779967479407787,0.004295528866350651,-0.014476087875664234
1783169871987861500,6.940861572265625,-0.0077090575359761715,-0.00810243934392929,-0.0058136009611189365
1783169871997930200,6.95093017578125,-0.0021952493116259575,-0.017746809870004654,-0.0032226117327809334
1783169872008000300,6.961000244140625,-0.00003619212657213211,-0.021938353776931763,0.005066620651632547
1783169872018069200,6.9710693359375,-0.006655478850007057,-0.018157467246055603,0.016045501455664635
1783169872028139300,6.98113916015625,-0.008251664228737354,-0.015604408457875252,0.01668396219611168
1783169872038208500,6.99120849609375,-0.006159750744700432,-0.013022208586335182,0.0050179846584796906
1783169872048278300,7.0012783203125,0.0018984898924827576,-0.013494512066245079,-0.0074918679893016815
1783169872058347500,7.011347412109375,0.006186977960169315,-0.009776473045349121,-0.012782237492501736
1783169872068417300,7.021417236328125,0.005275595933198929,-0.007479904219508171,-0.011993222869932652
1783169872078486500,7.031486572265625,0.00396052747964859,-0.016294967383146286,-0.015320842154324055
1783169872088556300,7.041556396484375,0.00921886507421732,-0.024405859410762787,-0.007289230823516846
1783169872098625500,7.05162548828125,0.006675812415778637,-0.027867700904607773,0.012916704639792442
1783169872108695300,7.0616953125,0.0016030481783673167,-0.028316883370280266,0.02900153212249279
1783169872118764300,7.071764404296875,-0.0006276154890656471,-0.02550671435892582,0.02995574288070202
1783169872128834600,7.08183447265625,-0.0007919000927358866,-0.023494161665439606,0.016766581684350967
1783169872138903300,7.0919033203125,0.002561818575486541,-0.011753082275390625,0.006291570607572794
1783169872148973600,7.1019736328125,0.001014441018924117,0.008721688762307167,0.0033983546309173107
1783169872159042300,7.112042236328125,0.001826705178245902,0.020878752693533897,-0.010443957522511482
1783169872169112300,7.1221123046875,0.005240731406956911,0.02929125726222992,-0.02366972714662552
1783169872179181300,7.132181396484375,0.006882037036120892,0.027203071862459183,-0.03407842665910721
1783169872189251300,7.142251220703125,0.013300538063049316,0.017927417531609535,-0.030543673783540726
1783169872199320300,7.1523203125,0.01848491281270981,0.0033029350452125072,-0.017416954040527344
1783169872209390300,7.162390380859375,0.013615800999104977,-0.015767531469464302,-0.005990662612020969
1783169872219459300,7.172459228515625,0.013973729684948921,-0.02001740224659443,0.013757742010056973
1783169872229529300,7.182529296875,0.009603345766663551,-0.026254771277308464,0.031954891979694366
1783169872239598300,7.192598388671875,0.007270682603120804,-0.02971421740949154,0.04195985198020935
1783169872249668400,7.20266845703125,0.001780624152161181,-0.02016877382993698,0.0282630305737257
1783169872259737600,7.212737548828125,-0.006380632519721985,-0.006569343619048595,0.009190268814563751
1783169872269807400,7.222807373046875,-0.011806451715528965,0.005280099809169769,-0.0043765828013420105
1783169872279877400,7.23287744140625,-0.014946052804589272,0.010077252052724361,-0.027502939105033875
1783169872289946400,7.2429462890625,-0.015944309532642365,0.007077226415276527,-0.03781958296895027
1783169872300016400,7.253016357421875,-0.01544203795492649,-0.002732527442276478,-0.02715175971388817
1783169872310085400,7.26308544921875,-0.01059732772409916,-0.012791702523827553,-0.011297258548438549
1783169872320155400,7.2731552734375,-0.0018057008273899555,-0.025157291442155838,-0.003674493171274662
1783169872330224400,7.283224365234375,-0.006594476755708456,-0.02381521463394165,0.015500024892389774
1783169872340294400,7.29329443359375,-0.014322703704237938,-0.01575382798910141,0.03127605840563774
1783169872350363400,7.30336328125,-0.017822612076997757,-0.0109264450147748,0.016986805945634842
1783169872360433400,7.313433349609375,-0.020824793726205826,0.0011832145974040031,-0.004873485304415226
1783169872370502400,7.32350244140625,-0.015267996117472649,0.018403630703687668,-0.022107500582933426
1783169872380572400,7.333572509765625,-0.00899252388626337,0.02967599220573902,-0.03332926332950592
1783169872390641400,7.343641357421875,-0.0005692597478628159,0.02178996428847313,-0.037708643823862076
1783169872400711400,7.35371142578125,0.011399252340197563,0.017777113243937492,-0.03131599351763725
1783169872410780400,7.363780517578125,0.012590523809194565,0.012255016714334488,-0.016801435500383377
1783169872420850200,7.37385009765625,0.0003394497325643897,0.01043208222836256,-0.007279569283127785
1783169872430919400,7.38391943359375,-0.016934983432292938,0.016999728977680206,0.0008427235297858715
1783169872440989400,7.393989501953125,-0.02645764872431755,0.024137798696756363,0.0030864367727190256
1783169872451058400,7.404058349609375,-0.020914802327752113,0.023816265165805817,-0.002000459237024188
1783169872461128400,7.41412841796875,-0.023692745715379715,0.03080359846353531,-0.011540967039763927
1783169872471197400,7.424197509765625,-0.031380750238895416,0.03246723860502243,-0.013659581542015076
1783169872481267500,7.434267333984375,-0.03535844758152962,0.0393134243786335,-0.02143840864300728
1783169872491336400,7.44433642578125,-0.029982607811689377,0.026687774807214737,-0.022766731679439545
1783169872501406500,7.454406494140625,-0.017590384930372238,0.020258639007806778,-0.02677345834672451
1783169872511475200,7.46447509765625,-0.01847640424966812,0.004385001957416534,-0.03449722006917
1783169872521545500,7.47454541015625,-0.014867819845676422,-0.007873527705669403,-0.03504689410328865
1783169872531614200,7.4846142578125,-0.012139574624598026,-0.010185975581407547,-0.025108428671956062
1783169872541684500,7.4946845703125,-0.007135494612157345,-0.007949985563755035,-0.011638426221907139
1783169872551753200,7.504753173828125,-0.003125160001218319,-0.017661314457654953,-0.008915631100535393
1783169872561823500,7.514823486328125,0.002624071901664138,-0.01889115944504738,-0.014282166957855225
1783169872571892500,7.524892578125,-0.001671921694651246,-0.008886071853339672,-0.010711215436458588
1783169872581962200,7.534962158203125,-0.006423001177608967,0.005980491638183594,-0.00017628329806029797
1783169872592031500,7.545031494140625,-0.01689368672668934,0.015546044334769249,-0.00905630737543106
1783169872602101200,7.555101318359375,-0.017789041623473167,0.01741771399974823,-0.027865681797266006
1783169872612170500,7.56517041015625,-0.01940617710351944,0.023208213970065117,-0.031867899000644684
1783169872622240300,7.575240234375,-0.009768730029463768,0.026968862861394882,-0.028700601309537888
1783169872632309500,7.5853095703125,-0.000530692283064127,0.03343236446380615,-0.024651246145367622
1783169872642379300,7.595379150390625,0.006206039804965258,0.031058425083756447,-0.02282298542559147
1783169872652448500,7.605448486328125,0.012740952894091606,0.024125291034579277,-0.031010527163743973
1783169872662518500,7.6155185546875,0.0035671619698405266,0.02101658284664154,-0.03335091471672058
1783169872672587500,7.62558740234375,-0.00578916072845459,0.0126566793769598,-0.02911045216023922
1783169872682657500,7.635657470703125,-0.012693671509623528,-0.003489798866212368,-0.019941454753279686
1783169872692726300,7.645726318359375,-0.011400667019188404,-0.003727387636899948,-0.006130496971309185
1783169872702796500,7.655796630859375,-0.010027540847659111,-0.012215946801006794,0.0077901119366288185
1783169872712865300,7.665865234375,-0.002289661904796958,-0.0138295479118824,0.020428162068128586
1783169872722935600,7.675935546875,0.010002424009144306,-0.017095116898417473,0.010573667474091053
1783169872733004300,7.68600439453125,0.016964605078101158,-0.021034307777881622,0.005772759672254324
1783169872743074300,7.69607421875,0.016901221126317978,-0.02596435323357582,0.010243941098451614
1783169872753143300,7.706143310546875,0.014787543565034866,-0.03380579128861427,0.016012560576200485
1783169872763213300,7.71621337890625,0.00819062814116478,-0.033944543451070786,0.01586422137916088
1783169872773282300,7.7262822265625,0.0014269973617047071,-0.0300627201795578,0.023518413305282593
1783169872783352300,7.736352294921875,-0.0033800085075199604,-0.028053630143404007,0.022381776943802834
1783169872793421300,7.74642138671875,0.0004870541160926223,-0.030475128442049026,0.01521803718060255
1783169872803491300,7.7564912109375,-0.0029958279337733984,-0.027088917791843414,0.007052519358694553
1783169872813560600,7.766560546875,-0.0043446943163871765,-0.025157282128930092,0.000012937001883983612
1783169872823630300,7.77663037109375,-0.006658981088548899,-0.03494440019130707,-0.011297774501144886
1783169872833699600,7.786699462890625,-0.007966561242938042,-0.05008099973201752,-0.020650655031204224
1783169872843769300,7.796769287109375,-0.008337539620697498,-0.0545407310128212,-0.013362382538616657
1783169872853838300,7.80683837890625,-0.015874147415161133,-0.04851668328046799,0.009149018675088882
1783169872863908400,7.816908447265625,-0.01450501661747694,-0.04113812744617462,0.03853993117809296
1783169872873977300,7.826977294921875,-0.012502036988735199,-0.03586120903491974,0.04224885255098343
1783169872884047400,7.83704736328125,-0.014290349557995796,-0.030131416395306587,0.015226023271679878
1783169872894116400,7.847116455078125,-0.013259456492960453,-0.023576978594064713,0.004305260721594095
1783169872904185900,7.857185791015625,-0.006937910802662373,-0.015569651499390602,-0.006935409270226955
1783169872914254600,7.867254638671875,0.004918715916574001,-0.012486515566706657,-0.007090015336871147
1783169872924324900,7.877324951171875,0.017019322142004967,-0.017658375203609467,-0.011351073160767555
1783169872934393600,7.8873935546875,0.027625028043985367,-0.014683899469673634,-0.01738474890589714
1783169872944463600,7.897463623046875,0.032136689871549606,-0.0009907232597470284,-0.017231350764632225
1783169872954532900,7.907532958984375,0.018535370007157326,0.008861278183758259,-0.0032171320635825396
1783169872964602600,7.9176025390625,0.005572699010372162,0.023025566712021828,0.006339888088405132
1783169872974672000,7.927671875,-0.0013476370368152857,0.01622503437101841,-0.008486558683216572
1783169872984741600,7.93774169921875,0.0022132755257189274,0.0016365046612918377,-0.024252470582723618
1783169872994811000,7.947810791015625,0.000236911466345191,-0.0036099283024668694,-0.015981102362275124
1783169873004880600,7.957880615234375,-0.0003561745397746563,-0.005310356616973877,-0.0046719880774617195
1783169873014950000,7.967949951171875,0.005766263231635094,-0.012264121323823929,-0.008871634490787983
1783169873025019600,7.97801953125,0.007721289526671171,-0.017776865512132645,-0.016669370234012604
1783169873035089700,7.988089599609375,0.01858297735452652,-0.01863507181406021,-0.012782424688339233
1783169873045159000,7.998158935546875,0.012043051421642303,-0.017192702740430832,-0.01183140929788351
1783169873055228700,8.008228759765625,-0.0004239643458276987,-0.006900419481098652,0.0011345245875418186
1783169873065298000,8.0182978515625,-0.010859028436243534,0.0005758726038038731,0.0029430773574858904
1783169873075367700,8.02836767578125,-0.009101027622818947,0.006499683018773794,-0.004843924194574356
1783169873085437000,8.03843701171875,-0.001016202848404646,0.014403678476810455,-0.01127439271658659
1783169873095506700,8.048506591796874,0.0015526257921010256,0.022397056221961975,-0.015672611072659492
1783169873105575700,8.05857568359375,0.00647334847599268,0.02080102264881134,-0.022076981142163277
1783169873115645700,8.068645751953126,0.013231322169303894,0.02107345312833786,-0.030848385766148567
1783169873125714700,8.078714599609375,0.015473970212042332,0.02215416543185711,-0.03345188871026039
1783169873135785000,8.088784912109375,0.008281094022095203,0.022203801199793816,-0.029329581186175346
1783169873145853700,8.098853759765625,-0.0015289264265447855,0.024020077660679817,-0.01845509372651577
1783169873155924000,8.108924072265625,-0.005519543774425983,0.02660948783159256,-0.008833054453134537
1783169873165992700,8.11899267578125,-0.006169354543089867,0.02174469083547592,-0.011556136421859264
1783169873176062700,8.129062744140626,0.005440244451165199,0.02420426532626152,-0.017956821247935295
1783169873186131700,8.139131591796875,0.015055054798722267,0.02582107111811638,-0.022224804386496544
1783169873196201700,8.14920166015625,0.021763475611805916,0.020674632862210274,-0.03570887818932533
1783169873206270700,8.159270751953125,0.026922551915049553,0.014438841491937637,-0.04494765028357506
1783169873216340700,8.1693408203125,0.024617699906229973,0.021956829354166985,-0.030857831239700317
1783169873226409700,8.17940966796875,0.01575097069144249,0.02235949970781803,-0.01150037907063961
1783169873236479700,8.189479736328124,0.008799627423286438,0.010100401937961578,-0.007446180563420057
1783169873246548700,8.199548828125,0.0050006285309791565,0.006326702423393726,-0.015342719852924347
1783169873256618800,8.20961865234375,-0.005175979807972908,0.0076825376600027084,-0.011599075049161911
1783169873266687700,8.219687744140625,-0.01099338848143816,0.012948938645422459,-0.004774192348122597
1783169873276757800,8.2297578125,-0.00915612280368805,0.017305729910731316,-0.010464648716151714
1783169873286826800,8.23982666015625,-0.0003189551644027233,0.017921719700098038,-0.026309126988053322
1783169873296896800,8.249896728515624,0.006039108149707317,0.02196599915623665,-0.03702554479241371
1783169873306965800,8.2599658203125,0.005508339963853359,0.0266057588160038,-0.038499604910612106
1783169873317035800,8.270035888671876,0.0005982216680422425,0.027241582050919533,-0.024166017770767212
1783169873327104800,8.280104736328125,-0.0056903003714978695,0.017315447330474854,-0.011595897376537323
1783169873337174500,8.290174560546875,-0.003056863322854042,0.0019449894316494465,-0.014385742135345936
1783169873347243800,8.300243896484375,-0.0036038770340383053,-0.013909874483942986,-0.0074604591354727745
1783169873357313800,8.310313720703125,-0.004154374822974205,-0.021560965105891228,-0.00023143389262259007
1783169873367382800,8.3203828125,0.0004006958333775401,-0.02451707422733307,-0.004257068037986755
1783169873377452800,8.330452880859376,0.007387167774140835,-0.024454766884446144,-0.01387376245111227
1783169873387521800,8.340521728515625,0.005997796542942524,-0.018687158823013306,-0.009452647529542446
1783169873397591800,8.350591796875,-0.004737938288599253,0.002322519663721323,0.002665000967681408
1783169873407660800,8.360660888671875,-0.012895999476313591,0.013141611590981483,0.007474936544895172
1783169873417730800,8.370730712890625,-0.011716299690306187,0.011186704970896244,-0.014768809080123901
1783169873427799800,8.3807998046875,-0.00454414077103138,0.005800994113087654,-0.03222449868917465
1783169873437869800,8.390869873046874,-0.003606562502682209,0.004898871295154095,-0.02437938190996647
1783169873447938600,8.4009384765625,-0.005007651634514332,-0.006310107186436653,-0.020124182105064392
1783169873458008800,8.4110087890625,-0.0024857837706804276,-0.012134063057601452,-0.013749349862337112
1783169873468077600,8.42107763671875,-0.00010811351239681244,-0.01919649913907051,-0.0041310773231089115
1783169873478147800,8.43114794921875,0.0018058514688163996,-0.015186718665063381,0.0016779941506683826
1783169873488216800,8.441216796875,-0.005911456421017647,0.0011459155939519405,0.01024671457707882
1783169873498286800,8.451286865234374,-0.017730968073010445,0.011942123994231224,0.010968204587697983
1783169873508355800,8.46135595703125,-0.01915549300611019,0.012590603902935982,-0.00481129065155983
1783169873518425600,8.471425537109376,-0.011685125529766083,0.003747300710529089,-0.02232026308774948
1783169873528494800,8.481494873046875,-0.007495972327888012,0.00208415649831295,-0.015199501998722553
1783169873538564600,8.491564697265625,-0.006569200195372105,-0.0029161544516682625,-0.003539844648912549
1783169873548633900,8.5016337890625,-0.010299489833414555,-0.002466346137225628,0.002433891873806715
1783169873558703600,8.51170361328125,-0.014622082933783531,0.0014094822108745575,0.006290212273597717
1783169873568772900,8.52177294921875,-0.014460163190960884,0.004028967581689358,0.0066758375614881516
1783169873578843000,8.5318427734375,-0.012139249593019485,0.006085454486310482,0.015318985097110271
1783169873588911900,8.541911865234376,-0.008941326290369034,0.018581805750727654,0.010488010942935944
1783169873598982000,8.55198193359375,-0.005458888132125139,0.020857850089669228,0.00029011769220232964
1783169873609050600,8.562050537109375,-0.0010593461338430643,0.025123436003923416,-0.010260793380439281
1783169873619121000,8.572120849609375,0.00024903251323848963,0.027544774115085602,-0.00973363034427166
1783169873629189600,8.582189697265624,0.000047963811084628105,0.022696223109960556,-0.007665685378015041
1783169873639260000,8.592260009765624,0.010623086243867874,0.011196066625416279,-0.009648274630308151
1783169873649328600,8.60232861328125,0.009798038750886917,0.006465760059654713,-0.0029450980946421623
1783169873659399000,8.61239892578125,0.007371390238404274,0.001599194947630167,0.0032740470487624407
1783169873669467600,8.622467529296875,-0.0012953346595168114,0.005249056965112686,0.01848708838224411
1783169873679537700,8.63253759765625,-0.007561510428786278,0.011188343167304993,0.029802994802594185
1783169873689606700,8.642606689453125,-0.012711530551314354,0.017939724028110504,0.027138235047459602
1783169873699676700,8.6526767578125,-0.011960148811340332,0.021901415660977364,0.016952265053987503
1783169873709745700,8.66274560546875,-0.008561954833567142,0.02698911726474762,0.0022857054136693478
1783169873719815700,8.672815673828126,-0.008168920874595642,0.03741658478975296,-0.01064641959965229
1783169873729885000,8.682885009765625,-0.004866600967943668,0.03447858616709709,-0.016159961000084877
1783169873739954700,8.69295458984375,-0.005870434921234846,0.033027321100234985,-0.015334265306591988
1783169873750024000,8.70302392578125,-0.01090673916041851,0.03322466462850571,-0.00346588809043169
1783169873760093700,8.71309375,-0.003675966989248991,0.023843776434659958,0.001342046307399869
1783169873770163000,8.723162841796874,0.010233722627162933,0.006126031279563904,0.001743384636938572
1783169873780232700,8.733232666015626,0.011257225647568703,0.006031096912920475,0.011403284035623074
1783169873790301700,8.7433017578125,-0.0038064131513237953,0.011645306833088398,0.03468437120318413
1783169873800371700,8.753371826171875,-0.012389030307531357,0.006960932165384293,0.028949705883860588
1783169873810440700,8.763440673828125,-0.008389495313167572,0.004148367792367935,0.008205811493098736
1783169873820511000,8.773510986328125,-0.0026446611154824495,0.009611329063773155,0.007307566702365875
1783169873830579700,8.783579833984374,0.0010949495481327176,0.008212370797991753,0.006597567815333605
1783169873840649700,8.793649658203124,0.003539449069648981,0.002658213023096323,0.0021384325809776783
1783169873850719700,8.8037197265625,-0.0017301475163549185,0.010063664987683296,-0.0013367263600230217
1783169873860788700,8.813788818359376,-0.0014694565907120705,0.015054957009851933,0.0011324139777570963
1783169873870857700,8.823857666015625,0.0008869083249010146,0.01933412440121174,0.008309632539749146
1783169873880927700,8.833927734375,0.004235469736158848,0.024271611124277115,0.00761518394574523
1783169873890997800,8.843997802734375,0.005456528626382351,0.02646499127149582,0.010027475655078888
1783169873901066800,8.854066650390624,0.00441353116184473,0.027923094108700752,0.008446005173027515
1783169873911136800,8.86413671875,0.007446072064340115,0.023009296506643295,-0.0017325961962342262
1783169873921206000,8.8742060546875,0.00766559736803174,0.015479620546102524,-0.008158048614859581
1783169873931275800,8.88427587890625,0.005190721713006496,0.006433394737541676,-0.001887369668111205
1783169873941345000,8.894344970703125,0.0062958849593997,0.0011234437115490437,0.010657903738319874
1783169873951414800,8.904414794921875,0.006399482488632202,-0.008135035634040833,0.012172442860901356
1783169873961484000,8.914484130859375,0.006610671058297157,-0.010933751240372658,0.016764532774686813
1783169873971553800,8.9245537109375,0.0003985814983025193,-0.0028175022453069687,0.026444589719176292
1783169873981623000,8.934623046875,-0.0018543160986155272,0.010056997649371624,0.026605140417814255
1783169873991692800,8.94469287109375,0.0014658469008281827,0.021208984777331352,0.014064581133425236
1783169874001761800,8.95476171875,0.007764715701341629,0.022833548486232758,-0.00794917717576027
1783169874011832000,8.96483203125,0.011425230652093887,0.026051444932818413,-0.01349307969212532
1783169874021900800,8.97490087890625,0.010071189142763615,0.020269934087991714,-0.004181308671832085
1783169874031971000,8.98497119140625,0.012407846748828888,0.01245089340955019,0.001040883595123887
1783169874042039800,8.995039794921874,0.00789608247578144,0.003220668062567711,0.007550365757197142
1783169874052110000,9.005110107421874,0.0013393794652074575,0.000760173425078392,0.01929650455713272
1783169874062178800,9.0151787109375,0.0029509065207093954,0.004048518370836973,0.025823459029197693
1783169874072248800,9.025248779296875,0.0037069779355078936,0.0030873832292854786,0.024027956649661064
1783169874082317800,9.03531787109375,0.0037743947468698025,0.002069756854325533,0.013034224510192871
1783169874092387800,9.045387939453125,0.0043166144751012325,0.0061406646855175495,0.009226437658071518
1783169874102456800,9.055456787109375,-0.0014572548680007458,0.010944759473204613,0.01307474635541439
1783169874112526800,9.06552685546875,-0.0024085359182208776,0.007205149158835411,0.009761507622897625
1783169874122595800,9.075595947265626,0.005053488537669182,0.002984188497066498,0.005569525063037872
1783169874132665900,9.085665771484376,0.002337330486625433,0.003592987544834614,0.009954951703548431
1783169874142735000,9.095735107421875,0.0015771996695548296,0.006878785789012909,0.014572588726878166
1783169874152804900,9.105804931640625,-0.004916385747492313,0.011277263052761555,0.00981352012604475
1783169874162873900,9.115873779296875,-0.007525824010372162,0.015774305909872055,-0.00251047033816576
1783169874172944000,9.12594384765625,-0.01181511115282774,0.018786340951919556,-0.009011778980493546
1783169874183012900,9.136012939453124,-0.011743036098778248,0.015339929610490799,-0.00991128757596016
1783169874193083000,9.146082763671876,-0.007056672126054764,0.006700369529426098,-0.008274774998426437
1783169874203152000,9.15615185546875,0.0034485701471567154,0.005038537085056305,0.0007298672571778297
1783169874213222000,9.166221923828125,0.01124337688088417,-0.005203181877732277,0.008922283537685871
1783169874223291000,9.176290771484375,0.008644849061965942,-0.011909167282283306,0.01603882387280464
1783169874233360600,9.186360595703125,0.006271972320973873,-0.011378931812942028,0.013212943449616432
1783169874243430000,9.196429931640624,0.0011603337479755282,-0.010235365480184555,0.005676873493939638
1783169874253500000,9.2065,-0.002332668285816908,-0.004298379644751549,0.010331546887755394
1783169874263569000,9.21656884765625,-0.0008239713497459888,0.0030829720199108124,0.016069797798991203
1783169874273639000,9.226638916015625,0.0002088026376441121,0.006627639755606651,0.009213224053382874
1783169874283708000,9.2367080078125,0.0023883823305368423,0.002765664830803871,0.001374024199321866
1783169874293778000,9.24677783203125,0.00513969361782074,0.006640564650297165,-0.005329151637852192
1783169874303847000,9.256846923828125,0.009088128805160522,0.008298919536173344,-0.0011497109662741423
1783169874313917000,9.2669169921875,0.01400885172188282,0.0005397996865212917,-0.007176710292696953
1783169874323986000,9.27698583984375,0.013788294047117233,-0.0075821829959750175,-0.010957681573927402
1783169874334056000,9.287055908203126,0.008570095524191856,-0.016199108213186264,-0.01211828738451004
1783169874344124700,9.297124755859375,0.00779473502188921,-0.021884839981794357,-0.0009216610342264175
1783169874354195000,9.30719482421875,0.006463421508669853,-0.024085145443677902,0.009851092472672462
1783169874364263700,9.317263671875,-0.001537964679300785,-0.016931217163801193,0.030752070248126984
1783169874374334000,9.327333984375,-0.007440328598022461,-0.007382451556622982,0.028530994430184364
1783169874384403000,9.33740283203125,-0.011016888543963432,0.0007045133970677853,0.011657226830720901
1783169874394473000,9.347472900390626,-0.00877850130200386,0.009557127021253109,-0.008072003722190857
1783169874404542000,9.3575419921875,-0.0006312725599855185,0.013453172519803047,-0.018967915326356888
1783169874414611700,9.36761181640625,0.009894872084259987,0.009703441523015499,-0.026484422385692596
1783169874424681000,9.377680908203125,0.015812812373042107,0.004164884332567453,-0.0173148512840271
1783169874434750700,9.387750732421875,0.014715855941176414,-0.004470149055123329,-0.012305711396038532
1783169874444820000,9.397820068359374,0.012816788628697395,-0.018826711922883987,-0.005226886831223965
1783169874454889700,9.4078896484375,0.0012123303022235632,0.0018479395657777786,0.004569018725305796
1783169874464959000,9.417958984375,-0.0002694037975743413,-0.0003458326682448387,0.01879171095788479
1783169874475029000,9.428029052734376,0.000030201859772205353,-0.0010829959064722061,0.0103196632117033
1783169874485098000,9.438097900390625,-0.0007208907045423985,-0.0022272346541285515,-0.010437237098813057
1783169874495168000,9.44816796875,-0.0025155951734632254,0.003922536503523588,-0.0172559954226017
1783169874505237000,9.458237060546875,-0.0003052038373425603,0.010398540645837784,-0.018550701439380646
1783169874515307000,9.46830712890625,0.002727870363742113,0.009162833914160728,-0.027993207797408104
1783169874525375700,9.478375732421876,0.0051611121743917465,0.0007356875576078892,-0.019506923854351044
1783169874535446000,9.488446044921876,0.006425314582884312,-0.004602884873747826,-0.0048459554091095924
1783169874545514800,9.4985146484375,0.00325606158003211,-0.004696415737271309,0.004408284556120634
1783169874555585000,9.5085849609375,-0.007186193019151688,-0.0063478415831923485,0.007638964802026749
1783169874565653800,9.51865380859375,-0.0073643638752400875,-0.00954226590692997,0.008269686251878738
1783169874575723800,9.528723876953125,-0.009190758690237999,-0.014556996524333954,0.0001294675748795271
1783169874585792800,9.538792724609374,-0.008050499483942986,-0.009070329368114471,-0.0016999458894133568
1783169874595862800,9.54886279296875,-0.005858450662344694,-0.007160576060414314,-0.008661981672048569
1783169874605932000,9.55893212890625,-0.00007148261647671461,-0.006561243906617165,-0.01795104332268238
1783169874616001800,9.569001708984375,0.007516928482800722,-0.0062714917585253716,-0.018207505345344543
1783169874626071000,9.579071044921875,0.004614339210093021,-0.005841831676661968,-0.010398868471384048
1783169874636140800,9.589140869140625,-0.0009655158501118422,-0.005496686324477196,-0.0037718587554991245
1783169874646210000,9.5992099609375,-0.006415027659386396,-0.005734089761972427,-0.001986372284591198
1783169874656279800,9.60927978515625,-0.006384135689586401,-0.0030996911227703094,-0.003061224240809679
1783169874666349000,9.61934912109375,-0.00592124555259943,-0.005401190370321274,0.002020230982452631
1783169874676418800,9.629418701171875,-0.001927302684634924,-0.0043822648003697395,-0.006401482969522476
1783169874686487800,9.63948779296875,-0.00012345693539828062,-0.009151613339781761,-0.006883906200528145
1783169874696558000,9.64955810546875,0.0016286367317661643,-0.009832317009568214,-0.015211343765258789
1783169874706626800,9.659626708984375,0.0033165260683745146,-0.011232703924179077,-0.012276929803192616
1783169874716697000,9.669697021484374,0.005959180649369955,-0.01299624890089035,-0.0069455476477742195
1783169874726765800,9.679765869140626,0.002676705364137888,-0.008753853850066662,0.00013921968638896942
1783169874736835800,9.6898359375,0.0025760377757251263,-0.007337850518524647,0.004417854361236095
1783169874746904800,9.69990478515625,0.002842902671545744,-0.004331804811954498,-0.005719529464840889
1783169874756974800,9.709974853515625,-0.0007030963897705078,-0.004746458493173122,-0.00864554475992918
1783169874767043800,9.7200439453125,0.0020289591047912836,0.0015792022459208965,-0.007992496713995934
1783169874777113900,9.73011376953125,0.001919769449159503,0.004864743910729885,-0.009423146955668926
1783169874787184000,9.74018408203125,-0.00006049172952771187,0.00479790847748518,-0.01086762547492981
1783169874797252900,9.7502529296875,-0.0010671666823327541,0.002565646544098854,-0.01183222234249115
1783169874807323000,9.760322998046876,0.0017220107838511467,-0.002190353348851204,-0.011613229289650917
1783169874817391900,9.770391845703125,0.00189271941781044,0.0017617782577872276,-0.0022583426907658577
1783169874827462000,9.7804619140625,0.0015191752463579178,0.0060223182663321495,-0.0022009219974279404
1783169874837531000,9.79053076171875,0.0038395875599235296,0.0038795387372374535,-0.007169315125793219
1783169874847601000,9.800600830078125,0.003553700167685747,0.011911613866686821,0.00046512926928699017
1783169874857670000,9.810669921875,0.0052858199924230576,0.013246922753751278,-0.001189226284623146
1783169874867740000,9.820739990234374,0.009368798695504665,0.007621366996318102,-0.008772702887654305
1783169874877809000,9.830808837890626,0.005472327582538128,0.008159591816365719,-0.018469806760549545
1783169874887879000,9.84087890625,0.004001127555966377,0.0008700168691575527,-0.023192059248685837
1783169874897948000,9.850947998046875,0.006428066175431013,-0.005102122202515602,-0.01592588983476162
1783169874908018400,9.861018310546875,0.010078526102006435,-0.009027077816426754,-0.011750299483537674
1783169874918087200,9.871087158203125,0.010066541843116283,-0.007567132823169231,-0.002870521740987897
1783169874928157400,9.881157470703124,0.009164698421955109,-0.017120707780122757,0.0015403085853904486
1783169874938226200,9.89122607421875,0.002194673055782914,-0.019146040081977844,0.0017781289061531425
1783169874948296200,9.901296142578126,-0.00033604796044528484,-0.020413558930158615,0.0018923369934782386
1783169874958365200,9.911365234375,-0.005471954122185707,-0.012062950991094112,-0.005748804658651352
1783169874968435200,9.921435302734375,-0.008098759688436985,-0.014221463352441788,-0.007281760685145855
1783169874978504400,9.93150439453125,-0.010795476846396923,-0.010779595002532005,-0.011291682720184326
1783169874988574200,9.94157421875,-0.008636120706796646,-0.0021836990490555763,-0.010705499909818172
1783169874998643500,9.9516435546875,-0.0032634595409035683,-0.0007413309067487717,-0.012822446413338184
1783169875008713200,9.961713134765626,0.00028390379156917334,0.0026185167953372,-0.008060038089752197
1783169875018782500,9.971782470703126,-0.00014060409739613533,0.00624121492728591,-0.004817639943212271
1783169875028852200,9.981852294921875,0.004717478062957525,-0.0002764398232102394,-0.011884077452123165
1783169875038921500,9.99192138671875,0.010899473913013935,-0.004754278808832169,-0.017308669164776802
1783169875048991200,10.0019912109375,0.009808715432882309,-0.00694102980196476,-0.010072117671370506
1783169875059060200,10.012060302734374,0.0022962044458836317,0.00005083344876766205,0.002605860121548176
1783169875069130500,10.022130615234374,-0.0009409165941178799,0.0012650946155190468,0.0031402744352817535
1783169875079199200,10.03219921875,0.0026263874024152756,0.0027181152254343033,-0.004672640934586525
1783169875089269500,10.04226953125,0.006151525769382715,0.00641980255022645,-0.009965287521481514
1783169875099338200,10.052338134765625,0.008348101750016212,0.008343935944139957,-0.017989126965403557
1783169875109408300,10.062408203125,0.011042525991797447,0.009523426182568073,-0.016362914815545082
1783169875119477200,10.072477294921875,0.007919436320662498,0.0056421346962451935,-0.009992366656661034
1783169875129547300,10.08254736328125,0.00224768603220582,0.0012294081971049309,-0.0030265413224697113
1783169875139616300,10.0926162109375,-0.0009779345709830523,0.0029926872812211514,-0.006683328188955784
1783169875149686300,10.102686279296876,0.004304171539843082,-0.004304335452616215,-0.011947790160775185
1783169875159755300,10.11275537109375,0.0061705149710178375,-0.002482467330992222,-0.01164818461984396
1783169875169825300,10.1228251953125,0.006135998759418726,0.000823556911200285,-0.011016394942998886
1783169875179894300,10.132894287109375,0.0048723286017775536,-0.0002757962793111801,-0.009817173704504967
1783169875189964300,10.14296435546875,-0.006814584136009216,-0.001105395145714283,-0.019300607964396477
1783169875200033300,10.153033203125,-0.01712953858077526,0.000009403564035892487,-0.0055222101509571075
1783169875210103300,10.163103271484376,-0.013223915360867977,0.007537375204265118,0.003906076308339834
1783169875220172300,10.17317236328125,-0.00866911094635725,-0.00022334232926368713,-0.011365022510290146
1783169875230242300,10.1832421875,-0.005322218872606754,-0.0019810134544968605,-0.026954738423228264
1783169875240311300,10.193311279296875,-0.006902006454765797,-0.0009607560932636261,-0.022215643897652626
1783169875250381300,10.20338134765625,-0.0095329275354743,-0.0026796916499733925,-0.011063717305660248
1783169875260450300,10.2134501953125,-0.00859655998647213,-0.0076864343136549,-0.015250472351908684
1783169875270520300,10.223520263671874,-0.0029584625735878944,-0.01349120493978262,-0.01633433811366558
1783169875280589300,10.23358935546875,-0.0063790264539420605,-0.012869889847934246,-0.012252775952219963
1783169875290659000,10.2436591796875,-0.009834825061261654,-0.00921884085983038,-0.009563474915921688
1783169875300728300,10.253728271484375,-0.004932745359838009,-0.011707033030688763,-0.010444981046020985
1783169875310798300,10.26379833984375,0.0026228600181639194,-0.0108038280159235,-0.013050167821347713
1783169875320867300,10.273867431640625,0.0009344159625470638,-0.013286428526043892,-0.010853592306375504
1783169875330937300,10.283937255859374,0.0029914909973740578,-0.01482426282018423,-0.007004177197813988
1783169875341006300,10.29400634765625,0.0026948146987706423,-0.004178542643785477,-0.013078580610454082
1783169875351076400,10.304076416015626,0.004056238569319248,-0.0006254836916923523,-0.024665791541337967
1783169875361145300,10.314145263671875,0.005410189740359783,-0.0008063120767474174,-0.03513680770993233
1783169875371215400,10.32421533203125,0.0014559817500412464,-0.0018283305689692497,-0.03671686351299286
1783169875381284400,10.334284423828125,-0.006912468932569027,0.0025168824940919876,-0.02217360958456993
1783169875391354400,10.344354248046875,-0.004433734342455864,-0.007455038838088512,-0.030325766652822495
1783169875401423000,10.354423095703124,-0.0009013169910758734,-0.013966734521090984,-0.030213646590709686
1783169875411493400,10.364493408203124,-0.0019384720362722874,-0.021384280174970627,-0.016536736860871315
1783169875421562000,10.37456201171875,-0.00002392544411122799,-0.02840171381831169,-0.010535570792853832
1783169875431632400,10.38463232421875,0.005578477866947651,-0.027479030191898346,-0.01086275465786457
1783169875441701400,10.394701416015625,0.0015461859293282032,-0.025866486132144928,-0.011949058622121811
1783169875451771100,10.404771240234375,-0.0036619827151298523,-0.017337234690785408,-0.005935083143413067
1783169875461840400,10.41484033203125,-0.007718775887042284,-0.004563117399811745,-0.01254584826529026
1783169875471910100,10.42491015625,-0.0009585916996002197,-0.0030894549563527107,-0.0211857371032238
1783169875481979400,10.4349794921875,-0.0012491424567997456,0.00590856745839119,-0.01725970394909382
1783169875492049200,10.445049072265626,0.008203192614018917,0.009866992011666298,-0.014064300805330276
1783169875502118400,10.455118408203125,0.009463666938245296,0.006281578913331032,-0.015932509675621986
1783169875512188200,10.465188232421875,0.010319694876670837,0.0002429680898785591,-0.009743443690240383
1783169875522257400,10.47525732421875,0.0031190398149192333,-0.006130242720246315,-0.0015198683831840754
1783169875532327400,10.485327392578125,0.0012310694437474012,-0.007427569478750229,0.0013347710482776165
1783169875542396400,10.495396484375,-0.0008930678013712168,-0.010645467787981033,0.008275767788290977
1783169875552466400,10.505466552734376,0.000594388460740447,-0.0040436116978526115,0.015179434791207314
1783169875562535200,10.51553515625,-0.00035236531402915716,-0.0038601206615567207,0.01302493829280138
1783169875572605400,10.52560546875,0.0013318014098331332,-0.0020074937492609024,0.009255562908947468
1783169875582674200,10.535674072265625,-0.00034332682844251394,0.006005425006151199,0.008388437330722809
1783169875592744400,10.545744384765625,-0.001996012404561043,0.005750264041125774,0.0029012043960392475
1783169875602813200,10.555813232421874,-0.003373931860551238,0.007743639871478081,0.0016894661821424961
1783169875612883500,10.565883544921874,0.0008528523030690849,0.007515552453696728,-0.0005686706863343716
1783169875622952200,10.5759521484375,0.0031394422985613346,0.0047226957976818085,-0.0022331462241709232
1783169875633022200,10.586022216796875,0.011044487357139587,0.0006141019985079765,0.0009555178694427013
1783169875643092500,10.596092529296875,0.009350982494652271,0.011125066317617893,0.012474222108721733
1783169875653161200,10.6061611328125,0.011048628017306328,0.013089568354189396,0.01901731640100479
1783169875663230500,10.61623046875,0.006171314045786858,0.012976916506886482,0.015267585404217243
1783169875673300200,10.62630029296875,0.0040942891500890255,0.009760572575032711,0.006112218368798494
1783169875683369500,10.636369384765626,0.004215995781123638,0.005846258718520403,0.0012032135855406523
1783169875693439200,10.646439208984376,0.004986812360584736,0.002822254318743944,-0.0005886638537049294
1783169875703509200,10.65650927734375,0.011215945705771446,-0.0022870199754834175,0.0036148696672171354
1783169875713578200,10.666578125,0.011618527583777905,-0.0017704730853438377,0.01113868411630392
1783169875723648300,10.676648193359375,0.00891968049108982,0.011304582469165325,0.024503491818904877
1783169875733717200,10.68671728515625,0.008335753343999386,0.008547388017177582,0.02191498503088951
1783169875743787300,10.696787353515624,-0.00039089261554181576,0.008410234935581684,0.003837714670225978
1783169875753856500,10.7068564453125,-0.007972292602062225,0.0059567708522081375,-0.008100826293230057
1783169875763926300,10.71692626953125,-0.011820027604699135,0.01427781768143177,-0.006134614814072847
1783169875773995500,10.72699560546875,-0.006944280117750168,0.016103152185678482,-0.0006137385498732328
1783169875784065300,10.737065185546875,-0.0034744469448924065,0.007277437020093203,0.002593772951513529
1783169875794134300,10.74713427734375,-0.004957197234034538,0.00350588234141469,0.013932878151535988
1783169875804204300,10.757204345703125,-0.006039505824446678,0.00219720508903265,0.013007428497076035
1783169875814273300,10.767273193359374,-0.003672156948596239,0.004487267695367336,0.01857904903590679
1783169875824343300,10.77734326171875,-0.0023712031543254852,-0.0067701805382966995,0.0073610153049230576
1783169875834412300,10.787412353515625,-0.0037562258075922728,-0.005363659001886845,0.009822985157370567
1783169875844482300,10.797482421875,-0.005018830299377441,-0.0055594006553292274,0.012116499245166779
1783169875854551300,10.80755126953125,0.0009218991035595536,-0.01044057309627533,0.007724085822701454
1783169875864621300,10.817621337890625,0.004438336938619614,-0.009192083030939102,0.00314984074793756
1783169875874690300,10.827690185546874,0.0012018627021461725,-0.010775056667625904,0.0013847185764461756
1783169875884760300,10.83776025390625,0.003896182868629694,-0.008255439810454845,-0.0022235983051359653
1783169875894829300,10.847829345703126,0.0002580871805548668,-0.005135406740009785,-0.010647361166775227
1783169875904899000,10.857899169921875,0.0020573188085108995,-0.0044616274535655975,-0.032206978648900986
1783169875914968000,10.867968017578125,-0.007152953185141087,-0.026358705013990402,-0.038808777928352356
1783169875925038000,10.8780380859375,-0.003046891186386347,-0.019518379122018814,-0.06291677802801132
1783169875935107000,10.888107177734375,0.00008366629481315613,-0.029196932911872864,-0.07517767697572708
1783169875945177000,10.898177001953124,0.0007190965116024017,-0.038223717361688614,-0.06201767176389694
1783169875955246000,10.90824609375,0.005451251287013292,-0.05780554190278053,-0.04583144560456276
1783169875965316000,10.918316162109376,0.012127796187996864,-0.01940489187836647,0.02979167364537716
1783169875975384800,10.928384765625,-0.0020667491480708122,-0.013574188575148582,0.038453683257102966
1783169875985455000,10.938455078125,-0.008917463943362236,-0.020461656153202057,0.04161406308412552
1783169875995524000,10.948524169921875,-0.019379813224077225,-0.005055381916463375,0.011734971776604652
1783169876005594000,10.958593994140625,-0.02079208567738533,-0.0035996977239847183,0.0041151344776153564
1783169876015663000,10.9686630859375,-0.016055289655923843,0.011657300405204296,-0.0030241054482758045
1783169876025733000,10.978733154296876,-0.008168872445821762,0.02134241908788681,-0.010609854012727737
1783169876035802000,10.988802001953125,0.014277918264269829,0.04679102450609207,0.0005979998968541622
1783169876045871900,10.998871826171875,0.026848305016756058,0.0847645029425621,0.029460273683071136
