time,seconds_elapsed,z,y,x
1783169812663107800,0.06910791015625,-0.13352291978299616,0.04027355819940567,-0.8379704349242151
1783169812673177900,0.079177734375,-0.030283786843717096,0.10661562363505363,-0.8370221212234348
1783169812683247900,0.089247802734375,0.06632219169139862,0.09217910200357436,-0.7649621895976364
1783169812693316900,0.09931689453125,0.13868103319853545,0.07732932339608668,-0.6206522106014192
1783169812703387000,0.109386962890625,0.17656769626140592,0.1221370178937912,-0.5164101111646742
1783169812713457000,0.119456787109375,0.19909809249937532,0.16984920166134834,-0.40832123663928355
1783169812723527000,0.12952685546875,0.2534013450950384,0.16386603559851645,-0.24673677263930438
1783169812733596000,0.139595947265625,0.2584609665721655,0.11109481487572193,-0.07885800340124405
1783169812743666000,0.149666015625,0.20166881977021692,0.16543021617531775,-0.14135906590190717
1783169812753735700,0.159735595703125,0.170543613666296,0.19397709622383116,-0.1989519620269537
1783169812763805000,0.169804931640625,0.3268751621067524,0.15198387462496757,-0.1524783070784062
1783169812773874700,0.179874755859375,0.45529169866144653,0.03402501919865608,-0.11835049422555602
1783169812783945000,0.189945068359375,0.34397768807709217,-0.07860065850615501,-0.11065524528152308
1783169812794014000,0.200013916015625,0.2734656434804201,-0.13276245680451393,-0.06550702568388078
1783169812804083700,0.210083740234375,0.17643676335811614,-0.14513035546839237,-0.09570996127715334
1783169812814154000,0.220154052734375,0.19530425317436456,-0.09178162711858749,0.06411790941304062
1783169812824223700,0.2302236328125,0.2136170317173004,0.038622283861041065,0.08483188104592264
1783169812834293000,0.24029296875,0.21966391066610813,0.1205418576568365,0.17514831271646544
1783169812844361700,0.25036181640625,0.11784838078916073,0.09147533764839172,0.19313567696362732
1783169812854431700,0.260431640625,0.06104746615886688,0.12204875508844852,0.15057880273316987
1783169812864500700,0.270500732421875,0.15096154583990573,0.061844169494509695,0.15221683399747124
1783169812874570800,0.28057080078125,0.11393354543298483,0.032927871611714364,0.13374849956664256
1783169812884641000,0.29064111328125,0.08279314175993203,0.136755325832963,0.09989024263648316
1783169812894710800,0.300710693359375,0.09988017790019511,0.19825112028121947,0.06404695850210264
1783169812904780000,0.310780029296875,0.015080080232024192,0.2276987485617399,0.010584917387377936
1783169812914849800,0.320849853515625,-0.08313362576067447,0.25776246291399,-0.048698564456403255
1783169812924919800,0.330919921875,-0.28402035524249075,0.20739830333292483,-0.15942580639505757
1783169812934988800,0.34098876953125,-0.24753683697581289,0.17979601065814493,-0.24914962420100345
1783169812945058800,0.351058837890625,-0.1044733509093523,0.10644435872137546,-0.27048744965353977
1783169812955128800,0.36112890625,-0.006831891846656799,0.047365562286972994,-0.2618465904224664
1783169812965198800,0.37119873046875,-0.1240253158584237,0.040030981615185736,-0.3027994726555422
1783169812975267800,0.381267822265625,-0.21177578776478767,0.07291150695383548,-0.33619408499617126
1783169812985337900,0.391337890625,-0.16799889761954545,0.09999649775624275,-0.384498060644418
1783169812995408000,0.401407958984375,-0.012071546065807341,0.05443009384572506,-0.29313381868768484
1783169813005476600,0.4114765625,-0.009652502225339412,-0.06847790842056274,-0.20610543224448338
1783169813015547000,0.421546875,-0.18906039034873245,-0.1771925501614809,-0.2396315437439829
1783169813025617000,0.431616943359375,-0.16216858403086662,-0.27961013758480546,-0.15355068555027246
1783169813035686000,0.441685791015625,0.07930383833944797,-0.2765402286201715,-0.12834930740422568
1783169813045756000,0.451755859375,0.11695113968849181,-0.21394261040985582,-0.04605179454097524
1783169813055825700,0.46182568359375,0.07321545833647251,-0.19190847325623034,0.07563357059517875
1783169813065895700,0.471895751953125,0.039405835454165934,-0.17158698523938654,0.15466065608616916
1783169813075965000,0.48196484375,0.09117255530953407,-0.15888064840137958,0.20045537059353663
1783169813086034700,0.49203466796875,0.32947540773302314,-0.07828677025139331,0.29865789760509504
1783169813096105000,0.50210498046875,0.6255883518293499,-0.05533259564340114,0.4475554783862084
1783169813106173700,0.512173583984375,0.660085372453928,-0.014818798947334288,0.5503930813198908
1783169813116243700,0.52224365234375,0.6559010725066066,0.024377485409379004,0.6168931503288447
1783169813126314000,0.53231396484375,0.5944745439022779,0.08642974469661713,0.6073464465655386
1783169813136382700,0.5423828125,0.5547179953143,0.062200143325328826,0.6305203283388168
1783169813146453000,0.552452880859375,0.4832023266330361,0.012653145346045494,0.6666007456973194
1783169813156522800,0.562522705078125,0.34500060138404365,0.019518939462304114,0.6464900508869439
1783169813166592800,0.5725927734375,0.2749535439506173,0.037979309782385826,0.5790328272836283
1783169813176661800,0.582661865234375,0.0956891559511423,-0.015096446844935416,0.4664510617857799
1783169813186731800,0.592731689453125,0.033385552251338955,-0.0470645335137844,0.44119387093242257
1783169813196801800,0.6028017578125,-0.011976268997788428,-0.12314824076294899,0.2589497730024159
1783169813206870800,0.612870849609375,-0.1304892511755228,-0.10394669668674468,0.1113256918889936
1783169813216940800,0.62294091796875,-0.15795008955299852,-0.047102527436614035,-0.06113564676581881
1783169813227010800,0.6330107421875,-0.15057751495838165,-0.025710779839754103,-0.20271502262121066
1783169813237080800,0.643080810546875,-0.1467988732025027,0.03298807736635208,-0.39894250985402613
1783169813247149800,0.65314990234375,-0.07694090860038995,-0.01314998895227909,-0.3873896904326975
1783169813257219800,0.6632197265625,-0.1432613467261195,-0.03545651330649852,-0.41721473719086494
1783169813267289900,0.673289794921875,-0.14315584052503108,0.06400865405201911,-0.3946753904614597
1783169813277358800,0.68335888671875,-0.07868249157071112,0.1382014329880476,-0.3253234026201069
1783169813287428900,0.693428955078125,-0.03724573481082916,0.20931319704353807,-0.24240791312213986
1783169813297499000,0.703498779296875,0.0193082193210721,0.1959106946349144,-0.16504777446268126
1783169813307567900,0.71356787109375,-0.03491349247097969,0.1546796895802021,-0.04147390129934065
1783169813317638000,0.723637939453125,-0.08005261088013649,0.12924538859426973,0.059320249640615656
1783169813327707600,0.733707763671875,-0.037062194937467575,0.13110066107213497,0.17339838204290717
1783169813337778000,0.74377783203125,0.05343523758947849,0.16812720017433166,0.2608805949345231
1783169813347846700,0.7538466796875,0.0432306544393301,0.16601590710878372,0.30174702272685244
1783169813357917000,0.7639169921875,0.007631225530803203,0.1247030689895153,0.34679194178022443
1783169813367987000,0.773987060546875,0.06840981162041425,0.07785247048735618,0.4010870110694319
1783169813378056000,0.784055908203125,0.03170359051376581,0.07949789960682392,0.3663377692494541
1783169813388126000,0.7941259765625,-0.05430354485660791,0.1148123740941286,0.33190891849026083
1783169813398195700,0.80419580078125,-0.02493745737969875,0.12294658071100711,0.3052304991947487
1783169813408265000,0.814264892578125,0.03885200096368789,0.12152268538773059,0.2841054579763673
1783169813418334700,0.824334716796875,0.04333820646703243,0.11295827066004276,0.24824750599581746
1783169813428404700,0.83440478515625,-0.0045329672545194625,0.07188800912499427,0.15079561468847094
1783169813438475000,0.84447509765625,0.040619887419044966,0.0006494038194417953,0.12736852533910423
1783169813448543700,0.854543701171875,0.037439796078205106,-0.0067681789606809616,0.045444489997322667
1783169813458613800,0.86461376953125,-0.06920154651999473,-0.04766074584126472,-0.008477690858882852
1783169813468683800,0.874683837890625,-0.03264379397332668,-0.0825964501440525,-0.07029247899528127
1783169813478752800,0.884752685546875,0.00492518144249916,-0.05072773219645023,-0.1151350301772356
1783169813488823000,0.894822998046875,0.046427989175915715,-0.02421732641160488,-0.16230338939167557
1783169813498892800,0.904892822265625,0.08960077594816684,-0.038973581516742704,-0.1112934975192882
1783169813508962800,0.914962890625,0.1196487082093954,-0.07986556387543678,-0.06830558862753677
1783169813519031800,0.92503173828125,0.05381196194738149,-0.11634557501077651,0.04247611431155819
1783169813529101800,0.935101806640625,0.010099953731894493,-0.1048614734441042,0.07734274913324042
1783169813539171800,0.945171875,0.03854541923254728,-0.07535831558406353,0.06381330957643222
1783169813549240800,0.95524072265625,0.12372545612901449,-0.066793316334486,0.11326927283797412
1783169813559310800,0.965310791015625,0.15514847613573074,-0.05378711976706981,0.1483494636453688
1783169813569380900,0.975380859375,0.12343348744511604,-0.04417290372550487,0.14843383572688326
1783169813579449900,0.985449951171875,0.0739127929508686,-0.03574000642299652,0.1132700948218815
1783169813589519600,0.99551953125,0.15716536891609428,-0.038436405900120735,0.18359266299474983
1783169813599590000,1.00558984375,0.22851941729485986,-0.004578559961915016,0.18597732964158056
1783169813609660000,1.015659912109375,0.1842822161614895,0.0038368016839027404,0.1783966469879262
1783169813619729000,1.02572900390625,0.1224921149417758,0.03941723363101482,0.09687577191982417
1783169813629799000,1.035798828125,0.10551730700433254,0.002354454171657562,0.10418876181431114
1783169813639868700,1.04586865234375,0.15423428390026092,0.0027408231407403945,0.05633882724361028
1783169813649938000,1.05593798828125,0.07808744828701018,-0.007023615026473999,0.000516986778541468
1783169813660007700,1.066007568359375,0.06088204646408558,0.025335516786575314,-0.02570147315529175
1783169813670077700,1.07607763671875,0.03937719388157129,0.0020469956576824187,-0.016380677969194946
1783169813680147000,1.08614697265625,-0.055713703915476795,0.058500119763612746,-0.05410639658300206
1783169813690216700,1.096216796875,-0.043289106628298754,0.09363046985566616,-0.09514530399856157
1783169813700287000,1.106286865234375,0.045629240013659,0.09456687392294406,-0.06781908831880427
1783169813710356700,1.116356689453125,0.07404226454943418,0.12368892351090907,-0.19196964712524786
1783169813720425700,1.12642578125,-0.05452011021673679,0.13741349748075007,-0.2133408451244235
1783169813730496000,1.13649609375,-0.09083937783241272,0.08713701618313789,-0.12470637519145383
1783169813740565800,1.146565673828125,-0.0458446363300085,0.17266718169152737,-0.12480304963211528
1783169813750635000,1.156635009765625,0.005414426264166832,0.19308102416694164,-0.1288102485800162
1783169813760704800,1.166704833984375,0.03774170163422823,0.12508826891481875,-0.16450300006149335
1783169813770774800,1.17677490234375,0.036888591936230654,0.1013496659308672,-0.1094546555864159
1783169813780843800,1.18684375,0.07744535099118947,0.11603460936546325,-0.09710050232009962
1783169813790913800,1.196913818359375,0.14618454069644213,0.10881050333082676,-0.04618274114399683
1783169813800983800,1.20698388671875,0.1798638151973486,0.10082944144904613,0.026597408214863387
1783169813811053800,1.2170537109375,0.15646248134374618,0.06866378638148307,0.07987795756612905
1783169813821122800,1.227122802734375,0.11665303352475166,0.04711889404952526,0.1000621194715146
1783169813831192800,1.23719287109375,0.1330816057562828,0.0775076025724411,0.11323850324037484
1783169813841263600,1.247263671875,0.15881518194973468,0.052069794455170626,0.14203931238418444
1783169813851332600,1.25733251953125,0.172294841247797,0.04269055621325969,0.16614773506121708
1783169813861402600,1.267402587890625,0.12987667223513125,0.006592822393774986,0.11464952081576921
1783169813871472600,1.27747265625,0.13969254832863806,0.007260930913686752,0.08588767370916903
1783169813881541600,1.287541748046875,0.08270692478120327,-0.04344751206040382,0.047490613438747824
1783169813891611600,1.297611572265625,0.1384735279276967,-0.027485388296842574,0.04567974635818973
1783169813901681700,1.307681640625,0.1416971661493182,-0.07780746230185032,0.03807673314171843
1783169813911750700,1.317750732421875,0.1171218200802803,-0.05455927318334579,0.024963253974658435
1783169813921820700,1.327820556640625,0.08633855928182602,-0.002329319730401039,-0.045659269825741644
1783169813931890700,1.337890625,0.08138210591822863,0.044504327636957164,-0.036985398807632734
1783169813941960400,1.34796044921875,0.005386369213461876,0.05647942759096622,-0.069371372961835
1783169813952029700,1.35802978515625,0.028979426246881483,0.030974399456381797,-0.05957701001381501
1783169813962099500,1.368099365234375,0.046959904095530504,-0.014388590836524962,-0.04796381130791269
1783169813972169700,1.378169677734375,0.00858428847193718,-0.05539806209504604,-0.019933007005776743
1783169813982238500,1.388238525390625,-0.0195107561558485,-0.07361001061201095,-0.001220072997000534
1783169813992308700,1.398308837890625,-0.01197451543211937,-0.061059741118550295,-0.013413375429087318
1783169814002378800,1.408378662109375,0.008778934261202812,-0.04589373616874218,0.010398093003319809
1783169814012447500,1.418447509765625,0.03412760279029608,-0.011132803910970688,0.052794555932609365
1783169814022517800,1.428517822265625,0.048559740507602686,0.026523265266418454,0.03724565489572706
1783169814032587500,1.43858740234375,-0.0008902268379926681,0.06152443602085113,0.030174097657855597
1783169814042657500,1.448657470703125,0.026095395243167875,0.0645364773184061,-0.030414126091962677
1783169814052726500,1.4587265625,0.08819383175969123,0.057842532637715334,-0.05330416312229354
1783169814062796500,1.468796630859375,0.09536942247748374,0.04720248067975044,-0.07005237749593797
1783169814072866600,1.478866455078125,0.0772638569444418,0.0004962590843439102,-0.08066413037460297
1783169814082935600,1.488935546875,0.07554477806687354,0.004451134189963341,-0.03275256071058102
1783169814093005600,1.499005615234375,0.05987988368421793,0.03525894490778446,-0.017974113181588473
1783169814103075600,1.50907568359375,0.04700637358576059,0.07951777335107325,-0.021991393990442157
1783169814113144600,1.51914453125,0.04773644142597913,0.11337620381116867,-0.006695651438942877
1783169814123214800,1.52921484375,0.03839578162878751,0.13184066578447817,-0.04030300805617589
1783169814133284600,1.53928466796875,0.06746376294195651,0.11900339604318141,-0.0877985214323271
1783169814143354600,1.549354736328125,0.05840834982693195,0.04397358176112175,-0.08672361307665705
1783169814153423600,1.559423583984375,0.0426879258647561,-0.03698854517936706,-0.04857360920275096
1783169814163493600,1.56949365234375,0.022866788585484025,-0.10793664310574531,-0.02188428263744572
1783169814173563600,1.579563720703125,0.025077742633223533,-0.0828887110888958,0.03327137412002776
1783169814183632600,1.589632568359375,0.061521221150457855,-0.010840542966127395,0.02925416523476597
1783169814193702700,1.59970263671875,0.044647243238985536,0.06621054801046848,0.05641167328411247
1783169814203772700,1.609772705078125,-0.02288841589540243,0.10522855319082737,0.06519921554345637
1783169814213841700,1.619841552734375,-0.010549451065063477,0.11967092004120349,0.04801967881415039
1783169814223911400,1.629911376953125,0.0014683189868927,0.13260054424107073,0.01837614779397263
1783169814233981700,1.639981689453125,-0.04868599723577499,0.11359306143224239,0.0022803563181631034
1783169814244050400,1.650050537109375,-0.06081161157637834,0.08655424785912036,-0.04366325087004807
1783169814254120700,1.66012060546875,0.003375321651995182,0.0641314036488533,-0.09595769809368065
1783169814264190700,1.670190673828125,0.03397533483803272,0.034734628772735594,-0.11015492194341495
1783169814274260500,1.680260498046875,0.030625439888238903,0.00862169787287712,-0.09448368915151804
1783169814284329700,1.690329833984375,0.08202361869215964,0.03631868309378624,-0.06547658487984445
1783169814294399700,1.700399658203125,0.04284428547024727,0.058960723012685776,-0.06871860357495024
1783169814304469500,1.710469482421875,0.03798340143561363,0.0761871676236391,-0.06961755714209285
1783169814314538800,1.720538818359375,0.028871581958234308,0.07618015336096286,-0.005436485115636606
1783169814324608500,1.7306083984375,0.01079202764928341,0.07465630479454993,0.002854219245695276
1783169814334678500,1.740678466796875,0.0004167641073465347,0.06735913352370261,0.03016518826561514
1783169814344747500,1.75074755859375,-0.0052484220474958414,0.04885141693055629,0.05945755291918758
1783169814354817500,1.760817626953125,-0.027021277916431427,0.03958265332579612,0.06564190867650323
1783169814364887800,1.7708876953125,-0.026109716029465196,0.04632628236711025,0.03942368163811043
1783169814374957600,1.78095751953125,0.025536300055682658,0.02396539747714996,0.04237887818189338
1783169814385026800,1.79102685546875,0.03541530451327562,-0.0021785130828619,0.02837597132786177
1783169814395096600,1.8010966796875,0.029729660092294215,-0.0155459441781044,0.0242874713216559
1783169814405166600,1.81116650390625,0.06168956345468759,-0.007375497204065323,0.039168784428434446
1783169814415235600,1.821235595703125,0.06188771637529134,-0.0008113163828849792,-0.008012854392686859
1783169814425305600,1.8313056640625,0.061953475087881085,0.033570261168479915,-0.017721968476357867
1783169814435375600,1.841375732421875,0.048291444960236546,0.029331308424472808,-0.024489896275289354
1783169814445444600,1.851444580078125,0.07323240947127342,0.02724631884396076,0.012467301634454633
1783169814455514600,1.8615146484375,0.05985825637429952,0.004687865555286407,0.01989493316784501
1783169814465584600,1.871584716796875,0.0409603714197874,0.012591770547628401,0.014183352871297392
1783169814475653600,1.881653564453125,0.05442775575816631,0.04787234276533127,0.0033968439306365323
1783169814485723600,1.8917236328125,0.05681611219942569,0.0461368972748518,0.005067893831839319
1783169814495793700,1.901793701171875,0.0447772993594408,0.06713526163995266,0.005410215879930183
1783169814505862700,1.911862548828125,0.01446370189934969,0.051859951096773146,0.015127782698115332
1783169814515932700,1.9219326171875,0.0019055413603782652,0.07038637239038943,0.01278645286951214
1783169814526002700,1.932002685546875,0.022255670949816703,0.07799392478466033,0.0010027975341072306
1783169814536072700,1.94207275390625,0.013043605968356131,0.08566752815246581,-0.03669905614692252
1783169814546141700,1.9521416015625,-0.0114198041588068,0.11001637198925018,-0.07482057371186092
1783169814556211700,1.962211669921875,-0.019253858785331247,0.1163549273610115,-0.07617517122516874
1783169814566281500,1.972281494140625,-0.023444588473439214,0.06749240451455116,-0.0962075903346762
1783169814576350700,1.982350830078125,-0.04184855243116617,0.04200725012421608,-0.07414832787294871
1783169814586420500,1.99242041015625,-0.03507511277347803,0.04266016107499599,-0.03657215781464474
1783169814596490500,2.002490478515625,-0.007713058595359325,0.024780805513262748,-0.006992365938262082
1783169814606559500,2.0125595703125,0.002598492060601711,0.05852116255164146,0.01872558799437247
1783169814616629500,2.02262939453125,0.030976445282995698,0.0707283176958561,0.03523798203485785
1783169814626699800,2.03269970703125,0.05196750312447548,0.07433189514577389,0.03914652693085372
1783169814636769500,2.04276953125,0.05805033016949892,0.07281447632014751,0.04967123628030531
1783169814646838800,2.0528388671875,0.05558452457785606,0.06366787779033184,0.03148243574348744
1783169814656908500,2.062908447265625,0.07015548624396324,0.06021159985661506,0.03216444264129968
1783169814666978600,2.072978515625,0.052666591304540634,0.051045712104439735,0.03008229575513396
1783169814677047800,2.0830478515625,-0.010564648634195328,0.02760930693745613,0.015036638382519594
1783169814687117600,2.09311767578125,-0.02760872241556644,0.00011865794360637664,-0.035759619872341865
1783169814697187600,2.1031875,-0.03483312071114778,-0.035460020437836644,-0.054097231462434864
1783169814707256600,2.113256591796875,-0.041107670935988425,-0.016442016234993934,-0.10795293665342032
1783169814717326600,2.12332666015625,-0.06160510004162788,-0.01502571969628334,-0.10715475374674424
1783169814727396600,2.133396728515625,-0.08980185147821902,-0.01941547908782959,-0.11020572054889052
1783169814737465600,2.143465576171875,-0.11836568266153334,-0.04406184456646442,-0.042617468144162556
1783169814747535600,2.15353564453125,-0.0504676199555397,0.026470073774456978,-0.020745910274260676
1783169814757605600,2.163605712890625,-0.005077741655707359,0.05165127678215503,0.020959502792591227
1783169814767675600,2.173675537109375,-0.013358078745007515,0.06063362466096878,0.09607006329381838
1783169814777744600,2.18374462890625,-0.010763386076688766,0.09410685519576072,0.08279971763119101
1783169814787814700,2.193814697265625,0.003317746245861053,0.09945932213962078,0.061609214527742005
1783169814797884700,2.203884765625,0.006764087307453155,0.06054419281184673,0.07129489750347566
1783169814807953700,2.21395361328125,-0.023599194513261316,0.055768064451217646,0.0316619615954347
1783169814818023700,2.224023681640625,-0.011642799259722232,0.08395780162513256,-0.02695588453002274
1783169814828093400,2.234093505859375,0.0022229367464780807,0.08087503317892551,-0.08459003511406481
1783169814838162700,2.24416259765625,0.003232406049966812,0.04601823933124542,-0.09500955792283639
1783169814848231700,2.254231689453125,0.029891280394792556,0.03906301336586475,-0.10824885086007416
1783169814858301700,2.2643017578125,0.031108254969120022,0.02112637465894222,-0.08994217326436191
1783169814868370700,2.27437060546875,0.03832183960974216,0.017192542341351508,-0.039506747678527604
1783169814878440700,2.284440673828125,0.07301788993775844,0.017673603856563566,-0.026123057284939567
1783169814888510700,2.2945107421875,0.06910042423307895,0.04930500591695308,-0.023440184009668883
1783169814898580700,2.304580810546875,0.06880465615689754,0.07885434100627899,0.0011698337972396984
1783169814908649700,2.314649658203125,0.07012801371514797,0.0948790086120367,0.024385881061677352
1783169814918719700,2.3247197265625,0.08865823440104723,0.07025953114032744,-0.017364359810878523
1783169814928789500,2.33478955078125,0.0902262143701315,0.048743280380964274,-0.023991351619025224
1783169814938858800,2.344858642578125,0.10746376489698886,0.037141105392575265,-0.03707207016079919
1783169814948928500,2.354928466796875,0.12712298961281776,0.033355157113075254,-0.037883566923486066
1783169814958998800,2.364998779296875,0.10575228480398655,0.046778117787837976,-0.05330819541001692
1783169814969067800,2.37506787109375,0.0846142197072506,0.03496025422215462,-0.022092363297019618
1783169814979137500,2.385137451171875,0.11062310571074485,0.025332009655237197,-0.022045749959605745
1783169814989207800,2.395207763671875,0.0909445917725563,0.019529460856318473,-0.0033688416788587344
1783169814999276500,2.405276611328125,0.05116612361371517,0.011883330017328261,-0.0019253968383185565
1783169815009346800,2.415346923828125,0.004342413118481636,-0.007313537883758545,-0.004514285386935808
1783169815019416800,2.425416748046875,-0.02001929019987583,0.025306875213980673,-0.007780251213209703
1783169815029486600,2.435486572265625,0.014918752190470695,-0.000218026664853096,0.0039990567406406625
1783169815039555800,2.445555908203125,0.006429156264662742,-0.00424245987534523,0.005144308652472682
1783169815049625600,2.45562548828125,-0.019321078802645206,-0.001045125138759613,0.03720816557968501
1783169815059695600,2.465695556640625,-0.006793897923827171,0.03289513838589191,0.0440080502863042
1783169815069764600,2.4757646484375,0.0299590849339962,0.07001695455610751,0.021034294195007533
1783169815079834600,2.485834716796875,0.06348784504830837,0.10591185927987098,0.03697906496496871
1783169815089905000,2.49590478515625,0.0726888041138649,0.09882745397686958,0.03645461183260195
1783169815099973600,2.5059736328125,0.020969722792506217,0.07794716303348541,-0.022259182647732086
1783169815110043600,2.516043701171875,0.0561971035182476,0.03982113825678825,-0.010076668754429556
1783169815120113700,2.52611376953125,0.013518822264671325,0.004628828844428062,-0.04568928137151524
1783169815130182700,2.5361826171875,0.004948562318086624,0.02001753663420677,-0.05109029559826012
1783169815140252700,2.546252685546875,-0.013621113595366477,0.0325906024813652,-0.06495150612639262
1783169815150322700,2.55632275390625,-0.008963643178343772,0.05577274062633514,-0.07415251999087631
1783169815160391700,2.5663916015625,-0.024183424142003057,0.05108429054915905,-0.05595321175977588
1783169815170461700,2.576461669921875,0.024582652592658995,0.06360942560136318,-0.04195218176899943
1783169815180531700,2.58653173828125,-0.004018003469705582,0.0670809011042118,-0.029912254684162323
1783169815190601500,2.5966015625,0.006353752940893173,0.029297406154870986,-0.013289210193301551
1783169815200670700,2.606670654296875,0.03451046462804079,0.0023521160840988156,-0.011991480266652069
1783169815210740700,2.61674072265625,0.012024199792742728,0.014807693031430244,-0.002091264057671651
1783169815220810800,2.626810791015625,0.030080665487051007,0.032711598512530325,0.011403181817568837
1783169815230879700,2.636879638671875,0.05054682267159223,0.03242342922091484,-0.017957855024887247
1783169815240949500,2.646949462890625,0.04090893349349498,0.03817278652787209,-0.06754213454094715
1783169815251019800,2.657019775390625,0.031072014611959457,0.01236614509820938,-0.05844737122964579
1783169815261088500,2.667088623046875,0.057711599734425544,0.007317045015096664,-0.07453017136396374
1783169815271158800,2.67715869140625,0.06054419281184673,0.012599369332194327,-0.07411748977669048
1783169815281228800,2.687228759765625,0.05759352631270885,0.023400164809823036,-0.04030261533053126
1783169815291297800,2.6972978515625,0.03841945476531982,0.01788695434629917,-0.02115125793844927
1783169815301367800,2.707367919921875,0.07079699901789427,0.03987549879252911,0.025149762123241087
1783169815311437600,2.7174375,0.10195230799913406,0.018767244312167166,0.019268919357145205
1783169815321507600,2.727507568359375,0.0775292298823595,0.007124152791500091,0.005882349736592732
1783169815331576600,2.73757666015625,0.040488369993865486,0.004030278429389,-0.046470243715331885
1783169815341646600,2.747646484375,0.06847907746434212,-0.013114917638897895,-0.036232854274124836
1783169815351716900,2.757716796875,0.06346592547744512,-0.02872340565919876,-0.03916546909334138
1783169815361785600,2.76778564453125,0.048797348655760284,-0.009940963777899742,-0.0593564306322718
1783169815371855600,2.777855712890625,0.036814649917185305,0.021230419555306433,-0.04013387573407963
1783169815381926000,2.78792578125,0.06048837097138166,0.06310264512300491,-0.02558991167275235
1783169815391994600,2.79799462890625,0.1139522501334548,0.09997194783687591,-0.004095502852438948
1783169815402065000,2.80806494140625,0.0963102104589343,0.11290741725564002,0.012263082015956751
1783169815412134700,2.818134765625,0.09565291559398174,0.1238882454752922,0.009638231671391986
1783169815422204000,2.828203857421875,0.07450432910323143,0.0840080705076456,-0.00006290916837751865
1783169815432273700,2.838273681640625,0.0831061532318592,0.06830722802877426,-0.02285608452837914
1783169815442343700,2.84834375,0.022419921600818633,0.03856324715018272,-0.07044003880638629
1783169815452412700,2.85841259765625,-0.023160218574106693,0.016614450192451478,-0.07060124811693094
1783169815462482700,2.868482666015625,0.03216390150189399,0.020848726761341092,-0.062306704405765044
1783169815472552700,2.878552734375,0.0318695947304368,0.021327450188994405,-0.04529792570006102
1783169815482622700,2.888622802734375,-0.0016287702456116676,0.012103110247850418,-0.03384189031724818
1783169815492691700,2.898691650390625,-0.008775427129864692,0.01170563536286354,-0.07086916463838425
1783169815502761700,2.90876171875,0.022806290569901466,0.02650339152216911,-0.06360471746020484
1783169815512831700,2.918831787109375,0.05313654690384864,0.02319207501709461,-0.02997131879448425
1783169815522900700,2.928900634765625,0.06314122356772423,0.004339490509033203,-0.0019626144430134446
1783169815532970800,2.938970703125,0.05232581504285335,0.0041740708142519,0.01887366382870823
1783169815543040800,2.949040771484375,0.05477408497780561,0.008089198431372641,0.02874482747314032
1783169815553109800,2.95910986328125,0.05116729265749454,0.033095044872164726,0.029910345854866318
1783169815563179800,2.9691796875,0.025111644902825355,0.07998363729715346,0.010747325424454173
1783169815573249800,2.979249755859375,0.056574120137095445,0.10524491980373858,-0.01693552167324815
1783169815583318800,2.98931884765625,0.0629547610849142,0.11587737297713756,-0.029346661257231607
1783169815593388800,2.999388916015625,0.04813946926891804,0.09703355629742146,-0.07169240892108064
1783169815603458600,3.00945849609375,0.03734305770546198,0.05580722741782665,-0.06523583035995252
1783169815613528800,3.01952880859375,0.04652209720015526,0.0331873993307352,-0.03508156991372816
1783169815623597600,3.02959765625,0.03085048081576824,0.026662381476163864,-0.026022964761196633
1783169815633667600,3.03966748046875,0.013855214612185954,0.041863457739353176,-0.027290920604090205
1783169815643737900,3.04973779296875,0.019125848491489888,0.049722354546189305,-0.0018862612711731343
1783169815653806600,3.059806640625,0.014454641810059546,0.04168751665055752,-0.004885406554536894
1783169815663876900,3.069876953125,-0.007673603367805481,0.028821605336666105,0.007369012664351612
1783169815673946600,3.079946533203125,0.01954348938167095,0.032498248022794725,-0.014856404711096546
1783169815684015900,3.090015869140625,0.04405921421796083,0.02732698286473751,-0.04348621380270924
1783169815694085600,3.100085693359375,0.05063011704087257,0.03135843033790588,-0.05141546786543913
1783169815704155600,3.11015576171875,0.07425766086578368,0.008146481576561927,-0.0573927065109834
1783169815714225000,3.120224853515625,0.09582301146388053,0.01906301238834858,-0.01836913467294071
1783169815724294700,3.130294677734375,0.0794046683654189,0.04484042772352695,-0.050072273095557465
1783169815734364700,3.14036474609375,0.053609425112605094,0.047885786768794056,-0.025960562482895327
1783169815744433700,3.15043359375,0.08170622330605984,0.06062251874506473,-0.019409638435509986
1783169815754503700,3.160503662109375,0.10950374629199504,0.06314356165528297,-0.016315590543462894
1783169815764573700,3.17057373046875,0.08894991082400083,0.05233633643686771,-0.0027664416391868143
1783169815774643700,3.180643798828125,0.04565115958452225,0.07303367202877997,-0.010210122408368624
1783169815784712700,3.190712646484375,0.07133359011262655,0.06817629512548447,-0.02399022595772985
1783169815794782700,3.20078271484375,0.11466741266548633,0.04907470429241657,-0.016062296202406286
1783169815804852700,3.210852783203125,0.07746843960583209,0.015424948146939278,-0.024524684460880235
1783169815814921700,3.220921630859375,-0.0026367782443761823,0.03398585623204708,-0.07091467971396632
1783169815824991700,3.23099169921875,0.017495909202098845,0.010669278052449226,-0.05865351109388284
1783169815835061800,3.241061767578125,-0.003369476433098316,0.029560441005229948,-0.0381469031679444
1783169815845131000,3.251131103515625,0.006057108081877231,0.05695873554050922,0.0006629939533770084
1783169815855201000,3.261200927734375,-0.017284604538977146,0.0635036271393299,-0.010859448595996945
1783169815865271000,3.27127099609375,-0.013147066342830657,0.03933423152267933,-0.009625723816268146
1783169815875340000,3.281340087890625,-0.005871230120956897,0.03793371707499027,0.009774575968738645
1783169815885410000,3.29141015625,0.00047463177442550657,0.006436755049228668,0.02064960572635755
1783169815895479800,3.301479736328125,-0.011959317862987517,0.002240472403168678,0.013392191077163442
1783169815905549000,3.311549072265625,-0.030575755527615545,0.024653964263200757,0.04599025534577667
1783169815915618800,3.321618896484375,-0.01607669005393982,0.04562485609948635,0.07199694939218461
1783169815925689000,3.331689208984375,-0.030635084499418732,0.04122515983581543,0.07154301334591583
1783169815935759000,3.341759033203125,-0.014175824868679045,0.04856500120460987,0.059663893712824205
1783169815945827800,3.351827880859375,0.002852466821670532,0.051098903596401214,0.03482132980865426
1783169815955898000,3.361898193359375,0.01876315265893936,0.02713175255358219,-0.013663856758549808
1783169815965968000,3.3719677734375,0.040977322554588316,-0.007903320470452307,-0.023187499306676906
1783169815976037000,3.382037109375,0.024026772275567054,-0.03449731288552284,-0.03412281701732427
1783169815986107100,3.392107177734375,0.00611819061934948,-0.024295652344822883,0.001851856678072363
1783169815996177000,3.402177001953125,0.042946284539997576,0.042777649974822994,0.0028303782874485478
1783169816006246100,3.41224609375,0.09895546427071093,0.06321253523826599,0.027089260552148334
1783169816016316000,3.42231591796875,0.09080985947698354,0.10490180545449257,0.01078382150994148
1783169816026386000,3.432385986328125,0.0800298145264387,0.11918109069764614,0.013739511244068853
1783169816036455000,3.442454833984375,0.07414426361918448,0.06712707833349704,0.012442448037699795
1783169816046525000,3.45252490234375,0.05947510227560997,0.028690087911486625,0.01682600601732265
1783169816056595200,3.46259521484375,0.05866875432878732,0.027047581401467322,0.004349673976330086
1783169816066665000,3.4726650390625,0.04759703295528889,0.038458033210039134,0.0004547899962170049
1783169816076734000,3.48273388671875,0.03661562021374702,0.04552607190012931,-0.031225899132573974
1783169816086804000,3.492803955078125,0.07273907299637794,0.046747722649574275,-0.02104539097775705
1783169816096874000,3.5028740234375,0.04392068253010511,0.027471359771490095,-0.04493943111859262
1783169816106943000,3.51294287109375,-0.006176642808318138,0.029309096592664716,-0.05636848716293461
1783169816117013000,3.523012939453125,-0.004599602749943733,0.02128945626616478,-0.039119757654936985
1783169816127083000,3.5330830078125,-0.0028390228182077408,-0.011340309181809425,0.015840205283788964
1783169816137152000,3.543152099609375,-0.03872165258228778,0.012626257339119911,0.04357132110316306
1783169816147222000,3.553221923828125,-0.04681844979822635,0.05720891090929508,0.0362468097342411
1783169816157291800,3.563291748046875,-0.01571662456989288,0.06128010587096214,0.02618300959453918
1783169816167361000,3.573361083984375,0.0239244809448719,0.06381576182842254,0.02582019503097981
1783169816177431000,3.58343115234375,-0.00990706150829792,0.04287877226173877,0.003830134481098503
1783169816187501000,3.5935009765625,0.019530629900097844,0.029579730227589605,-0.01591420666833874
1783169816197570000,3.603570068359375,0.05775660791993141,0.05607493844330311,-0.01511765859632287
1783169816207639800,3.613639892578125,0.06417290470302105,0.06569441518187523,-0.03554516427090857
1783169816217710000,3.6237099609375,0.02041150438785553,0.06333119318187236,-0.05455355126203503
1783169816227778800,3.63377880859375,0.014877835658192633,0.02239303359389305,-0.059733547715819436
1783169816237849000,3.64384912109375,0.03379237948656082,0.022768881168961523,-0.03159573709196411
1783169816247919000,3.653919189453125,0.062006958840787406,0.009406126248836516,-0.013481755357026122
1783169816257988900,3.66398876953125,0.043725452218949794,0.015538345393538475,0.005421207631402649
1783169816268058000,3.67405810546875,0.04178834667652845,0.024544658669829366,0.031974653406953435
1783169816278127900,3.6841279296875,0.03657704176902771,0.019082886132597923,0.04697710182550363
1783169816288198000,3.694197998046875,0.02011865892112255,0.03380582349002361,0.012728388839610852
1783169816298267000,3.704266845703125,0.05060790520906448,0.06835457430183887,0.04230005905833095
1783169816308337000,3.7143369140625,0.01357961254119873,0.06188157889544964,0.004038164908322505
1783169816318407200,3.7244072265625,-0.0010106383472681046,0.05164660060703754,-0.007323433656687848
1783169816328476000,3.734475830078125,0.05875438678562641,0.052698740008473396,-0.02777726564919576
1783169816338546000,3.7445458984375,0.05272212088406086,0.029756255838274955,-0.04244404323943891
1783169816348616000,3.754615966796875,-0.01419569861292839,0.020088263782858846,-0.013671674738824366
1783169816358685000,3.764684814453125,0.017361761428415775,0.040137364599108695,-0.03629940300458111
1783169816368755200,3.774755126953125,0.05821107368916273,0.0401326884239912,-0.027049439998413433
1783169816378825000,3.784824951171875,0.023822774136066434,0.043885318955779073,-0.03930042058462277
1783169816388894200,3.794894287109375,0.03912175781577825,0.025512042397260664,-0.06578058649483136
1783169816398964000,3.8049638671875,-0.010345452925562859,0.03370528572499752,-0.05609777132961899
1783169816409034000,3.815033935546875,0.047179099804162974,0.02756137614250183,-0.028577462416444904
1783169816419103000,3.82510302734375,0.05064999078512192,0.02037877116203308,-0.001930173478135839
1783169816429173000,3.835173095703125,0.06181465113908052,0.022135259440541268,0.026494212701870128
1783169816439243000,3.845242919921875,0.028304011203348634,0.04897007487416267,0.02202900888735894
1783169816449313000,3.85531298828125,0.05834785181134939,0.10464403130114078,-0.013877746104402467
1783169816459382000,3.865382080078125,0.03551993393152952,0.08476970252990722,-0.010127983383135869
1783169816469452000,3.8754521484375,0.04886836806535721,0.07978022367954253,-0.02799212310942821
1783169816479522000,3.88552197265625,0.032331659284234045,0.046697453767061234,-0.016964268277119846
1783169816489590800,3.8955908203125,-0.0014794249027967451,0.049068859073519704,-0.030652515124832278
1783169816499661000,3.9056611328125,-0.014578560450673102,0.05883797341585159,0.0013890066729858516
1783169816509731000,3.91573095703125,-0.005116320100426674,0.06805646813809871,-0.0022381799813825636
1783169816519800000,3.925800048828125,0.023718729239702224,0.0786316381663084,-0.039560025935457085
1783169816529870000,3.9358701171875,0.023995208093523977,0.07713584665060043,-0.03455672862229403
1783169816539939800,3.94593994140625,0.0224561619579792,0.06631225481927394,-0.04068450905389618
1783169816550009000,3.956009033203125,0.021361352458596227,0.05559504597187042,-0.03246609018570743
1783169816560079000,3.9660791015625,0.05634703338295221,0.04520107772946357,-0.009884671579976566
1783169816570148900,3.97614892578125,0.053875090311467644,0.02712123115956783,0.00966746689903084
1783169816580218000,3.986218017578125,0.041886254093050954,0.03803542388379574,-0.023246768912975675
1783169816590288000,3.996287841796875,0.03679536069482565,0.04887129067480564,-0.054855169123690574
1783169816600358000,4.00635791015625,0.02690525032132864,0.05570785869657993,-0.05731533042583614
1783169816610428200,4.01642822265625,0.0334796602755785,0.013257540979981422,-0.02647952202281449
1783169816620497000,4.026496826171875,0.05111293212175369,0.001191255611181259,-0.028576553667569532
1783169816630567200,4.036567138671875,0.0264952082157135,-0.02112345204949379,-0.005353882582811638
1783169816640637000,4.046636962890625,-0.016017068821191787,0.024493220743536947,0.006657946352125145
1783169816650706200,4.0567060546875,-0.026651860082149505,0.07771861497461795,0.020711396083305588
1783169816660776000,4.06677587890625,0.04171177430897951,0.09474982927441597,0.035746609693719074
1783169816670846000,4.076845947265625,0.05939648408144712,0.05588964500427246,0.03325865620234981
1783169816680915000,4.0869150390625,0.029392683222889897,0.06661795976758003,0.01201531779996585
1783169816690985000,4.09698486328125,-0.0016457213804125786,0.06552022765874863,-0.032964664524723776
1783169816701055000,4.107054931640625,0.0168225399851799,0.05943477026522159,-0.06439166658681351
1783169816711124000,4.1171240234375,0.021809388487040997,0.036709143716096876,-0.05239057824159972
1783169816721194000,4.127194091796875,0.0330240254625678,0.027321137645840644,-0.07446395142707042
1783169816731264000,4.137263916015625,0.014743980145454406,0.015246668970584869,-0.07338454499279615
1783169816741333000,4.1473330078125,0.004091068705916404,0.009683189624547959,-0.06094649456900079
1783169816751403000,4.157403076171875,0.026986791124939916,0.0005944587618112564,-0.04242735239954199
1783169816761473000,4.16747314453125,0.05083937587738037,0.02713350611925125,-0.035405047980742524
1783169816771542000,4.1775419921875,0.03431611109972,0.048424131429195404,-0.018584462490631268
1783169816781612000,4.187612060546875,0.04532791897952557,0.0474351203918457,0.035010495705204085
1783169816791682000,4.19768212890625,0.0582668955296278,0.030216274565458296,0.03576485773646273
1783169816801752000,4.207751953125,0.06672405049055814,0.05640694687664508,0.025122691453224977
1783169816811821000,4.217821044921875,0.07873246819227933,0.0397796372026205,0.021000633954000657
1783169816821891000,4.22789111328125,0.054201545786857604,0.03016074498593807,-0.014478693972504697
1783169816831960800,4.2379609375,0.002679448342323303,0.03187748577594757,-0.033883500969270244
1783169816842030000,4.248030029296875,-0.005312719455361366,0.03408464043140411,-0.026413804409420115
1783169816852101400,4.258101318359375,0.048904023900628084,0.0225040927529335,-0.01896849337215535
1783169816862171400,4.26817138671875,-0.008131868529319762,0.006143325060606003,-0.05029080208390951
1783169816872240400,4.278240478515625,0.013194997137784957,0.03729249656200409,-0.052583502431237134
1783169816882310400,4.288310302734375,0.04466799376606941,0.027585926061868667,-0.04917226008248981
1783169816892380200,4.298380126953125,0.027735563665628432,0.04956804076731205,-0.025406431164895184
1783169816902449400,4.308449462890625,-0.005699672946333885,0.06059855334758758,-0.0101043924449943
1783169816912519200,4.318519287109375,0.045564065822958945,0.08103402313292025,-0.001236756987031549
1783169816922589200,4.328589111328125,0.054197454133629794,0.0906704510062933,-0.004506385208270512
1783169816932658400,4.338658447265625,0.056932139794528484,0.07683540239930152,-0.02749648507959209
1783169816942728200,4.348728271484375,0.03423018638193607,0.043864276167750356,-0.007259624872589483
1783169816952798500,4.358798583984375,0.03574877425134182,0.04447393249869346,-0.021835970533289947
1783169816962867200,4.3688671875,0.026104747593402863,0.03915302973687648,-0.04199434497687034
1783169816972937500,4.3789375,0.022295418438315392,0.051771103769540784,-0.025293001952255142
1783169816983007500,4.389007568359375,-0.001689268261194229,0.04451835616230965,-0.011196425465401262
1783169816993076200,4.399076171875,-0.0001458382114768028,0.04114566485881805,-0.015311359104095026
1783169817003146500,4.409146484375,0.012566928367316722,0.043371524214744564,-0.005554117862647399
1783169817013216300,4.41921630859375,0.007967033356428146,0.0347866512209177,-0.019686121855909004
1783169817023285500,4.429285400390625,0.047590018692612646,0.030644144588708875,0.015098109079059212
1783169817033355300,4.439355224609375,0.059929275783896445,0.021408698731660843,0.027148822419391944
1783169817043425300,4.44942529296875,0.014120879811048507,0.04263502663373947,-0.00407895814301446
1783169817053495300,4.459495361328125,0.00949964975118637,0.06560556785464286,-0.023799082733225077
1783169817063564300,4.469564208984375,0.04157353488206863,0.03475333347320556,-0.023134390013106167
1783169817073634300,4.47963427734375,0.08341244270205497,0.019729367342591283,-0.010315633176034315
1783169817083704300,4.489704345703125,0.059039048945903776,0.020458266139030457,-0.013864073772076517
1783169817093773300,4.499773193359375,0.03437397876679897,0.049293315479159355,-0.0213127184107434
1783169817103843300,4.50984326171875,0.04234101212322712,0.060763973042368885,-0.027377480076113715
1783169817113913300,4.519913330078125,0.06043079556524753,0.06860416514873505,-0.01226191753875464
1783169817123982300,4.529982421875,0.06144611008763313,0.032302433189749714,-0.009630966246966272
1783169817134052400,4.54005224609375,0.08322539569735526,0.05478314506709575,0.0028110114332754164
1783169817144122400,4.550122314453125,0.014086685280501842,0.0326473011046648,-0.012887182430783286
1783169817154191400,4.56019140625,0.027551731531322,0.0493786556750536,-0.00442757065128535
1783169817164261400,4.570261474609375,0.021483517533540726,0.039627076989412306,-0.0011675094094127415
1783169817174331400,4.580331298828125,0.004243921180069447,0.052613399812579155,-0.00832179247769527
1783169817184400400,4.590400390625,0.007184066285192966,0.07433598679900169,0.01860340465311892
1783169817194470400,4.600470458984375,0.023917758943140504,0.06674304745197296,0.006785020497627556
1783169817204540200,4.6105400390625,0.05338379966318607,0.09053542644977569,-0.008506126935500652
1783169817214609400,4.620609375,0.08359305996596812,0.07166296819746494,0.0003095591395162046
1783169817224679200,4.63067919921875,0.03887947349250316,0.04060965828597545,0.01133140435614623
1783169817234749400,4.64074951171875,0.018309271411597727,0.017020108383893964,-0.02333266166471876
1783169817244819500,4.6508193359375,0.051906712847948074,0.0133107324719429,-0.03972062789122574
1783169817254888200,4.66088818359375,0.06906827552914618,-0.009608955344557761,-0.05887276160144247
1783169817264958500,4.67095849609375,0.00999590883553028,-0.009138415223360062,-0.06488231334770098
1783169817275028200,4.6810283203125,0.0026499299868941307,-0.0032061025649309156,-0.04369725817092694
1783169817285097500,4.691097412109375,0.04588438381850719,0.00033259295523166654,-0.014191451696073635
1783169817295167500,4.70116748046875,0.06632657560557127,0.014262918630242347,0.01987161622433923
1783169817305237200,4.7112373046875,0.05241144749969244,0.03356500047147274,0.04149247813564725
1783169817315306500,4.721306396484375,0.047533027808368204,0.07101239533424376,0.06951312408666126
1783169817325376300,4.731376220703125,0.05961012683212757,0.08709142347574234,0.06658624945506453
1783169817335446300,4.7414462890625,0.07355681912004947,0.0910053820490837,0.06719959558043628
1783169817345515300,4.751515380859375,0.07592062564194202,0.08499182084798812,0.042253215108765285
1783169817355585300,4.761585205078125,0.0433832146525383,0.07231178749501704,0.00433501526331529
1783169817365655300,4.7716552734375,-0.004489128112792969,0.0667500617146492,-0.04810637071691453
1783169817375724300,4.781724365234375,0.009985095180571078,0.033814006796479223,-0.03998044787119143
1783169817385794300,4.791794189453125,0.032307109364867206,0.02567395496070385,-0.050406601350149134
1783169817395864300,4.8018642578125,0.0004804769933223724,0.03258943343758583,-0.06317072365684434
1783169817405933300,4.811933349609375,0.01495645385235548,0.013108487898111343,-0.029478059951402246
1783169817416003300,4.82200341796875,0.011243278548121452,-0.0072808046579360955,-0.01676799678634852
1783169817426073300,4.8320732421875,0.02381692891716957,0.005063713130354881,0.013824371949350461
1783169817436142300,4.842142333984375,0.0489817653119564,0.0347515799075365,0.028716181333968416
1783169817446212400,4.85221240234375,0.08756079455316067,0.05369534983038902,0.043116773135541006
1783169817456282400,4.862282470703125,0.056308747199177736,0.05877835218310356,0.01410321629019454
1783169817466351400,4.872351318359375,0.04521569077670574,0.04241933805644512,0.028671903800824655
1783169817476421400,4.88242138671875,0.08804156380742788,0.041834816166758534,0.011225925554521381
1783169817486491400,4.892491455078125,0.07230915714651345,0.02455927171707153,-0.003816270352527499
1783169817496560400,4.902560302734375,0.02323912902921438,0.021389994031190872,-0.03778215237562545
1783169817506630400,4.91263037109375,0.017826164069771767,0.017030629777908323,-0.027510769333271307
1783169817516700200,4.9227001953125,0.028182430650293827,0.0182820911437273,-0.007975600255373866
1783169817526770400,4.9327705078125,0.02146276700645685,-0.01537117213308811,0.007741252643382176
1783169817536839200,4.942839111328125,0.0436316364556551,0.0006628478229045867,0.028938482315139843
1783169817546909400,4.952909423828125,0.025319442434608933,0.03703530693054199,0.03573238937212154
1783169817556979500,4.9629794921875,0.030033903735876083,0.05121814606189728,0.0008439765434712171
1783169817567048200,4.973048095703125,0.07706774985045194,0.016886837393045424,0.025679380054492502
1783169817577118500,4.983118408203125,0.040920623931288716,0.0028986440509557723,0.004668521533999592
1783169817587188200,4.993188232421875,0.05300444495677948,0.019248890349268914,-0.002809705392178148
1783169817597257500,5.003257568359375,0.04930208330750465,-0.0031336218506097793,0.03131557757686823
1783169817607327200,5.0133271484375,0.033839141237735744,0.01863105071187019,0.01910056791976094
1783169817617397200,5.023397216796875,0.05681260506808757,0.0332704014390707,0.0038156127654016014
1783169817627466500,5.033466552734375,0.059093409481644626,0.030876784300804136,-0.012245879719406366
1783169817637536300,5.043536376953125,0.003774550102651119,0.02707154679894447,-0.016231844083033502
1783169817647606300,5.053606201171875,0.05208528428524732,0.034650457620620724,0.007549867390282451
1783169817657675300,5.06367529296875,0.02976473140567541,0.04470891029834747,0.005029226338863373
1783169817667745300,5.073745361328125,0.00041910219490528107,0.053314241558313366,-0.003938563291635364
1783169817677815600,5.083815673828125,0.0293447524279356,0.04444236831665039,0.003304302242398262
1783169817687884300,5.09388427734375,-0.0018500117808580398,0.04953881467282772,0.003777637108881026
1783169817697954300,5.103954345703125,0.00539747512936592,0.038951369684934616,0.005673533858079463
1783169817708024300,5.1140244140625,-0.018030162209272383,0.042348610907793044,-0.025975951848272234
1783169817718093300,5.12409326171875,-0.026249124500155447,0.0631073212981224,-0.031903095141239464
1783169817728163300,5.134163330078125,0.0032061025649309156,0.05044248551428318,-0.029702644221205263
1783169817738233300,5.1442333984375,0.05227729972600936,0.027120646637678145,-0.0021288287222385404
1783169817748302300,5.15430224609375,0.057387774607539174,0.03520867602527141,0.0022651684530079364
1783169817758372400,5.164372314453125,0.029126725763082503,0.036759997120499606,0.0042834312065504485
1783169817768442400,5.1744423828125,0.018097966748476028,0.05761866075396537,0.02599328657556325
1783169817778512100,5.18451220703125,-0.006982113972306251,0.06815057616233826,0.025188399933464823
1783169817788581400,5.194581298828125,0.021964871309697626,0.05686112038493156,-0.002607205090019852
1783169817798651100,5.204651123046875,0.04038870901167393,0.03321136472821235,0.010213405777420848
1783169817808721400,5.214721435546875,0.03518120349645614,0.043247021052241326,0.017306414511986074
1783169817818790400,5.224790283203125,0.022900983116030692,0.04748889640569687,-0.004463610079046339
1783169817828860200,5.234860107421875,-0.0012988076388835907,0.05877776766121387,-0.005843337467033416
1783169817838930400,5.244930419921875,-0.011757657811045647,0.07441314368844032,-0.03428668407583609
1783169817848998700,5.25499853515625,0.06164893918335437,0.021120529440045357,-0.0025993505771271883
1783169817859068400,5.265068359375,0.08110065862834454,-0.005021627554297447,0.024004907503630966
1783169817869138400,5.275138427734375,0.032251872046291825,0.023929741641879082,0.025207634356897324
1783169817879207400,5.28520751953125,0.03626812195032835,0.014523615393042564,0.028053525307308882
1783169817889277400,5.29527734375,-0.0012210662275552748,0.039642274558544154,0.018234470876026896
1783169817899347500,5.305347412109375,0.029838088902831076,0.04787292728722095,0.054489276687055825
1783169817909416400,5.31541650390625,0.047075054907798765,-0.018852584508061408,0.024133100460562853
1783169817919486500,5.325486572265625,0.07955167562067508,-0.027752514800429343,0.012782653477229178
1783169817929555500,5.335555419921875,0.02754384048581123,-0.01975099465250969,-0.021030330405943095
1783169817939625500,5.34562548828125,-0.03220861742645502,-0.017557284000515937,-0.029795272674411535
1783169817949694500,5.355694580078125,-0.025715456014871595,0.0113718733638525,-0.021457670706231145
1783169817959764500,5.365764404296875,-0.000822130037844181,0.0460801986515522,0.016925543701928107
1783169817969834500,5.37583447265625,-0.025967969471216202,0.06470481962263584,0.027030264940485358
1783169817979903500,5.385903564453125,-0.02090776347219944,0.13571253878176212,0.005501026835385709
1783169817989973500,5.395973388671875,0.024036709147691727,0.13226619772017,0.035786000989191234
1783169818000043500,5.40604345703125,0.07861556381434202,0.11338497163951396,0.03415975149422884
1783169818010112500,5.416112548828125,0.04730857140272855,0.11568623431921005,0.008692461554147303
1783169818020182300,5.426182373046875,0.031900282129645345,0.10404781897366046,-0.032527072258479894
1783169818030252500,5.43625244140625,0.022078560817241667,0.10081249031424522,-0.0539946067715995
1783169818040321300,5.4463212890625,0.01366319917142391,0.08842413338422775,-0.055493028635811056
1783169818050391600,5.4563916015625,-0.010412672942876814,0.08016893073618411,-0.04829834962505847
1783169818060461600,5.466461669921875,-0.024407880547642705,0.06018003567457199,-0.08179602048136293
1783169818070530300,5.4765302734375,-0.024831074395775792,0.023688334101438523,-0.08815801152763887
1783169818080600600,5.4866005859375,-0.013854337829351424,0.038709962144494056,-0.027433201451878993
1783169818090670300,5.49667041015625,-0.05803191772997379,0.0571253242790699,-0.033373313824273644
1783169818100739600,5.506739501953125,-0.07972995479702949,0.06662205142080783,-0.01978544491138309
1783169818110809600,5.5168095703125,-0.019305881233513355,0.041756490233540534,0.03408723424728959
1783169818120879400,5.52687939453125,0.003265431536734104,0.041217561051249504,0.03069034008430317
1783169818130949400,5.536949462890625,-0.0015548282265663146,0.0323380890250206,0.028840364836063233
1783169818141018400,5.547018310546875,0.022509645710885522,0.02854161935150623,0.020671854090783745
1783169818151088400,5.55708837890625,0.002303308506309986,0.04668400976359844,-0.027313191801402716
1783169818161158700,5.56715869140625,0.02512655021101236,0.06056172846853733,-0.014432649173960088
1783169818171227400,5.577227294921875,0.0061585226297378535,0.07640636333227158,-0.030318529363535345
1783169818181297700,5.587297607421875,0.008018471282720565,0.07544365577995776,-0.04049412388121709
1783169818191367400,5.597367431640625,-0.006809972275793552,0.08972352554500103,-0.027444946688599883
1783169818201436400,5.6074365234375,0.015147007988393305,0.09404314230978489,-0.03030353272380307
1783169818211506400,5.61750634765625,0.09056436028331517,0.07391103938519954,-0.026839546407666056
1783169818221576400,5.627576416015625,0.058548927341401574,0.06923252618014812,-0.0356862121428363
1783169818231645400,5.6376455078125,0.019649872365593908,0.06545008503198624,-0.025417276785895226
1783169818241715500,5.647715576171875,0.04505903891026974,0.061686933106184005,-0.025703893441241233
1783169818251785500,5.657785400390625,0.020894319468736648,0.04168284047544002,-0.00806737019205466
1783169818261854500,5.6678544921875,-0.006483224539458751,0.03572305528819561,-0.02006559529332444
1783169818271924500,5.677924560546875,-0.0219005739018321,0.06747662242352961,-0.02931852200813591
1783169818281994200,5.687994140625,-0.0326452552780509,0.06439151588976383,-0.010511694604251533
1783169818292065300,5.698065185546875,0.007020984677970409,0.06196048935055733,-0.03394459263989702
1783169818302134500,5.708134521484375,-0.01685264286249876,0.03024082448482513,-0.01375871370146051
1783169818312204300,5.718204345703125,-0.0690264822140336,0.001395253750681877,-0.011857958114054053
1783169818322274600,5.728274658203125,-0.04428133253604173,0.03361643839776516,-0.019543288452271372
1783169818332344600,5.738344482421875,-0.052175008395314214,0.06613865181803703,-0.009725439597386866
1783169818342413300,5.748413330078125,-0.04234218116700649,0.0739262369543314,-0.023221081915870308
1783169818352483600,5.758483642578125,-0.028852584996819496,0.11211188296377658,-0.03981814258210361
1783169818362553300,5.76855322265625,-0.045725978386402126,0.10747019463777542,-0.046241070035379375
1783169818372622600,5.77862255859375,0.004130231672525406,0.09661796123385429,-0.025318382988683878
1783169818382692400,5.7886923828125,0.09865385097563266,0.0017325228810310363,0.06251313653094694
1783169818392762400,5.798762451171875,0.08981412643790244,0.048131285962462425,0.02481215049959719
1783169818402831600,5.80883154296875,0.0692202512204647,0.06435527553260326,-0.015296024537645279
1783169818412901400,5.8189013671875,0.11164046605974436,0.07946049020588397,-0.01930538804316893
1783169818422971400,5.828971435546875,0.13486556656360627,0.053992286950349806,0.002456508040335029
1783169818433040400,5.839040283203125,0.06643968059122562,0.01656768844127655,-0.001347578684054315
1783169818443110400,5.8491103515625,0.018104981011152266,0.03974748849868774,-0.05122242037821561
1783169818453180700,5.8591806640625,0.025083295591175555,0.0485679238140583,-0.041407128806598484
1783169818463249400,5.86924951171875,0.02629734755605459,-0.011575871503353118,-0.028716701923776417
1783169818473319400,5.8793193359375,-0.026084873849153516,-0.016774024668335913,-0.008346826454252004
1783169818483389400,5.889389404296875,-0.04925415251255035,0.01255611471235752,-0.0038593423092737793
1783169818493458400,5.89945849609375,-0.024369594363868236,0.01614624815881252,0.0007125139172188937
1783169818503528400,5.909528564453125,-0.021911679817736146,0.051989714956283566,0.01887455887785181
1783169818513598500,5.919598388671875,0.05030015443414449,0.07395429400503635,0.02032879454046488
1783169818523667500,5.92966748046875,0.05278817185759544,0.04355331052243709,0.028338315331749617
1783169818533737500,5.939737548828125,-0.0008607084825634956,0.047889878422021866,0.005845785152446478
1783169818543807500,5.949807373046875,0.014917875407636165,0.03192307848334312,-0.04411925557581708
1783169818553876500,5.95987646484375,0.03168137868195772,0.024197452667355537,-0.03380965941492468
1783169818563946500,5.969946533203125,0.03945610433667898,0.0073918638169765466,-0.001707278841920197
1783169818574016500,5.9800166015625,0.05223492188900709,0.020199322941899297,-0.006548398730158805
1783169818584086500,5.99008642578125,0.0124850953027606,0.049019174712896345,-0.03886789265256375
1783169818594155500,6.000155517578125,0.03633943362087011,0.05263035094738006,-0.05913006996391341
1783169818604225300,6.010225341796875,0.10253829119354486,0.057173255074024196,-0.03330666006254032
1783169818614295600,6.020295654296875,0.08937252015024423,0.043783612146973606,-0.032784060960542406
1783169818624364300,6.0303642578125,0.03791092072129249,0.04162847993969917,0.008053889655973761
1783169818634434600,6.0404345703125,0.031442016968131065,0.03340308790802955,0.014730974533408879
1783169818644504600,6.050504638671875,0.07103519168794155,0.03384031028151512,0.047203467060439284
1783169818654573600,6.060573486328125,0.08148352046608924,0.05943827739655971,0.09140855602249502
1783169818664643600,6.0706435546875,0.07860884181261062,0.05345628037750721,0.06634420259380713
1783169818674713300,6.08071337890625,0.03852349966168404,0.030252514922618864,0.07403272953610866
1783169818684782600,6.090782470703125,0.01886339816302061,0.05839490582346916,0.027082031660340726
1783169818694852400,6.100852294921875,0.05676262844651937,0.062009589189290996,0.0045607685768976804
1783169818704922400,6.11092236328125,0.05456044222712517,0.01930909610390663,-0.018361074664071202
1783169818714991600,6.12099169921875,-0.013420330326259135,0.013926234021782875,-0.06600616627847776
1783169818725061400,6.131061279296875,-0.02169511445760727,-0.000024549919366836548,-0.06560673689842224
1783169818735131400,6.14113134765625,-0.02253682597875595,-0.02692132467329502,-0.05203989250725135
1783169818745200400,6.151200439453125,-0.028017595477402207,-0.004528875601291656,-0.08107492139888926
1783169818755270400,6.1612705078125,-0.04629530270695686,0.01664601437449455,-0.07895654100542887
1783169818765340700,6.171340576171875,0.019765899960696696,0.02396715104281902,-0.07048486432880163
1783169818775409400,6.181409423828125,0.051202363970875735,0.008052958074212075,-0.023842209488898515
1783169818785479400,6.1914794921875,0.07100275072306395,0.025193477967381476,-0.0051405960251577195
1783169818795549400,6.201549560546875,0.054905602402985094,0.06960720471143722,-0.01945133585250005
1783169818805618400,6.211618408203125,0.08310966036319732,0.09355155940055847,-0.021584475423675028
1783169818815688400,6.2216884765625,0.12684154232293365,0.07531213835477829,-0.0013478526786901055
1783169818825758500,6.231758544921875,0.08599836754202843,0.05239829575717449,0.012595149814803152
1783169818835828500,6.241828369140625,0.043590135401487345,0.043724575436115264,-0.015740535168442874
1783169818845896700,6.251896728515625,0.06682078886330127,0.04279343206584453,-0.00792142238272354
1783169818855966700,6.261966796875,0.07074439204782247,0.038216625669598575,0.014178363885637372
1783169818866037000,6.272037109375,0.054172611953318114,0.04506313056349754,-0.010451616713777184
1783169818876105700,6.282105712890625,0.06176672034412622,0.04435936620831489,0.018728538003284483
1783169818886175700,6.29217578125,0.07434387784451246,0.05680442176163196,0.0061393064726144074
1783169818896245800,6.302245849609375,0.0727279670804739,0.03725917881429195,-0.007408449625596404
1783169818906314800,6.312314697265625,0.0637614012926817,0.030296354064345356,0.021560820553451775
1783169818916385000,6.322385009765625,0.021802081963419914,0.06467150187492371,-0.02874068558756262
1783169818926454800,6.332454833984375,-0.00817863028049469,0.07776362316012382,-0.055871104700583964
1783169818936524000,6.34252392578125,0.050213937455415726,0.0415139136493206,-0.03804694992480799
1783169818946593800,6.35259375,0.03549333818554878,0.03877367503046989,-0.05124202012782916
1783169818956663800,6.362663818359375,0.014060089534521102,0.02022270381748676,-0.0528655479427427
1783169818966732800,6.37273291015625,0.03861410055458545,0.007872340810298918,-0.03429291288722306
1783169818976802800,6.382802734375,0.05634323399066925,-0.019369886380434034,-0.006338445773907005
1783169818986872800,6.392872802734375,0.03179506818950176,-0.01940495769381523,0.03152847140887752
1783169818996941800,6.40294189453125,0.012686463093757629,0.033809915143251414,0.03157872202508152
1783169819007011800,6.41301171875,0.0545937599748373,0.06253975054323672,0.038956246789451685
1783169819017081900,6.423081787109375,0.06809475432187319,0.06261983004212379,0.056494022371899336
1783169819027150800,6.43315087890625,0.058958969447016715,0.03512625843882561,0.046861466956045476
1783169819037220600,6.443220703125,0.09102700935900211,0.009705985978245735,0.03215772748943418
1783169819047291000,6.453290771484375,0.07709405333548784,0.026858780831098553,0.018501780042704193
1783169819057360000,6.46335986328125,0.05694207666665315,0.03930266734063625,-0.014545187904033809
1783169819067430000,6.473429931640625,0.06726940941363573,0.02886661352217197,-0.01994596923533827
1783169819077500000,6.4835,0.08000351104140281,0.0011187748968601225,-0.01592312519373372
1783169819087568600,6.493568603515625,0.021292671136558056,0.01819675094783306,-0.020121051807608453
1783169819097639000,6.503638916015625,-0.009873451499640942,0.024956162080168723,-0.02160412997221574
1783169819107709000,6.513708984375,-0.0172559629663825,0.034326632493734355,-0.03757301227012649
1783169819117778000,6.52377783203125,0.0021636077746748925,0.060601475957036015,-0.021495025308243928
1783169819127848000,6.533847900390625,-0.0051475920215249054,0.044560441738367075,-0.012220599147677421
1783169819137917700,6.543917724609375,-0.015113982501626013,0.04106850796937942,-0.029115729445032774
1783169819147987000,6.553987060546875,0.016435586494207382,0.04590601112842559,0.016128566371649503
1783169819158056700,6.564056640625,0.06400163978934288,0.022003742015361785,0.03712165177343413
1783169819168126700,6.574126708984375,0.05149725526422262,0.060576926037669176,0.017109558499325064
1783169819178195700,6.58419580078125,0.01971212394684553,0.0830973854035139,-0.02258369732778519
1783169819188265700,6.594265625,0.03121551473587751,0.08701075945496559,-0.054763198257610196
1783169819198336000,6.6043359375,0.044190731643140316,0.055581017446517944,-0.0651399961695075
1783169819208404700,6.61440478515625,0.03570990354567766,0.01538870778977871,-0.02554152422007173
1783169819218474800,6.624474853515625,0.024575346069037912,0.014028525352478026,-0.021912246073316783
1783169819228544800,6.634544677734375,0.05896101527363062,0.03294716083407402,-0.011202215885370969
1783169819238614800,6.64461474609375,0.040616964809596534,0.03940145153999328,0.032958157152123746
1783169819248684000,6.65468408203125,0.03769932379722595,0.0711374830186367,0.031662454785779115
1783169819258753800,6.66475390625,0.043885318955779073,0.07025602400898932,0.009954480846598744
1783169819268823800,6.67482373046875,0.04630611636191606,0.054419572451710696,0.01050148373749107
1783169819278892800,6.684892822265625,0.03990764749646187,0.04103811283111572,0.013547463837265968
1783169819288962800,6.694962890625,0.021012100629508493,0.014877835658192633,-0.008471037355810403
1783169819299032800,6.70503271484375,0.026567396669089794,0.000879120922088623,-0.023862813885509968
1783169819309101800,6.715101806640625,0.023416823683679103,-0.003835632640123367,-0.001852295069489628
1783169819319171800,6.725171875,0.0004901216045022011,0.014852116695046423,0.007142656562570482
1783169819329241900,6.735241943359375,0.016232757398486137,0.011266074901819228,0.013609167429246007
1783169819339310800,6.745310791015625,0.01274520754367113,0.023159926313161848,0.050658502885140476
1783169819349380600,6.755380615234375,0.006914893954992294,0.06640811640918254,0.07979523858558386
1783169819359451000,6.765450927734375,-0.008531681501865387,0.09840133751928806,0.06121816481696441
1783169819369519600,6.77551953125,-0.02731558468788862,0.11364742196798323,0.029938517070002852
1783169819379590000,6.78558984375,-0.016219021134078502,0.09478256250023841,-0.010198938860651105
1783169819389660000,6.795659912109375,-0.020058745427429674,0.06502689118385314,-0.044261093465611336
1783169819399729000,6.80572900390625,-0.021229542772471903,0.04839315176904201,-0.047762763177324086
1783169819409799000,6.815798828125,-0.02867810521274805,0.04264320994019508,-0.07563853903124108
1783169819419869000,6.825868896484375,-0.014224340185523033,0.06202595580220222,-0.09101080714287235
1783169819429938000,6.83593798828125,0.007906535340845584,0.06255261002480983,-0.06889354001674801
1783169819440008000,6.846008056640625,0.007784662526845932,0.03483516653776168,-0.017762889575213194
1783169819450077700,6.85607763671875,-0.010838497139513492,0.04385083216428756,0.004818652328103781
1783169819460147000,6.86614697265625,0.01622954252809286,0.05857260047793388,0.028586682335939258
1783169819470216700,6.876216796875,0.0296910816475749,0.08411620705723762,0.034239922324661165
1783169819480286700,6.88628662109375,0.011511866356432436,0.08852876280248165,0.0409066502048634
1783169819490355700,6.896355712890625,0.04253302756398916,0.05667991859912872,0.05964907060302794
1783169819500425700,6.90642578125,0.042857729473710054,0.045379356905817986,0.024167806447762993
1783169819510496000,6.91649609375,0.04635404715687036,0.027288404420018196,0.013387158709019421
1783169819520564700,6.926564697265625,0.04727613043785095,0.014807693031430244,-0.004206000322476029
1783169819530635000,6.936635009765625,0.038003859701752664,0.039596681851148605,-0.06072247198820114
1783169819540704800,6.946704833984375,0.0708148269355297,0.06542787320017815,-0.022974870336148888
1783169819550773800,6.956773681640625,0.07270254037827253,0.04360825558006763,-0.021236684899311513
1783169819560844000,6.966843994140625,0.012801906166970729,0.04437164116799831,0.014094558059703558
1783169819570913800,6.976913818359375,0.013804945729672908,0.06936696621477603,0.0390488204437308
1783169819580983000,6.986983154296875,0.03612316052168608,0.08076105141043663,0.02379784062420949
1783169819591052800,6.997052734375,0.030575463266670704,0.0817424636632204,0.00439887427976355
1783169819601121800,7.007121826171875,0.01552022521495819,0.07920446961820125,0.004593154742848128
1783169819611191800,7.01719189453125,0.0314861483708024,0.06841127292513847,-0.004507156959827989
1783169819621261800,7.02726171875,0.04145458467751741,0.0459451740950346,0.010652929705847055
1783169819631331800,7.037331787109375,0.024603110858798027,0.04360474844872951,-0.005441113341692835
1783169819641400800,7.04740087890625,-0.014770868152379988,0.06877776814997195,-0.03690349724441767
1783169819651470800,7.057470947265625,-0.01952010850608349,0.04685059850215911,-0.03863379163574427
1783169819661540900,7.067540771484375,-0.007106324873864651,0.04792553425729274,-0.020245153111312537
1783169819671609900,7.07760986328125,-0.019760347002744674,0.0474175847351551,-0.03417233698116615
1783169819681679600,7.0876796875,-0.013490765213966369,0.019155951368808745,0.0012651428312994539
1783169819691748900,7.097748779296875,-0.022194588412344455,0.03345803296566009,0.01678074667006731
1783169819701819000,7.10781884765625,-0.02785159126073122,0.032280221357941626,0.018985015248693525
1783169819711889000,7.117888916015625,0.005885258646309376,0.03806991067528724,-0.0005288827123120427
1783169819721958000,7.1279580078125,0.008680734583735465,0.041897360008955,0.0414608865541406
1783169819732027600,7.138027587890625,-0.00928220760822296,0.07354103702902794,0.012575659663043916
1783169819742098000,7.148097900390625,-0.011713818669319151,0.07352408589422703,0.004018971584085375
1783169819752166700,7.158166748046875,0.019728490559756756,0.07244447396397591,-0.011395893560256809
1783169819762237000,7.16823681640625,0.021781039175391197,0.05832242510914802,-0.05013162946682423
1783169819772307000,7.178306884765625,0.012159224349260329,0.016118775629997254,-0.04761489740554243
1783169819782376000,7.1883759765625,0.057120940364897246,0.034626492223143575,-0.01315437286645174
1783169819792446000,7.198446044921875,0.06696195089966059,0.022893384331464765,-0.007499452377296984
1783169819802515700,7.208515625,0.03918459391891956,0.059768532264232635,-0.012631645900290459
1783169819812585000,7.2185849609375,0.025946342161297795,0.036920156118273734,-0.02357391394153237
1783169819822654700,7.22865478515625,0.023124854999780654,0.04152969574034214,0.01924355658702552
1783169819832724700,7.238724853515625,-0.005343114593625069,0.04933072488009929,0.0386913305092603
1783169819842794000,7.2487939453125,0.006765256351232528,0.023209610673785207,0.047501335762161756
1783169819852864500,7.258864501953125,0.03423661612272262,0.03885258548557758,0.041648280618712306
1783169819862934300,7.268934326171875,0.0627110154569149,0.030115736800432204,0.010529942646995185
1783169819873003500,7.27900341796875,0.029256489622592925,0.042159810337424275,0.01027465271167457
1783169819883073500,7.289073486328125,0.027116262723505494,0.03242810539603233,0.034594507915992286
1783169819893143300,7.299143310546875,0.054223173096776,0.07131108601987361,0.02628465247126296
1783169819903212500,7.309212646484375,0.0236065010368824,0.0806008924126625,0.008215418626926839
1783169819913282300,7.3192822265625,0.014806816248595714,0.06760054106414318,0.011400441871210932
1783169819923352600,7.3293525390625,0.03533522501438856,0.06573240910470485,0.002506667324993759
1783169819933421300,7.33942138671875,0.013494272345304488,0.047426937085390086,-0.023712810955569145
1783169819943491600,7.34949169921875,0.0027656653210520743,0.04239186552762985,-0.053275334320031106
1783169819953561600,7.3595615234375,-0.008172785061597824,0.01009703112244606,-0.058087776103056966
1783169819963630300,7.36963037109375,-0.009060966072976588,-0.0017050503522157668,-0.04804110519466921
1783169819973700600,7.37970068359375,0.011115852776169777,0.015976152288913727,-0.051862252651713785
1783169819983770400,7.389770263671875,0.04143938710838556,0.02128945626616478,-0.023742201446834952
1783169819993839600,7.399839599609375,0.03769201727360487,0.05214636682271957,0.0069752641064114865
1783169820003909400,7.409909423828125,0.0635386984527111,0.03826864811778068,0.12047629987364634
1783169820013979400,7.4199794921875,0.23354952041655777,0.08211305054128169,0.07117365031056105
1783169820024048600,7.430048583984375,0.057394788870215416,0.09927987391948699,-0.014293532964214681
1783169820034118400,7.440118408203125,0.034922260299324985,0.010922960552573203,0.01418833729038015
1783169820044188400,7.4501884765625,0.1416580031827092,0.047018356284499165,-0.027040512339863924
1783169820054257400,7.46025732421875,0.17783610876202582,0.031027590948343276,-0.0835473393944092
1783169820064327400,7.470327392578125,-0.02509089437574148,0.016414543706178664,-0.14184842945458367
1783169820074397400,7.4803974609375,-0.1382116621211171,0.018650924456119537,-0.11916280612228437
1783169820084466400,7.490466552734375,-0.11552315271198749,0.08458090195953845,-0.06571174990916624
1783169820094536400,7.500536376953125,-0.035221243245899675,0.0817640909731388,-0.031108401099592446
1783169820104606500,7.5106064453125,0.013565584015846252,0.019633505752682686,0.06876666223406791
1783169820114675500,7.520675537109375,0.07769611088186502,0.03361293126642704,0.12992776310155169
1783169820124745500,7.530745361328125,0.06506196249723434,0.04846212535202503,0.08430051411557943
1783169820134815500,7.5408154296875,0.055122167763113974,0.0587765986174345,0.06761456958949566
1783169820144884200,7.55088427734375,-0.0004012742772698402,0.05424889205992221,-0.013991426478791981
1783169820154954500,7.56095458984375,-0.12381225762963294,0.0030979660153388974,-0.08037124837525189
1783169820165024500,7.5710244140625,-0.015282909327745437,0.024282792863249778,-0.02136474999208003
1783169820175093500,7.581093505859375,0.06899725611954927,0.032790508967638014,-0.06264410596685484
1783169820185163500,7.59116357421875,-0.04068856874108314,0.054768532019853586,-0.06485823835236951
1783169820195233300,7.6012333984375,0.009150105661153794,0.07276128482818603,-0.029650219914223997
1783169820205302500,7.611302490234375,0.01974924108684063,0.031655367457866665,-0.025435232567694036
1783169820215372500,7.62137255859375,0.016544892087578773,0.056501639422774315,0.01482623333511874
1783169820225442300,7.6314423828125,0.025904256585240364,0.0946785176038742,0.0499316133826971
1783169820235511600,7.641511474609375,0.023069033159315584,0.07662205190956592,0.021176680074073372
1783169820245581300,7.651581298828125,0.00428337640762329,0.053769584110379215,0.025936387022864073
1783169820255651600,7.661651611328125,-0.012336334481835364,0.07318857032954693,0.02980151975210756
1783169820265720300,7.67172021484375,-0.002524550041556358,0.06348199982941151,0.030328466235660014
1783169820275790300,7.681790283203125,0.017549100694060325,0.05532265877127647,0.04109632755806669
1783169820285859300,7.691859375,0.020332301671802996,0.05227905329167842,-0.014661946151498705
1783169820295929300,7.701929443359375,-0.010118950693309307,0.02679623698890209,-0.07261066084373742
1783169820305999600,7.71199951171875,0.013380582837760448,0.013316577690839767,-0.04153433538284153
1783169820316069400,7.7220693359375,0.011128712257742882,-0.009884849676489829,-0.06825759846707806
1783169820326138600,7.732138671875,-0.0010407412245869636,-0.006287117445468902,-0.04330910823671147
1783169820336208400,7.74220849609375,0.007149871754646301,0.0376058002948761,-0.0374566376151517
1783169820346277400,7.75227734375,0.027125322812795637,0.047076223951578136,-0.027939068614784627
1783169820356347600,7.76234765625,0.05413081863820553,0.07384849554300307,0.011864789713639766
1783169820366417400,7.77241748046875,0.05818330889940262,0.10128770661056041,0.031968232799321414
1783169820376486700,7.782486572265625,0.02958089927136898,0.07916647569537162,0.03747375314673409
1783169820386556400,7.792556396484375,0.06577157207131386,0.07938333331644534,0.05277611609362066
1783169820396626400,7.80262646484375,0.07388005972504616,0.03552899402081966,0.007035232399031519
1783169820406695400,7.8126953125,0.05743044470548629,0.005693827727437019,-0.006222947901766747
1783169820416765400,7.822765380859375,0.050474049696326254,0.004902385088801383,-0.02696724617425352
1783169820426835500,7.83283544921875,0.03071545625925064,0.015562895312905311,-0.020994254445564
1783169820436904400,7.842904541015625,0.032976971450448034,0.05366787730157375,-0.017476912240684032
1783169820446974500,7.852974365234375,0.044909109045565124,0.06587152531445026,-0.011837591179460287
1783169820457044500,7.86304443359375,0.04797872574925422,0.04422083452045917,-0.021194507991708814
1783169820467113500,7.873113525390625,0.05238076010048389,0.03753507314622402,0.001125898757390678
1783169820477183200,7.883183349609375,0.053011459219455714,0.04974398185610771,0.0194283751020208
1783169820487253500,7.89325341796875,0.04831219548732042,0.04487608355879783,0.015982983888499436
1783169820497322500,7.903322509765625,0.003741524615883827,0.02646072142422199,0.0046847420164383945
1783169820507392500,7.913392578125,0.016221066960692403,0.01800853489935398,0.0003035860564559698
1783169820517462500,7.923462646484375,0.026109716029465196,0.018114333361387253,-0.02309782086238265
1783169820527531300,7.93353125,0.018124270233511923,0.04911211369335651,-0.07533031333228572
1783169820537601500,7.9436015625,0.06798427968472243,0.05947860940694809,-0.027920875370968132
1783169820547671600,7.953671630859375,0.07484861249625682,0.04876549221277237,0.009987067941948771
1783169820557740500,7.963740478515625,0.07324556121379136,0.03906652049720287,0.017383900194987655
1783169820567810600,7.973810546875,0.06654518679231405,0.04752922841608524,0.030639961603935804
1783169820577880300,7.98388037109375,0.027140812642872332,0.05018588040471077,-0.011108162660058587
1783169820587949600,7.993949462890625,0.03966127151995897,0.010756371814012526,-0.032577742999792096
1783169820598019300,8.004019287109376,0.05197276382148266,-0.0011176058530807495,-0.03139921900602057
1783169820608089300,8.01408935546875,0.024516893880069255,-0.0053249944150447846,-0.06250756530668586
1783169820618158300,8.024158447265625,0.030486908200383186,-0.0165261873871088,-0.01977788265943527
1783169820628228400,8.034228271484375,0.01930295862406492,0.06449088461101055,-0.007858732410054654
1783169820638298600,8.044298583984375,0.015007891778647899,0.07109481292068957,0.009585337006952613
1783169820648367400,8.054367431640625,0.041588147929310794,0.06366320161521434,0.049198896927665915
1783169820658437400,8.064437255859374,0.022011925321817397,0.09080898269414901,0.05295008442103862
1783169820668507400,8.07450732421875,0.04337883073836565,0.07944353907108306,0.06324740562224761
1783169820678576400,8.084576416015626,0.02629617851227522,0.05743921253383159,0.060225062126386904
1783169820688646700,8.094646728515626,0.019364041161537168,0.06721300305128097,0.008204604971967637
1783169820698716400,8.10471630859375,0.021524141804873942,0.07461597278416156,-0.003996650154422968
1783169820708785400,8.114785400390625,0.007431903566420078,0.05591127231419086,-0.03411176590034738
1783169820718855400,8.12485546875,-0.0030626024410128593,0.05740472574234008,-0.055470195749495174
1783169820728925400,8.134925537109375,-0.005646189193427562,0.055066638183593745,-0.09879641951778903
1783169820738994400,8.144994384765624,-0.0233189162671566,0.03627367490828037,-0.07505518618533387
1783169820749064400,8.155064453125,-0.022549685460329056,0.017476619979739188,-0.0644430451476015
1783169820759134500,8.165134521484376,0.017042612476646898,0.028423545929789542,-0.05027173205725848
1783169820769203500,8.175203369140625,0.029677345383167266,0.010142039307951926,0.011609134452138096
1783169820779273500,8.1852734375,0.003664367726445198,0.03814882113039493,-0.01670042970916256
1783169820789342500,8.195342529296875,0.01196750116944313,0.06299567761719227,0.02452383507750928
1783169820799412500,8.20541259765625,0.017872925820946694,0.03247720523476601,0.021631620767340064
1783169820809482200,8.215482177734375,0.05078180047124624,0.053014381828904146,0.00019471885450184344
1783169820819551500,8.225551513671874,0.05777531262040138,0.04213876754939556,0.004128459840547293
1783169820829621500,8.23562158203125,0.06533756456822157,0.015723638832569123,0.004100676784478128
1783169820839691500,8.24569140625,0.05003770410567522,0.009648702833056449,-0.020070234935823827
1783169820849759700,8.255759765625,0.06900982334017754,0.015443652847409247,-0.00015438684411346913
1783169820859830000,8.265830078125,0.08102759339213371,0.036276597517728805,0.012043087156303227
1783169820869899800,8.275899658203125,0.05877133792042732,0.04568213924467563,0.002464088558591902
1783169820879968800,8.28596875,0.0582993364945054,0.049861470755934716,0.0410329069330357
1783169820890038800,8.296038818359374,0.06250906314402818,0.050825931873917575,0.03174576742136851
1783169820900108800,8.30610888671875,0.0380959218993783,0.032308278408646585,0.032090836265683174
1783169820910178000,8.316177978515626,0.01981675336509943,0.04602525359392166,0.03020231910534203
1783169820920247800,8.326247802734375,-0.02195259635001421,0.07006254726350307,0.002289645307138562
1783169820930317800,8.33631787109375,-0.014385960488021373,0.0582493598729372,-0.001985273799393326
1783169820940386800,8.34638671875,-0.017488894939422607,0.06455810462832451,-0.02361744255600497
1783169820950456800,8.356456787109375,-0.03151712803095579,0.06544540885686874,-0.035275366319622845
1783169820960526800,8.36652685546875,-0.019129355622828005,0.057144613501429554,-0.028109602876100686
1783169820970595800,8.376595947265624,-0.02983838116377592,0.04012450511753559,-0.05806070543304086
1783169820980665900,8.386665771484376,0.011190963838994502,0.04106207822859287,-0.04691184543641284
1783169820990736000,8.39673583984375,0.015381109005212782,0.019851532417535782,-0.020496205262932925
1783169821000804900,8.406804931640625,0.015292553938925266,0.0055932899624109265,-0.027535511048883198
1783169821010874600,8.41687451171875,0.026453414900600908,0.039212650969624514,0.03769072036566212
1783169821020945000,8.42694482421875,0.055689738517999646,0.06910159327685833,0.043701358957309276
1783169821031013600,8.437013671875,0.06866583220809698,0.07557166607379913,0.04373624760759994
1783169821041084000,8.447083984375,0.0671004825875163,0.06818447843194007,0.028038145075086503
1783169821051154000,8.45715380859375,0.08104132965654134,0.023305472263693807,0.008976849719788878
1783169821061223000,8.467222900390626,0.08619622820168733,0.02420505145192146,0.0011073767200112342
1783169821071293000,8.47729296875,0.03955664210170507,-0.015841127732396126,-0.051348859769478436
1783169821081362700,8.48736279296875,0.03519932367503643,-0.027332243561744688,-0.02439587958259508
1783169821091432000,8.497431884765625,0.0345186479344964,-0.002923193970322609,-0.007342745711933821
1783169821101502000,8.507501953125,0.05578296975940466,0.00947568435370922,0.018272136005293576
1783169821111571700,8.51757177734375,0.07327654087394475,0.043514147555828095,0.017325849864818155
1783169821121641000,8.527640869140624,0.16929244456142187,0.041648353683948515,-0.018875837519485503
1783169821131710700,8.537710693359376,0.1769131486982107,0.06589899784326553,0.01318509679827839
1783169821141780700,8.54778076171875,0.05578063167184591,0.05173778602182865,-0.025909261553920804
1783169821151849700,8.557849609375,-0.10054010311365127,0.039538229662179944,-0.024711996327061204
1783169821161919700,8.567919677734375,-0.23011808466315267,0.11237784042358398,-0.012850750277377664
1783169821171990000,8.577989990234375,0.08896481613218783,0.09460136071443558,0.05817293363586068
1783169821182058800,8.588058837890625,0.08524170395582914,0.02516542091667652,-0.03776413266174495
1783169821192129000,8.59812890625,-0.09060352324992418,0.0017377835780382155,0.01809367416584864
1783169821202198800,8.60819873046875,-0.044753918483853336,0.009281623086333275,0.03580428556455299
1783169821212267800,8.618267822265626,0.035305706658959386,0.046234512430429454,0.013594700512476264
1783169821222337800,8.628337890625,0.04825725042968988,0.045752281871438025,0.008505889473482965
1783169821232406800,8.63840673828125,-0.01698679063618183,0.036733693635463714,-0.00513931738352403
1783169821242477000,8.64847705078125,-0.08665215527564286,0.03121346890926361,-0.02930546159716323
