time,seconds_elapsed,z,y,x
1783169812663107800,0.06910791015625,-0.09180541336536407,0.0632033720612526,-0.15795718133449554
1783169812673177900,0.079177734375,-0.08645089715719223,0.06933967769145966,-0.17046020925045013
1783169812683247900,0.089247802734375,-0.07181709259748459,0.0719439834356308,-0.1670052856206894
1783169812693316900,0.09931689453125,-0.05100548267364502,0.07497269660234451,-0.16132909059524536
1783169812703387000,0.109386962890625,-0.02422500215470791,0.07412607967853546,-0.17047837376594543
1783169812713457000,0.119456787109375,0.0027326110284775496,0.057000238448381424,-0.1712549477815628
1783169812723527000,0.12952685546875,0.021718552336096764,0.02273387648165226,-0.12730106711387634
1783169812733596000,0.139595947265625,0.023172300308942795,0.0005535716190934181,-0.060742225497961044
1783169812743666000,0.149666015625,0.014033929444849491,-0.025687087327241898,-0.0071913814172148705
1783169812753735700,0.159735595703125,0.009300796315073967,-0.04639391228556633,-0.0034289187751710415
1783169812763805000,0.169804931640625,0.008135396987199783,-0.05933874100446701,-0.02106117457151413
1783169812773874700,0.179874755859375,0.012493781745433807,-0.07923687994480133,-0.02568642981350422
1783169812783945000,0.189945068359375,0.026021040976047516,-0.08164703845977783,-0.03476887568831444
1783169812794014000,0.200013916015625,0.03330076113343239,-0.08699215948581696,-0.041639577597379684
1783169812804083700,0.210083740234375,0.0484677292406559,-0.11086579412221909,-0.04534909501671791
1783169812814154000,0.220154052734375,0.050202276557683945,-0.12098193168640137,-0.04153649881482124
1783169812824223700,0.2302236328125,0.05185423791408539,-0.12847073376178741,-0.03001699596643448
1783169812834293000,0.24029296875,0.04067326337099075,-0.12460567057132721,-0.00029832147993147373
1783169812844361700,0.25036181640625,0.03513601794838905,-0.10837264358997345,0.008889051154255867
1783169812854431700,0.260431640625,0.036054808646440506,-0.08549661934375763,-0.0022211240138858557
1783169812864500700,0.270500732421875,0.043981973081827164,-0.07204073667526245,-0.013184558600187302
1783169812874570800,0.28057080078125,0.051517922431230545,-0.074727863073349,-0.03489305078983307
1783169812884641000,0.29064111328125,0.053810637444257736,-0.08740344643592834,-0.053030241280794144
1783169812894710800,0.300710693359375,0.04678160324692726,-0.12246216833591461,-0.04041418805718422
1783169812904780000,0.310780029296875,0.028319239616394043,-0.1667337715625763,0.010354451835155487
1783169812914849800,0.320849853515625,0.015362538397312164,-0.20701082050800323,0.08413088321685791
1783169812924919800,0.330919921875,0.01359632983803749,-0.2362872213125229,0.09791513532400131
1783169812934988800,0.34098876953125,0.021185722202062607,-0.2519945800304413,0.05262183025479317
1783169812945058800,0.351058837890625,0.029344050213694572,-0.2558303475379944,0.013449661433696747
1783169812955128800,0.36112890625,0.03116580843925476,-0.25203511118888855,0.012006293050944805
1783169812965198800,0.37119873046875,0.02322106808423996,-0.24841907620429993,0.04347793012857437
1783169812975267800,0.381267822265625,0.011978213675320148,-0.24942778050899506,0.05140046030282974
1783169812985337900,0.391337890625,0.006660680286586285,-0.22509340941905975,0.04140428453683853
1783169812995408000,0.401407958984375,-0.0019756120163947344,-0.18719300627708435,0.0829857587814331
1783169813005476600,0.4114765625,-0.01303918194025755,-0.13374042510986328,0.17332977056503296
1783169813015547000,0.421546875,-0.022058121860027313,-0.04559146240353584,0.2175476849079132
1783169813025617000,0.431616943359375,-0.030436160042881966,0.050918299704790115,0.16235153377056122
1783169813035686000,0.441685791015625,-0.03672540560364723,0.133103609085083,0.04743395000696182
1783169813045756000,0.451755859375,-0.04646618664264679,0.1808791160583496,-0.05486952140927315
1783169813055825700,0.46182568359375,-0.06678136438131332,0.1967383623123169,-0.08033264428377151
1783169813065895700,0.471895751953125,-0.08765468746423721,0.19016407430171967,-0.05917276069521904
1783169813075965000,0.48196484375,-0.0971328541636467,0.16941088438034058,-0.06017747521400452
1783169813086034700,0.49203466796875,-0.08452411741018295,0.15984532237052917,-0.08719763904809952
1783169813096105000,0.50210498046875,-0.0655759945511818,0.13038118183612823,-0.0877196192741394
1783169813106173700,0.512173583984375,-0.045856088399887085,0.0802016407251358,-0.07610903680324554
1783169813116243700,0.52224365234375,-0.028085101395845413,0.015015169978141785,-0.07179322093725204
1783169813126314000,0.53231396484375,0.0007673195214010775,-0.07243026047945023,-0.07537277787923813
1783169813136382700,0.5423828125,0.024825867265462875,-0.15797068178653717,-0.055722784250974655
1783169813146453000,0.552452880859375,0.04128872975707054,-0.23114050924777985,-0.016481371596455574
1783169813156522800,0.562522705078125,0.04167240858078003,-0.2888469696044922,0.016667138785123825
1783169813166592800,0.5725927734375,0.05043527111411095,-0.3269064724445343,0.03937537968158722
1783169813176661800,0.582661865234375,0.060657139867544174,-0.33753615617752075,0.04521627351641655
1783169813186731800,0.592731689453125,0.06366225332021713,-0.3225814402103424,0.059500936418771744
1783169813196801800,0.6028017578125,0.06563733518123627,-0.2811312973499298,0.052226170897483826
1783169813206870800,0.612870849609375,0.06254593282938004,-0.2447304129600525,0.007538593374192715
1783169813216940800,0.62294091796875,0.04584300145506859,-0.20991484820842743,-0.031175363808870316
1783169813227010800,0.6330107421875,0.023088421672582626,-0.15131092071533203,-0.06794881820678711
1783169813237080800,0.643080810546875,0.010548394173383713,-0.0834549069404602,-0.06439989060163498
1783169813247149800,0.65314990234375,0.002376750810071826,-0.026415055617690086,-0.03732007369399071
1783169813257219800,0.6632197265625,-0.002094973111525178,0.018318187445402145,-0.01894257962703705
1783169813267289900,0.673289794921875,-0.010491653345525265,0.06332720816135406,-0.013372045010328293
1783169813277358800,0.68335888671875,-0.01625325158238411,0.10424143075942993,-0.0275439266115427
1783169813287428900,0.693428955078125,-0.016328085213899612,0.13745930790901184,-0.04927665367722511
1783169813297499000,0.703498779296875,-0.0116935595870018,0.15457402169704437,-0.043601419776678085
1783169813307567900,0.71356787109375,-0.006721437908709049,0.1518181711435318,-0.020905958488583565
1783169813317638000,0.723637939453125,-0.0029805998783558607,0.15222027897834778,-0.013693008571863174
1783169813327707600,0.733707763671875,-0.01135304570198059,0.15284478664398193,-0.021147197112441063
1783169813337778000,0.74377783203125,-0.021208951249718666,0.15296417474746704,-0.0308612659573555
1783169813347846700,0.7538466796875,-0.021923743188381195,0.14900138974189758,-0.042698219418525696
1783169813357917000,0.7639169921875,-0.02083541266620159,0.1399463415145874,-0.04469554126262665
1783169813367987000,0.773987060546875,-0.021100131794810295,0.1265743374824524,-0.031789328902959824
1783169813378056000,0.784055908203125,-0.01930815353989601,0.10238587856292725,-0.016742495819926262
1783169813388126000,0.7941259765625,-0.01774301379919052,0.07157203555107117,-0.0050509534776210785
1783169813398195700,0.80419580078125,-0.010945326648652554,0.04637918993830681,-0.0008580870926380157
1783169813408265000,0.814264892578125,-0.013602894730865955,0.030822332948446274,0.01551795657724142
1783169813418334700,0.824334716796875,-0.018910203129053116,0.0012335958890616894,0.022984616458415985
1783169813428404700,0.83440478515625,-0.027447497472167015,-0.0016535371541976929,0.023884233087301254
1783169813438475000,0.84447509765625,-0.026120614260435104,-0.018481597304344177,0.015795426443219185
1783169813448543700,0.854543701171875,-0.02465587481856346,-0.035968441516160965,0.013259565457701683
1783169813458613800,0.86461376953125,-0.019155491143465042,-0.04998259246349335,0.003041887190192938
1783169813468683800,0.874683837890625,-0.013887225650250912,-0.04482831060886383,-0.007524203974753618
1783169813478752800,0.884752685546875,-0.012998059391975403,-0.02870955690741539,-0.028896629810333252
1783169813488823000,0.894822998046875,-0.01439222414046526,-0.00665298942476511,-0.052442703396081924
1783169813498892800,0.904892822265625,-0.012275204062461853,0.011590097099542618,-0.06368636339902878
1783169813508962800,0.914962890625,-0.008045571856200695,0.0270012766122818,-0.04249638691544533
1783169813519031800,0.92503173828125,-0.008039180189371109,0.030530765652656555,-0.011454315856099129
1783169813529101800,0.935101806640625,0.00013992039021104574,0.040696848183870316,0.0017427124548703432
1783169813539171800,0.945171875,0.016282128170132637,0.054248739033937454,-0.01942826807498932
1783169813549240800,0.95524072265625,0.024374941363930702,0.07015553116798401,-0.04767002537846565
1783169813559310800,0.965310791015625,0.02461996302008629,0.0789606124162674,-0.057402100414037704
1783169813569380900,0.975380859375,0.020202578976750374,0.08243896812200546,-0.04619418829679489
1783169813579449900,0.985449951171875,0.019188597798347473,0.08431843668222427,-0.04707503318786621
1783169813589519600,0.99551953125,0.014442844316363335,0.08197299391031265,-0.042527154088020325
1783169813599590000,1.00558984375,0.0100814588367939,0.07278872281312943,-0.03190412372350693
1783169813609660000,1.015659912109375,-0.0023501769173890352,0.0578201562166214,-0.0011315655428916216
1783169813619729000,1.02572900390625,-0.0038449775893241167,0.03893955796957016,0.0073657953180372715
1783169813629799000,1.035798828125,-0.008361432701349258,0.01950221136212349,0.0031388262286782265
1783169813639868700,1.04586865234375,-0.014124044217169285,0.009226374328136444,0.003911116160452366
1783169813649938000,1.05593798828125,-0.016753116622567177,0.002081645652651787,0.005796900484710932
1783169813660007700,1.066007568359375,-0.020340032875537872,-0.0011717472225427628,0.015027422457933426
1783169813670077700,1.07607763671875,-0.02249852381646633,-0.015573323704302311,0.0229340810328722
1783169813680147000,1.08614697265625,-0.027250967919826508,-0.029494892805814743,0.013796797022223473
1783169813690216700,1.096216796875,-0.028013963252305984,-0.013136160559952259,-0.005782496649771929
1783169813700287000,1.106286865234375,-0.042160045355558395,0.008995696902275085,-0.0007230117917060852
1783169813710356700,1.116356689453125,-0.04906029626727104,0.0052896421402692795,0.014335565268993378
1783169813720425700,1.12642578125,-0.048231977969408035,-0.0007180161774158478,0.0035313349217176437
1783169813730496000,1.13649609375,-0.048230912536382675,-0.0035263197496533394,-0.029023410752415657
1783169813740565800,1.146565673828125,-0.039115432649850845,0.014208341017365456,-0.05584019795060158
1783169813750635000,1.156635009765625,-0.037542037665843964,-0.006898010149598122,-0.07136323302984238
1783169813760704800,1.166704833984375,-0.033541928976774216,-0.005986391566693783,-0.08093949407339096
1783169813770774800,1.17677490234375,-0.02808457799255848,-0.019261183217167854,-0.0800100564956665
1783169813780843800,1.18684375,-0.02494450844824314,-0.023423999547958374,-0.07892511039972305
1783169813790913800,1.196913818359375,-0.027366122230887413,-0.024144385010004044,-0.07440226525068283
1783169813800983800,1.20698388671875,-0.02217213809490204,-0.028240051120519638,-0.05229606106877327
1783169813811053800,1.2170537109375,-0.016495076939463615,-0.01698872819542885,-0.031070135533809662
1783169813821122800,1.227122802734375,-0.01476537436246872,-0.011479190550744534,-0.02178885228931904
1783169813831192800,1.23719287109375,-0.006980421952903271,-0.003996772691607475,-0.030978620052337646
1783169813841263600,1.247263671875,-0.001786055276170373,0.001503930427134037,-0.047980304807424545
1783169813851332600,1.25733251953125,0.002341578248888254,0.004494394175708294,-0.052498623728752136
1783169813861402600,1.267402587890625,0.0035098218359053135,-0.004449885338544846,-0.05088483914732933
1783169813871472600,1.27747265625,0.006740502081811428,-0.00369354709982872,-0.04683257266879082
1783169813881541600,1.287541748046875,0.014600523747503757,-0.005660971626639366,-0.04144900664687157
1783169813891611600,1.297611572265625,0.025582866743206978,-0.006526499055325985,-0.03907293453812599
1783169813901681700,1.307681640625,0.035343170166015625,-0.01575431227684021,-0.04026404023170471
1783169813911750700,1.317750732421875,0.032819028943777084,-0.024622641503810883,-0.03322583809494972
1783169813921820700,1.327820556640625,0.029280154034495354,-0.03045765683054924,-0.023385751992464066
1783169813931890700,1.337890625,0.015138770453631878,-0.029048576951026917,-0.007176156155765057
1783169813941960400,1.34796044921875,0.009899917989969254,-0.027768727391958237,-0.013140466064214706
1783169813952029700,1.35802978515625,0.004630320705473423,-0.02164851874113083,-0.02441682294011116
1783169813962099500,1.368099365234375,0.0026250986848026514,-0.012432720512151718,-0.027991073206067085
1783169813972169700,1.378169677734375,0.00243628048337996,-0.004758022725582123,-0.033889442682266235
1783169813982238500,1.388238525390625,-0.0032868951093405485,0.0021225018426775932,-0.035581547766923904
1783169813992308700,1.398308837890625,-0.005397450178861618,0.008077862672507763,-0.03712937608361244
1783169814002378800,1.408378662109375,0.0042343405075371265,0.021123861894011497,-0.04002852365374565
1783169814012447500,1.418447509765625,0.008135339245200157,0.020851420238614082,-0.042169973254203796
1783169814022517800,1.428517822265625,0.00867441575974226,0.0198515597730875,-0.0348762571811676
1783169814032587500,1.43858740234375,0.008135924115777016,0.02183641493320465,-0.030017320066690445
1783169814042657500,1.448657470703125,0.0015092864632606506,0.02651137299835682,-0.0235954150557518
1783169814052726500,1.4587265625,0.001938587985932827,0.037454038858413696,-0.022976228967308998
1783169814062796500,1.468796630859375,0.003454620251432061,0.047435250133275986,-0.028674554079771042
1783169814072866600,1.478866455078125,0.0045587667264044285,0.05455254763364792,-0.027652166783809662
1783169814082935600,1.488935546875,0.012589965015649796,0.04833469167351723,-0.023855609819293022
1783169814093005600,1.499005615234375,0.01899167150259018,0.035023145377635956,-0.024058276787400246
1783169814103075600,1.50907568359375,0.017539342865347862,0.025129174813628197,-0.011926968581974506
1783169814113144600,1.51914453125,0.009621765464544296,0.020308587700128555,-0.00014754128642380238
1783169814123214800,1.52921484375,0.0007174127968028188,0.009856844320893288,-0.007127366028726101
1783169814133284600,1.53928466796875,-0.009798877872526646,0.004062604624778032,-0.01918749138712883
1783169814143354600,1.549354736328125,-0.01056316215544939,0.00039198901504278183,-0.017777148634195328
1783169814153423600,1.559423583984375,-0.00923397857695818,-0.009043857455253601,-0.009861702099442482
1783169814163493600,1.56949365234375,-0.006264150142669678,-0.005288857035338879,-0.010629021562635899
1783169814173563600,1.579563720703125,-0.009611743502318859,-0.0066537270322442055,-0.01183916162699461
1783169814183632600,1.589632568359375,-0.01321654487401247,-0.005946767516434193,-0.006884767208248377
1783169814193702700,1.59970263671875,-0.018947133794426918,-0.011742071248590946,0.0002913861535489559
1783169814203772700,1.609772705078125,-0.017726780846714973,-0.012242821045219898,-0.006212056614458561
1783169814213841700,1.619841552734375,-0.014612214639782906,-0.01649216189980507,-0.01546920370310545
1783169814223911400,1.629911376953125,-0.00906919315457344,-0.022717352956533432,-0.015871422365307808
1783169814233981700,1.639981689453125,-0.0006786375306546688,-0.025311805307865143,-0.01262849010527134
1783169814244050400,1.650050537109375,-0.0013170188758522272,-0.024215921759605408,-0.014148987829685211
1783169814254120700,1.66012060546875,0.0030918442644178867,-0.017274126410484314,-0.019338423386216164
1783169814264190700,1.670190673828125,0.010265633463859558,-0.014096296392381191,-0.01837727427482605
1783169814274260500,1.680260498046875,0.01268617995083332,-0.005744623951613903,-0.018185259774327278
1783169814284329700,1.690329833984375,0.010725155472755432,-0.003206026740372181,-0.005814860109239817
1783169814294399700,1.700399658203125,0.007667846046388149,0.010350795462727547,0.008364874869585037
1783169814304469500,1.710469482421875,0.009900949895381927,0.014638503082096577,0.008395169861614704
1783169814314538800,1.720538818359375,0.018006280064582825,0.012529811821877956,-0.005733964964747429
1783169814324608500,1.7306083984375,0.022489532828330994,0.007209918927401304,-0.020737016573548317
1783169814334678500,1.740678466796875,0.018500916659832,0.0018164850771427155,-0.009102997370064259
1783169814344747500,1.75074755859375,0.009787999093532562,0.0049471138045191765,0.012249811552464962
1783169814354817500,1.760817626953125,0.004198557697236538,0.011140028014779091,0.017054419964551926
1783169814364887800,1.7708876953125,0.0015586731024086475,0.014551850035786629,0.0041308654472231865
1783169814374957600,1.78095751953125,0.002523003611713648,0.0173947736620903,-0.006956939119845629
1783169814385026800,1.79102685546875,0.006309252232313156,0.01775897666811943,-0.012673132121562958
1783169814395096600,1.8010966796875,0.01424493920058012,0.013635870069265366,-0.008806223049759865
1783169814405166600,1.81116650390625,0.01319857221096754,0.009896120987832546,-0.003822832368314266
1783169814415235600,1.821235595703125,0.004826659336686134,0.006221491377800703,0.006072674877941608
1783169814425305600,1.8313056640625,-0.0013539411593228579,0.0015340903773903847,0.0071110716089606285
1783169814435375600,1.841375732421875,-0.006550300866365433,-0.0026489365845918655,0.00946770329028368
1783169814445444600,1.851444580078125,-0.005321955773979425,-0.005714043974876404,0.01125255785882473
1783169814455514600,1.8615146484375,-0.00775501923635602,-0.014080631546676159,0.01338761392980814
1783169814465584600,1.871584716796875,-0.006260019261389971,-0.025063149631023407,0.004630020819604397
1783169814475653600,1.881653564453125,-0.012790089473128319,-0.03258338198065758,0.0009537930600345135
1783169814485723600,1.8917236328125,-0.011988124810159206,-0.03407258540391922,0.0012506067287176847
1783169814495793700,1.901793701171875,-0.006630644202232361,-0.03923645615577698,0.00824087206274271
1783169814505862700,1.911862548828125,-0.0033703052904456854,-0.04138544946908951,0.013048194348812103
1783169814515932700,1.9219326171875,0.003312364686280489,-0.03725595399737358,0.015390178188681602
1783169814526002700,1.932002685546875,0.001954354578629136,-0.02936743199825287,0.013382654637098312
1783169814536072700,1.94207275390625,0.0027738092467188835,-0.019227713346481323,0.010305104777216911
1783169814546141700,1.9521416015625,0.0035372618585824966,-0.008090007118880749,0.001812865026295185
1783169814556211700,1.962211669921875,0.00026663357857614756,-0.003690997138619423,-0.0066368128173053265
1783169814566281500,1.972281494140625,-0.002270377241075039,0.0007809298112988472,-0.009721634909510612
1783169814576350700,1.982350830078125,-0.00379770016297698,0.004500566981732845,-0.006931973621249199
1783169814586420500,1.99242041015625,-0.003015234600752592,0.0004162401892244816,-0.004526378121227026
1783169814596490500,2.002490478515625,-0.0034400084987282753,-0.009786596521735191,-0.005855295341461897
1783169814606559500,2.0125595703125,-0.0025002295151352882,-0.024365443736314774,-0.00777469715103507
1783169814616629500,2.02262939453125,-0.002106880536302924,-0.042911432683467865,-0.006647115107625723
1783169814626699800,2.03269970703125,0.00004329183138906956,-0.05743500962853432,0.0030739244539290667
1783169814636769500,2.04276953125,0.003029228188097477,-0.06629375368356705,0.004415891133248806
1783169814646838800,2.0528388671875,0.01566377468407154,-0.0757375955581665,0.0010791162494570017
1783169814656908500,2.062908447265625,0.01896343193948269,-0.07680019736289978,0.005023257806897163
1783169814666978600,2.072978515625,0.0223451666533947,-0.07718859612941742,0.01179286278784275
1783169814677047800,2.0830478515625,0.022671671584248543,-0.07288039475679398,0.008730761706829071
1783169814687117600,2.09311767578125,0.013559535145759583,-0.06941089034080505,0.018688252195715904
1783169814697187600,2.1031875,0.003017146373167634,-0.051540810614824295,0.015009360387921333
1783169814707256600,2.113256591796875,-0.01225036010146141,-0.03502010181546211,-0.006123552564531565
1783169814717326600,2.12332666015625,-0.015882644802331924,-0.02187713421881199,-0.005780004430562258
1783169814727396600,2.133396728515625,-0.01412662211805582,-0.008131789974868298,-0.00715609360486269
1783169814737465600,2.143465576171875,-0.011312725953757763,0.0003090985119342804,-0.018054813146591187
1783169814747535600,2.15353564453125,-0.00957421399652958,0.009487416595220566,-0.027872825041413307
1783169814757605600,2.163605712890625,-0.008350491523742676,0.01576315611600876,-0.012451255694031715
1783169814767675600,2.173675537109375,-0.013250100426375866,0.018323685973882675,0.0041372571140527725
1783169814777744600,2.18374462890625,-0.008590900339186192,0.01636652648448944,0.004189454950392246
1783169814787814700,2.193814697265625,-0.0024498531129211187,0.00987749733030796,0.006419084034860134
1783169814797884700,2.203884765625,-0.003666917560622096,0.015456819906830788,0.012096410617232323
1783169814807953700,2.21395361328125,0.0005303946090862155,0.02297741174697876,0.014625567942857742
1783169814818023700,2.224023681640625,0.004286516923457384,0.04201448708772659,0.006376160308718681
1783169814828093400,2.234093505859375,0.005163686815649271,0.04951564595103264,-0.007804590277373791
1783169814838162700,2.24416259765625,0.004186839330941439,0.05716850608587265,-0.015440672636032104
1783169814848231700,2.254231689453125,0.002034227829426527,0.05984632298350334,-0.016147373244166374
1783169814858301700,2.2643017578125,0.0032614124938845634,0.06279391050338745,-0.018277902156114578
1783169814868370700,2.27437060546875,0.007367854006588459,0.05629812926054001,-0.017085514962673187
1783169814878440700,2.284440673828125,0.009160427376627922,0.051935870200395584,-0.012635373510420322
1783169814888510700,2.2945107421875,0.005682725924998522,0.045000385493040085,-0.005580768454819918
1783169814898580700,2.304580810546875,0.002917299512773752,0.04185492545366287,-0.001448074821382761
1783169814908649700,2.314649658203125,-0.0013524603564292192,0.03585939109325409,0.001184061635285616
1783169814918719700,2.3247197265625,0.0014742187922820449,0.022652773186564445,0.0028067254461348057
1783169814928789500,2.33478955078125,0.0010332423262298107,0.008398488163948059,0.0018199572805315256
1783169814938858800,2.344858642578125,0.0051278527826070786,-0.008482490666210651,0.011214258149266243
1783169814948928500,2.354928466796875,0.001603529555723071,-0.021392636001110077,0.017979666590690613
1783169814958998800,2.364998779296875,0.006013457663357258,-0.022883471101522446,0.03107522986829281
1783169814969067800,2.37506787109375,0.00965067744255066,-0.01971251703798771,0.025606147944927216
1783169814979137500,2.385137451171875,0.017586365342140198,-0.018079999834299088,0.014552164822816849
1783169814989207800,2.395207763671875,0.01821552962064743,-0.01617443561553955,0.0159269031137228
1783169814999276500,2.405276611328125,0.011992787010967731,-0.010657698847353458,0.02445807307958603
1783169815009346800,2.415346923828125,0.006739842239767313,-0.0008277762681245804,0.020292077213525772
1783169815019416800,2.425416748046875,0.0022638675291091204,0.006074338685721159,0.0014930882025510073
1783169815029486600,2.435486572265625,0.0049475133419036865,0.006546241231262684,-0.007119941525161266
1783169815039555800,2.445555908203125,0.012026195414364338,0.006348102353513241,-0.0036698158364742994
1783169815049625600,2.45562548828125,0.018757248297333717,-0.0059040747582912445,0.004131780005991459
1783169815059695600,2.465695556640625,0.022213764488697052,-0.0049000633880496025,0.002942678751423955
1783169815069764600,2.4757646484375,0.02298290841281414,-0.007264674641191959,-0.0013920480851083994
1783169815079834600,2.485834716796875,0.020525610074400902,-0.01370845828205347,0.00408580806106329
1783169815089905000,2.49590478515625,0.01883063092827797,-0.014747284352779388,0.011706450954079628
1783169815099973600,2.5059736328125,0.019583508372306824,-0.00940338522195816,0.01162602286785841
1783169815110043600,2.516043701171875,0.025696847587823868,-0.004308070056140423,0.017338892444968224
1783169815120113700,2.52611376953125,0.02877652831375599,0.0026481072418391705,0.017117848619818687
1783169815130182700,2.5361826171875,0.02978157252073288,0.008080808445811272,0.01816897839307785
1783169815140252700,2.546252685546875,0.029573846608400345,0.015124603174626827,0.011379516683518887
1783169815150322700,2.55632275390625,0.03089543804526329,0.024444658309221268,0.013905066065490246
1783169815160391700,2.5663916015625,0.019546909257769585,0.03355639427900314,0.013313312083482742
1783169815170461700,2.576461669921875,0.017652804031968117,0.040916815400123596,0.009877531789243221
1783169815180531700,2.58653173828125,0.014524121768772602,0.041385263204574585,0.00009946990758180618
1783169815190601500,2.5966015625,0.01821444183588028,0.048102013766765594,-0.0012146348599344492
1783169815200670700,2.606670654296875,0.017093516886234283,0.04414748400449753,0.0013097752816975117
1783169815210740700,2.61674072265625,0.01745893619954586,0.04436095058917999,0.008535748347640038
1783169815220810800,2.626810791015625,0.018077056854963303,0.036726731806993484,0.0051916176453232765
1783169815230879700,2.636879638671875,0.007752887438982725,0.03512009605765343,-0.0002716223243623972
1783169815240949500,2.646949462890625,0.005776821635663509,0.030306166037917137,-0.0025683322455734015
1783169815251019800,2.657019775390625,0.0033442582935094833,0.031616292893886566,-0.002298570703715086
1783169815261088500,2.667088623046875,0.002965290565043688,0.03097314015030861,0.0013323829043656588
1783169815271158800,2.67715869140625,0.0013370229862630367,0.03352457657456398,-0.004354448057711124
1783169815281228800,2.687228759765625,0.0004965293919667602,0.03155490383505821,-0.0057155899703502655
1783169815291297800,2.6972978515625,0.009110459126532078,0.02461094781756401,-0.008432315662503242
1783169815301367800,2.707367919921875,0.005349276587367058,0.01762334629893303,-0.009055495262145996
1783169815311437600,2.7174375,-0.0005855346098542213,0.01592426747083664,0.005738565698266029
1783169815321507600,2.727507568359375,-0.008135063573718071,0.01309998519718647,0.016133949160575867
1783169815331576600,2.73757666015625,-0.008322859182953835,0.017766091972589493,0.005656871944665909
1783169815341646600,2.747646484375,-0.004815210122615099,0.020408745855093002,-0.006543068680912256
1783169815351716900,2.757716796875,-0.0030442189890891314,0.022493330761790276,-0.009515606798231602
1783169815361785600,2.76778564453125,-0.005111631006002426,0.01728019304573536,-0.004494483582675457
1783169815371855600,2.777855712890625,-0.007814791053533554,0.013291403651237488,-0.0062280017882585526
1783169815381926000,2.78792578125,-0.011207924224436283,0.004555436782538891,-0.008423777297139168
1783169815391994600,2.79799462890625,-0.011478086933493614,-0.005258230492472649,-0.008821534924209118
1783169815402065000,2.80806494140625,-0.0059578861109912395,-0.01040612068027258,-0.007376769557595253
1783169815412134700,2.818134765625,-0.002198698464781046,-0.014509573578834534,-0.0016550396103411913
1783169815422204000,2.828203857421875,0.0035505336709320545,-0.014899726957082748,0.0029823228251188993
1783169815432273700,2.838273681640625,0.009391400963068008,-0.01085464283823967,0.014142134226858616
1783169815442343700,2.84834375,0.014564590528607368,-0.006783468648791313,0.012918411754071712
1783169815452412700,2.85841259765625,0.012432752177119255,-0.0026731370016932487,0.0009196407627314329
1783169815462482700,2.868482666015625,0.011101704090833664,0.006422356702387333,-0.006352919619530439
1783169815472552700,2.878552734375,0.0022727272007614374,0.009704941883683205,0.0006471618544310331
1783169815482622700,2.888622802734375,-0.0045090122148394585,0.015558037906885147,0.0016240093391388655
1783169815492691700,2.898691650390625,-0.010593864135444164,0.012187229469418526,-0.0000356500968337059
1783169815502761700,2.90876171875,-0.01053953543305397,0.013936925679445267,-0.009063499048352242
1783169815512831700,2.918831787109375,-0.007850203663110733,0.011692063882946968,-0.009848704561591148
1783169815522900700,2.928900634765625,-0.001820540288463235,0.01034690160304308,-0.014878617599606514
1783169815532970800,2.938970703125,0.002727948594838381,0.010176890529692173,-0.014775332063436508
1783169815543040800,2.949040771484375,0.003620640141889453,0.00345027819275856,-0.008871104568243027
1783169815553109800,2.95910986328125,-0.0010137709323316813,0.0009077675640583038,-0.00999405886977911
1783169815563179800,2.9691796875,-0.0012017900589853525,-0.004136791452765465,-0.011478237807750702
1783169815573249800,2.979249755859375,-0.0007004477083683014,-0.00731373205780983,-0.012615748681128025
1783169815583318800,2.98931884765625,-0.0029095399659126997,-0.009925760328769684,-0.010671640746295452
1783169815593388800,2.999388916015625,-0.0004916673060506582,-0.012010088190436363,-0.007607858628034592
1783169815603458600,3.00945849609375,0.004343035630881786,-0.013422895222902298,-0.005298632197082043
1783169815613528800,3.01952880859375,0.008373893797397614,-0.006210586056113243,0.006373563781380653
1783169815623597600,3.02959765625,0.006627126131206751,-0.0029434198513627052,0.0038994874339550734
1783169815633667600,3.03966748046875,0.005816949065774679,0.005696388427168131,0.0018395974766463041
1783169815643737900,3.04973779296875,0.0068422663025557995,0.012551631778478622,-0.004918439779430628
1783169815653806600,3.059806640625,0.009955501183867455,0.018988225609064102,-0.0034680827520787716
1783169815663876900,3.069876953125,0.007912058383226395,0.02059464529156685,-0.011855442076921463
1783169815673946600,3.079946533203125,0.005226594861596823,0.021195637062191963,-0.02043892815709114
1783169815684015900,3.090015869140625,0.005965355783700943,0.013384053483605385,-0.01838083565235138
1783169815694085600,3.100085693359375,0.0020836207550019026,0.0062598674558103085,-0.010728366672992706
1783169815704155600,3.11015576171875,0.003193626180291176,0.008407174609601498,-0.0028110553976148367
1783169815714225000,3.120224853515625,0.001034678309224546,0.0074752327054739,0.002999119460582733
1783169815724294700,3.130294677734375,0.004581476096063852,0.003946810495108366,-0.001331712817773223
1783169815734364700,3.14036474609375,0.009276519529521465,-0.0005438560619950294,-0.004738670773804188
1783169815744433700,3.15043359375,0.01588728465139866,-0.00015450268983840942,-0.004909379407763481
1783169815754503700,3.160503662109375,0.02251451462507248,-0.005749822594225407,-0.00258464552462101
1783169815764573700,3.17057373046875,0.022800005972385406,-0.016589153558015823,0.006791013292968273
1783169815774643700,3.180643798828125,0.018948575481772423,-0.023023735731840134,0.007560953963547945
1783169815784712700,3.190712646484375,0.016799671575427055,-0.027329538017511368,0.0037398505955934525
1783169815794782700,3.20078271484375,0.009132872335612774,-0.03254632651805878,0.016288412734866142
1783169815804852700,3.210852783203125,0.009189598262310028,-0.031090378761291504,0.021133501082658768
1783169815814921700,3.220921630859375,0.004616341553628445,-0.02546754479408264,0.01788875088095665
1783169815824991700,3.23099169921875,0.006504523102194071,-0.022900789976119995,0.005408912897109985
1783169815835061800,3.241061767578125,0.006289861164987087,-0.01942949742078781,0.0032387853134423494
1783169815845131000,3.251131103515625,-0.0018591454718261957,-0.020649759098887444,0.002398557960987091
1783169815855201000,3.261200927734375,-0.000051114242523908615,-0.014233267866075039,0.004894656594842672
1783169815865271000,3.27127099609375,0.005142848938703537,-0.01171285193413496,0.0012836763635277748
1783169815875340000,3.281340087890625,0.0022811940871179104,-0.008704048581421375,0.008165942505002022
1783169815885410000,3.29141015625,0.0007117933128029108,-0.0008629029616713524,0.013946866616606712
1783169815895479800,3.301479736328125,0.0012362028937786818,0.00625187810510397,0.0021504140459001064
1783169815905549000,3.311549072265625,-0.001347862184047699,0.00998296681791544,-0.004174327477812767
1783169815915618800,3.321618896484375,-0.0020465338602662086,0.006740494631230831,-0.006630835123360157
1783169815925689000,3.331689208984375,-0.004266544710844755,0.008012953214347363,-0.003324520541355014
1783169815935759000,3.341759033203125,-0.008592160418629646,0.009095482528209686,0.004721715580672026
1783169815945827800,3.351827880859375,-0.011728831566870213,0.015397319570183754,0.0007256423123180866
1783169815955898000,3.361898193359375,-0.014884211122989655,0.02416388690471649,-0.009394409134984016
1783169815965968000,3.3719677734375,-0.008603678084909916,0.023389171808958054,-0.011281258426606655
1783169815976037000,3.382037109375,-0.009389765560626984,0.020459594205021858,-0.005175738595426083
1783169815986107100,3.392107177734375,-0.008470442146062851,0.010300167836248875,-0.0026396100874990225
1783169815996177000,3.402177001953125,-0.0062552145682275295,0.010692588053643703,-0.0035299870651215315
1783169816006246100,3.41224609375,-0.010629190132021904,0.00032277125865221024,0.000284191919490695
1783169816016316000,3.42231591796875,-0.00964578427374363,-0.0062367673963308334,0.0027552798856049776
1783169816026386000,3.432385986328125,-0.007891027256846428,-0.01322836335748434,0.0028572790324687958
1783169816036455000,3.442454833984375,-0.0032869100105017424,-0.013661377131938934,0.002225248608738184
1783169816046525000,3.45252490234375,0.0010622984264045954,-0.02614414319396019,0.00487882224842906
1783169816056595200,3.46259521484375,-0.0032086127903312445,-0.03667721152305603,0.008974498137831688
1783169816066665000,3.4726650390625,-0.0041060978546738625,-0.03770466148853302,0.00784451887011528
1783169816076734000,3.48273388671875,-0.0019435894209891558,-0.0378577820956707,0.0029806233942508698
1783169816086804000,3.492803955078125,-0.0011611527297645807,-0.03791104629635811,-0.0003890739753842354
1783169816096874000,3.5028740234375,-0.005421455018222332,-0.03163212910294533,0.000418458366766572
1783169816106943000,3.51294287109375,-0.0058153364807367325,-0.02033659815788269,-0.001093418337404728
1783169816117013000,3.523012939453125,-0.003486891044303775,-0.009807772934436798,-0.005815265234559774
1783169816127083000,3.5330830078125,-0.0036189842503517866,-0.0038604019209742546,-0.0018333066254854202
1783169816137152000,3.543152099609375,-0.006137535907328129,-0.003235624171793461,-0.003461030311882496
1783169816147222000,3.553221923828125,-0.013040715828537941,-0.004034039564430714,-0.007068016100674868
1783169816157291800,3.563291748046875,-0.017161093652248383,-0.005386474542319775,-0.010545697994530201
1783169816167361000,3.573361083984375,-0.014513644389808178,-0.005779556930065155,-0.0023583422880619764
1783169816177431000,3.58343115234375,-0.010669280774891376,-0.008001930080354214,0.002018710132688284
1783169816187501000,3.5935009765625,-0.002260083332657814,-0.003490268252789974,-0.0020732369739562273
1783169816197570000,3.603570068359375,-0.001229307847097516,0.003994601313024759,-0.005536064505577087
1783169816207639800,3.613639892578125,-0.0026535666547715664,0.002784993499517441,0.0009442055597901344
1783169816217710000,3.6237099609375,-0.0053024897351861,0.004604005720466375,0.0037141607608646154
1783169816227778800,3.63377880859375,-0.008357401937246323,0.008100735954940319,0.0015040033031255007
1783169816237849000,3.64384912109375,-0.008834540843963623,0.012798726558685303,-0.003037157701328397
1783169816247919000,3.653919189453125,-0.012050307355821133,0.006809011101722717,-0.006777034141123295
1783169816257988900,3.66398876953125,-0.011342495679855347,0.003823184873908758,-0.0007525542750954628
1783169816268058000,3.67405810546875,-0.008674805983901024,-0.0004887394607067108,0.007212694268673658
1783169816278127900,3.6841279296875,-0.0048674410209059715,-0.0027316072955727577,0.0024541355669498444
1783169816288198000,3.694197998046875,-0.0032895179465413094,-0.0029007187113165855,0.0011571762152016163
1783169816298267000,3.704266845703125,-0.00779032614082098,-0.0036397725343704224,0.007457111030817032
1783169816308337000,3.7143369140625,-0.005830772221088409,0.0024908240884542465,0.00616441247984767
1783169816318407200,3.7244072265625,-0.003514477051794529,0.006599898915737867,0.000002491287887096405
1783169816328476000,3.734475830078125,-0.001997807063162327,0.008763983845710754,0.0036824471317231655
1783169816338546000,3.7445458984375,0.0018218869809061289,0.011016162112355232,0.008483531884849072
1783169816348616000,3.754615966796875,0.0007686067838221788,0.00938204675912857,0.006662995554506779
1783169816358685000,3.764684814453125,-0.0009560007601976395,0.014880722388625145,0.006714618299156427
1783169816368755200,3.774755126953125,-0.010299434885382652,0.010991974733769894,0.008302927948534489
1783169816378825000,3.784824951171875,-0.017172731459140778,0.014524281024932861,0.016883758828043938
1783169816388894200,3.794894287109375,-0.015193204395473003,0.012034225277602673,0.019347980618476868
1783169816398964000,3.8049638671875,-0.012662824243307114,0.00933888554573059,0.013467701151967049
1783169816409034000,3.815033935546875,-0.006395873613655567,0.0030492981895804405,0.010971520096063614
1783169816419103000,3.82510302734375,0.00021027540788054466,-0.002490646205842495,0.01763167604804039
1783169816429173000,3.835173095703125,0.0001295816618949175,-0.005823858082294464,0.024032585322856903
1783169816439243000,3.845242919921875,-0.0026115986984223127,-0.00777848158031702,0.021804235875606537
1783169816449313000,3.85531298828125,-0.005893944762647152,-0.013109331019222736,0.017833728343248367
1783169816459382000,3.865382080078125,-0.004637610167264938,-0.006558570079505444,0.02365742437541485
1783169816469452000,3.8754521484375,0.0002418335061520338,-0.0020778020843863487,0.024109629914164543
1783169816479522000,3.88552197265625,-0.00006009102798998356,-0.0011720042675733566,0.028174208477139473
1783169816489590800,3.8955908203125,0.0051831407472491264,0.003545519430190325,0.0277254655957222
1783169816499661000,3.9056611328125,0.006804761476814747,0.0031708218157291412,0.023139338940382004
1783169816509731000,3.91573095703125,0.00760930310934782,0.002996650990098715,0.020504940301179886
1783169816519800000,3.925800048828125,0.004041543696075678,0.001449519768357277,0.02042660303413868
1783169816529870000,3.9358701171875,0.0020921097602695227,0.007431778125464916,0.023237835615873337
1783169816539939800,3.94593994140625,0.007410919759422541,0.012425314635038376,0.014719591476023197
1783169816550009000,3.956009033203125,0.011950544081628323,0.008234565146267414,0.005123423412442207
1783169816560079000,3.9660791015625,0.01596973091363907,0.005767256952822208,0.011128194630146027
1783169816570148900,3.97614892578125,0.014718310907483101,0.002171989530324936,0.017985567450523376
1783169816580218000,3.986218017578125,0.010898329317569733,-0.005940110422670841,0.027850840240716934
1783169816590288000,3.996287841796875,0.005884129554033279,-0.006798979826271534,0.028981352224946022
1783169816600358000,4.00635791015625,0.003879823023453355,0.00021112151443958282,0.023650584742426872
1783169816610428200,4.01642822265625,0.0033490550704300404,0.010981211438775063,0.023195717483758926
1783169816620497000,4.026496826171875,0.00520436791703105,0.020674381405115128,0.02661779336631298
1783169816630567200,4.036567138671875,0.008251557126641273,0.017287906259298325,0.02745375968515873
1783169816640637000,4.046636962890625,0.0029379408806562424,0.015680789947509766,0.027859138324856758
1783169816650706200,4.0567060546875,0.006524153985083103,0.01206395123153925,0.020878460258245468
1783169816660776000,4.06677587890625,0.007854591123759747,0.011397729627788067,0.01304507814347744
1783169816670846000,4.076845947265625,0.008323307149112225,0.00810446497052908,0.01677110604941845
1783169816680915000,4.0869150390625,0.007607948500663042,0.004778296686708927,0.022426839917898178
1783169816690985000,4.09698486328125,0.006622312590479851,0.00685849180445075,0.015844039618968964
1783169816701055000,4.107054931640625,0.009152127429842949,0.008353222161531448,0.021940508857369423
1783169816711124000,4.1171240234375,0.009902872145175934,0.011957810260355473,0.022133586928248405
1783169816721194000,4.127194091796875,0.011109540238976479,0.016492504626512527,0.02380933053791523
1783169816731264000,4.137263916015625,0.009273556992411613,0.02118765562772751,0.019789554178714752
1783169816741333000,4.1473330078125,0.00941769964993,0.022082239389419556,0.011511425487697124
1783169816751403000,4.157403076171875,0.00506849167868495,0.021493948996067047,0.008219225332140923
1783169816761473000,4.16747314453125,0.004020126536488533,0.009988101199269295,0.00601998483762145
1783169816771542000,4.1775419921875,0.002107977168634534,0.003989863209426403,0.007464483380317688
1783169816781612000,4.187612060546875,-0.0000049299560487270355,-0.0063865939155220985,0.013874387368559837
1783169816791682000,4.19768212890625,0.0005359580973163247,-0.010405302979052067,0.02139968052506447
1783169816801752000,4.207751953125,0.0001729355426505208,-0.014745604246854782,0.02218662202358246
1783169816811821000,4.217821044921875,-0.0042252750135958195,-0.014057975262403488,0.02641012892127037
1783169816821891000,4.22789111328125,-0.0066917529329657555,-0.02107532136142254,0.033351484686136246
1783169816831960800,4.2379609375,-0.007646496407687664,-0.023821573704481125,0.022044768556952477
1783169816842030000,4.248030029296875,-0.007164284121245146,-0.020691752433776855,0.025424351915717125
1783169816852101400,4.258101318359375,-0.010237837210297585,-0.01934286206960678,0.027766335755586624
1783169816862171400,4.26817138671875,-0.009190862998366356,-0.02029634639620781,0.019603181630373
1783169816872240400,4.278240478515625,-0.009381012991070747,-0.024593621492385864,0.00726715475320816
1783169816882310400,4.288310302734375,-0.010490905493497849,-0.01682540401816368,0.013828905299305916
1783169816892380200,4.298380126953125,-0.004887614399194717,-0.025868168100714684,0.024520965293049812
1783169816902449400,4.308449462890625,-0.0017730924300849438,-0.03220251202583313,0.021787021309137344
1783169816912519200,4.318519287109375,-0.001793864881619811,-0.03377031534910202,0.017041536048054695
1783169816922589200,4.328589111328125,0.00034752802457660437,-0.035717666149139404,0.013744853436946869
1783169816932658400,4.338658447265625,-0.0009741988033056259,-0.02979665994644165,0.01862349919974804
1783169816942728200,4.348728271484375,0.00468947971239686,-0.023935869336128235,0.02441743202507496
1783169816952798500,4.358798583984375,0.006818943191319704,-0.012831819243729115,0.018989376723766327
1783169816962867200,4.3688671875,0.008608797565102577,-0.013849037699401379,0.012281816452741623
1783169816972937500,4.3789375,0.0104652876034379,-0.006946655921638012,0.00674483785405755
1783169816983007500,4.389007568359375,0.005330911837518215,-0.004218541085720062,0.01010463759303093
1783169816993076200,4.399076171875,-0.0003855631221085787,-0.0016065128147602081,0.010313961654901505
1783169817003146500,4.409146484375,-0.001108577474951744,0.0035569709725677967,0.005353580694645643
1783169817013216300,4.41921630859375,0.0067533403635025024,0.007871025241911411,-0.0013898091856390238
1783169817023285500,4.429285400390625,0.00773874344304204,0.009328720159828663,-0.0016233469359576702
1783169817033355300,4.439355224609375,0.004444679245352745,0.0024668192490935326,0.01612049713730812
1783169817043425300,4.44942529296875,-0.0018396377563476562,0.004316228907555342,0.024359392002224922
1783169817053495300,4.459495361328125,-0.0004683760926127434,0.0032451055012643337,0.022035783156752586
1783169817063564300,4.469564208984375,0.005153868347406387,0.007182607892900705,0.008149471133947372
1783169817073634300,4.47963427734375,0.006748036481440067,0.0015702620148658752,0.008082624524831772
1783169817083704300,4.489704345703125,0.006606719456613064,-0.0023418553173542023,0.017793459817767143
1783169817093773300,4.499773193359375,0.00800328142940998,-0.005024191923439503,0.020632656291127205
1783169817103843300,4.50984326171875,0.010132092982530594,-0.00549617875367403,0.01780359260737896
1783169817113913300,4.519913330078125,0.011966744437813759,-0.012819604948163033,0.01733247935771942
1783169817123982300,4.529982421875,0.012955620884895325,-0.01147149596363306,0.022922661155462265
1783169817134052400,4.54005224609375,0.012304478324949741,-0.011618767865002155,0.02324783243238926
1783169817144122400,4.550122314453125,0.00859032105654478,-0.012618829496204853,0.022277390584349632
1783169817154191400,4.56019140625,0.00924971979111433,-0.014874261803925037,0.027780547738075256
1783169817164261400,4.570261474609375,0.010811375454068184,-0.00907044392079115,0.036290839314460754
1783169817174331400,4.580331298828125,0.013213280588388443,-0.018710289150476456,0.04306884855031967
1783169817184400400,4.590400390625,0.01479293592274189,-0.015163701958954334,0.03816819190979004
1783169817194470400,4.600470458984375,0.01449652574956417,-0.017922472208738327,0.024957049638032913
1783169817204540200,4.6105400390625,0.02052956074476242,-0.01504575926810503,0.015938905999064445
1783169817214609400,4.620609375,0.024706196039915085,-0.020020276308059692,0.017336266115307808
1783169817224679200,4.63067919921875,0.021155890077352524,-0.025273382663726807,0.024260010570287704
1783169817234749400,4.64074951171875,0.01819472201168537,-0.01958140730857849,0.013603371568024158
1783169817244819500,4.6508193359375,0.014880486764013767,-0.011843832209706306,0.006229923106729984
1783169817254888200,4.66088818359375,0.007069434970617294,-0.008336182683706284,0.011912310495972633
1783169817264958500,4.67095849609375,0.004239537753164768,-0.00776521023362875,0.01951206848025322
1783169817275028200,4.6810283203125,-0.0006420365534722805,-0.005561177618801594,0.017789803445339203
1783169817285097500,4.691097412109375,0.002287950599566102,-0.0012878784909844398,0.013141150586307049
1783169817295167500,4.70116748046875,0.00717245414853096,-0.009556728415191174,0.020537281408905983
1783169817305237200,4.7112373046875,0.010239950381219387,-0.014647865667939186,0.025406118482351303
1783169817315306500,4.721306396484375,0.010935834608972073,-0.027627313509583473,0.028912436217069626
1783169817325376300,4.731376220703125,0.013385177589952946,-0.034984149038791656,0.02532225102186203
1783169817335446300,4.7414462890625,0.01854798197746277,-0.033294107764959335,0.018851302564144135
1783169817345515300,4.751515380859375,0.019321119412779808,-0.03245493769645691,0.016635920852422714
1783169817355585300,4.761585205078125,0.01746569387614727,-0.02282068505883217,0.019578181207180023
1783169817365655300,4.7716552734375,0.020872633904218674,-0.011360321193933487,0.023537829518318176
1783169817375724300,4.781724365234375,0.01688321679830551,-0.0041809724643826485,0.012045489624142647
1783169817385794300,4.791794189453125,0.017054125666618347,0.004813294857740402,0.006934572942554951
1783169817395864300,4.8018642578125,0.015837326645851135,0.0084152203053236,0.0053502582013607025
1783169817405933300,4.811933349609375,0.013907800428569317,0.011458495631814003,0.009967242367565632
1783169817416003300,4.82200341796875,0.01359301432967186,0.007423806469887495,0.016133258119225502
1783169817426073300,4.8320732421875,0.014801878482103348,0.0006967089138925076,0.017047209665179253
1783169817436142300,4.842142333984375,0.01697554998099804,-0.0016977395862340927,0.015080997720360756
1783169817446212400,4.85221240234375,0.014847507700324059,-0.010897060856223106,0.027845144271850586
1783169817456282400,4.862282470703125,0.017190290614962578,-0.018354443833231926,0.03292778879404068
1783169817466351400,4.872351318359375,0.016578417271375656,-0.018089385703206062,0.02574336715042591
1783169817476421400,4.88242138671875,0.01906660757958889,-0.011588608846068382,0.0208095945417881
1783169817486491400,4.892491455078125,0.01084363367408514,-0.008080665953457355,0.022022711113095284
1783169817496560400,4.902560302734375,0.005721042864024639,-0.0033066831529140472,0.012637732550501823
1783169817506630400,4.91263037109375,0.007521883584558964,-0.0017816191539168358,0.009518823586404324
1783169817516700200,4.9227001953125,0.008998339995741844,-0.0021131830289959908,0.011072778142988682
1783169817526770400,4.9327705078125,0.00968735571950674,-0.004224115051329136,0.01584502123296261
1783169817536839200,4.942839111328125,0.008020482957363129,-0.011132622137665749,0.02114151604473591
1783169817546909400,4.952909423828125,0.0044107455760240555,-0.013533763587474823,0.021615412086248398
1783169817556979500,4.9629794921875,-0.0027928389608860016,-0.019002297893166542,0.021346166729927063
1783169817567048200,4.973048095703125,-0.0022763959132134914,-0.016456160694360733,0.025210270658135414
1783169817577118500,4.983118408203125,-0.0012183221988379955,-0.017270555719733238,0.021720997989177704
1783169817587188200,4.993188232421875,0.0022285166196525097,-0.037988387048244476,0.013146534562110901
1783169817597257500,5.003257568359375,-0.0008237322326749563,-0.027829226106405258,0.026528120040893555
1783169817607327200,5.0133271484375,-0.0010774298571050167,-0.03137291967868805,0.028882157057523727
1783169817617397200,5.023397216796875,-0.0035043684765696526,-0.03985455632209778,0.029451541602611542
1783169817627466500,5.033466552734375,-0.004285955801606178,-0.025753069669008255,0.0318312793970108
1783169817637536300,5.043536376953125,0.0013362434692680836,-0.029488686472177505,0.027987273409962654
1783169817647606300,5.053606201171875,0.0010315162362530828,-0.03058929182589054,0.02157159522175789
1783169817657675300,5.06367529296875,-0.0006124530918896198,-0.028608964756131172,0.015846863389015198
1783169817667745300,5.073745361328125,-0.0035819795448333025,-0.031095732003450394,0.012651000171899796
1783169817677815600,5.083815673828125,-0.008718417957425117,-0.02510787919163704,0.009140955284237862
1783169817687884300,5.09388427734375,-0.010690789669752121,-0.016665540635585785,0.01502145640552044
1783169817697954300,5.103954345703125,-0.01219201274216175,-0.01431237068027258,0.026546552777290344
1783169817708024300,5.1140244140625,-0.018573634326457977,-0.01299832109361887,0.027560142800211906
1783169817718093300,5.12409326171875,-0.013538926839828491,-0.020162489265203476,0.022902006283402443
1783169817728163300,5.134163330078125,-0.009410160593688488,-0.019602401182055473,0.01192396879196167
1783169817738233300,5.1442333984375,-0.004456947557628155,-0.017674006521701813,0.010193180292844772
1783169817748302300,5.15430224609375,-0.0022583091631531715,-0.016022339463233948,0.009184330701828003
1783169817758372400,5.164372314453125,0.0019580074585974216,-0.01191787701100111,0.012522603385150433
1783169817768442400,5.1744423828125,-0.0010698537807911634,-0.0108183017000556,0.01858130469918251
1783169817778512100,5.18451220703125,-0.001062130555510521,-0.009010015986859798,0.011824864894151688
1783169817788581400,5.194581298828125,0.003089895937591791,-0.006661844439804554,0.006529632955789566
1783169817798651100,5.204651123046875,0.003171921242028475,-0.004996569827198982,0.006882235407829285
1783169817808721400,5.214721435546875,-0.00009095005225390196,-0.004399875178933144,0.024764584377408028
1783169817818790400,5.224790283203125,-0.005759754683822393,-0.007570900954306126,0.034007083624601364
1783169817828860200,5.234860107421875,-0.01078236848115921,-0.013388372957706451,0.039602991193532944
1783169817838930400,5.244930419921875,-0.010055324994027615,-0.01957462914288044,0.034543249756097794
1783169817848998700,5.25499853515625,-0.005995721556246281,-0.017375731840729713,0.030076872557401657
1783169817859068400,5.265068359375,0.00003234331961721182,-0.01916217990219593,0.029324796050786972
1783169817869138400,5.275138427734375,-0.004874065984040499,-0.019559819251298904,0.03900081291794777
1783169817879207400,5.28520751953125,-0.0019243485294282436,-0.013714444823563099,0.04254574701189995
1783169817889277400,5.29527734375,0.0066561009734869,-0.02088353782892227,0.03796689584851265
1783169817899347500,5.305347412109375,0.0060494327917695045,-0.013226151466369629,0.025360289961099625
1783169817909416400,5.31541650390625,0.004584280773997307,-0.0014346633106470108,0.02157112956047058
1783169817919486500,5.325486572265625,0.002128846012055874,0.021777182817459106,0.022751443088054657
1783169817929555500,5.335555419921875,0.0013566320994868875,0.03438742458820343,0.01509226392954588
1783169817939625500,5.34562548828125,0.0016152251046150923,0.03617839887738228,0.007949398830533028
1783169817949694500,5.355694580078125,0.004865102935582399,0.03721437603235245,-0.0016946017276495695
1783169817959764500,5.365764404296875,0.00462994584813714,0.03398449718952179,-0.0007201510015875101
1783169817969834500,5.37583447265625,-0.0022578672505915165,0.02191195636987686,0.005099688656628132
1783169817979903500,5.385903564453125,-0.006518125534057617,0.01446868758648634,-0.0014152021612972021
1783169817989973500,5.395973388671875,-0.003365707816556096,0.0034782341681420803,0.0011222818866372108
1783169818000043500,5.40604345703125,-0.0009401005227118731,-0.001387626864016056,0.003210466355085373
1783169818010112500,5.416112548828125,0.005617179442197084,-0.004804711788892746,0.0026615308597683907
1783169818020182300,5.426182373046875,0.009267307817935944,-0.010705743916332722,-0.0003502380568534136
1783169818030252500,5.43625244140625,0.011340834200382233,-0.010116790421307087,-0.0032535346690565348
1783169818040321300,5.4463212890625,0.016905775293707848,-0.0044099027290940285,-0.001630604499951005
1783169818050391600,5.4563916015625,0.015068392269313335,0.004981175996363163,0.00719586294144392
1783169818060461600,5.466461669921875,0.01982905901968479,0.01491663046181202,0.006760169751942158
1783169818070530300,5.4765302734375,0.021334566175937653,0.021841924637556076,-0.004225531592965126
1783169818080600600,5.4866005859375,0.0174612645059824,0.021635262295603752,0.0008741558995097876
1783169818090670300,5.49667041015625,0.007806575391441584,0.02163582295179367,0.01000911183655262
1783169818100739600,5.506739501953125,0.006993778981268406,0.024536538869142532,0.01082670222967863
1783169818110809600,5.5168095703125,0.006701702252030373,0.02304655686020851,0.0054910979233682156
1783169818120879400,5.52687939453125,0.01159606035798788,0.018787361681461334,0.0010334989055991173
1783169818130949400,5.536949462890625,0.013150797225534916,0.016646545380353928,-0.0023480968084186316
1783169818141018400,5.547018310546875,0.014570794068276882,0.02375265769660473,-0.0013528733979910612
1783169818151088400,5.55708837890625,0.015818916261196136,0.02759835496544838,-0.0031151550356298685
1783169818161158700,5.56715869140625,0.017197368666529655,0.02801886945962906,0.0007853105198591948
1783169818171227400,5.577227294921875,0.01569446735084057,0.028711393475532532,0.010640637017786503
1783169818181297700,5.587297607421875,0.013823863118886948,0.019776221364736557,0.015929408371448517
1783169818191367400,5.597367431640625,0.010383104905486107,0.009730528108775616,0.018365345895290375
1783169818201436400,5.6074365234375,0.008065089583396912,0.009297232143580914,0.020946213975548744
1783169818211506400,5.61750634765625,0.008208945393562317,0.003899289295077324,0.021899834275245667
1783169818221576400,5.627576416015625,0.010846540331840515,-0.0010011931881308556,0.020806342363357544
1783169818231645400,5.6376455078125,0.010424314998090267,0.0011236979626119137,0.02789382077753544
1783169818241715500,5.647715576171875,0.015932265669107437,0.006220455747097731,0.03817868232727051
1783169818251785500,5.657785400390625,0.014421232976019382,0.01079258881509304,0.04224846884608269
1783169818261854500,5.6678544921875,0.016270000487565994,0.01860443875193596,0.04191051423549652
1783169818271924500,5.677924560546875,0.016786839812994003,0.027487516403198242,0.035926688462495804
1783169818281994200,5.687994140625,0.015139940194785595,0.03455447778105736,0.02152271568775177
1783169818292065300,5.698065185546875,0.020719284191727638,0.0491185188293457,0.025182003155350685
1783169818302134500,5.708134521484375,0.020279331132769585,0.05506615713238716,0.043768737465143204
1783169818312204300,5.718204345703125,0.017579128965735435,0.07121848315000534,0.0532233864068985
1783169818322274600,5.728274658203125,0.012183831073343754,0.08056777715682983,0.044956933706998825
1783169818332344600,5.738344482421875,0.008905871771275997,0.07950349152088165,0.020386258140206337
1783169818342413300,5.748413330078125,0.005310338456183672,0.0769180953502655,0.002038409234955907
1783169818352483600,5.758483642578125,0.0026646116748452187,0.06645631790161133,-0.007124024443328381
1783169818362553300,5.76855322265625,0.013391025364398956,0.05869320034980774,-0.022465430200099945
1783169818372622600,5.77862255859375,0.022070620208978653,0.04872065782546997,-0.015193703584372997
1783169818382692400,5.7886923828125,0.03046703338623047,0.035332679748535156,-0.0006046406924724579
1783169818392762400,5.798762451171875,0.03433709219098091,0.022352684289216995,-0.006567935459315777
1783169818402831600,5.80883154296875,0.03871586173772812,0.010636905208230019,-0.02365531027317047
1783169818412901400,5.8189013671875,0.035492174327373505,-0.004040814936161041,-0.017488710582256317
1783169818422971400,5.828971435546875,0.03035307303071022,-0.007713313214480877,0.011227089911699295
1783169818433040400,5.839040283203125,0.021601960062980652,-0.008455656468868256,0.03136380761861801
1783169818443110400,5.8491103515625,0.015742206946015358,-0.008261779323220253,0.021084539592266083
1783169818453180700,5.8591806640625,0.017389602959156036,-0.006241651251912117,-0.0008178551215678453
1783169818463249400,5.86924951171875,0.00874285213649273,-0.006354568526148796,-0.006052563898265362
1783169818473319400,5.8793193359375,0.002671389142051339,-0.004931238479912281,0.00895320251584053
1783169818483389400,5.889389404296875,-0.004803304560482502,-0.0034726252779364586,0.01659807190299034
1783169818493458400,5.89945849609375,-0.0011505133006721735,-0.002777540124952793,0.006217602640390396
1783169818503528400,5.909528564453125,0.0015118488809093833,-0.00004194118082523346,-0.003365516196936369
1783169818513598500,5.919598388671875,0.002126761246472597,0.003139333799481392,0.004128700587898493
1783169818523667500,5.92966748046875,0.002209052909165621,0.003342266660183668,0.021087976172566414
1783169818533737500,5.939737548828125,0.001294200075790286,0.007270273752510548,0.024976328015327454
1783169818543807500,5.949807373046875,0.006585102062672377,0.014768403954803944,0.014428345486521721
1783169818553876500,5.95987646484375,0.009459162130951881,0.017914120107889175,0.009881158359348774
1783169818563946500,5.969946533203125,0.0066511258482933044,0.01384800672531128,0.012396248057484627
1783169818574016500,5.9800166015625,0.005239452701061964,0.005871865898370743,0.02204279974102974
1783169818584086500,5.99008642578125,0.007450941484421492,-0.0016025621443986893,0.019193749874830246
1783169818594155500,6.000155517578125,0.009821537882089615,-0.0011819731444120407,0.0037143707741051912
1783169818604225300,6.010225341796875,0.0087666604667902,-0.014225336723029613,-0.004323315806686878
1783169818614295600,6.020295654296875,0.002447291277348995,-0.0239461250603199,0.011904601939022541
1783169818624364300,6.0303642578125,0.001636624918319285,-0.0313960500061512,0.027892358601093292
1783169818634434600,6.0404345703125,0.005277200601994991,-0.02903767302632332,0.017507651820778847
1783169818644504600,6.050504638671875,0.00947780441492796,-0.031910691410303116,-0.00434225145727396
1783169818654573600,6.060573486328125,0.012851945124566555,-0.03737463057041168,-0.0028710816986858845
1783169818664643600,6.0706435546875,0.016964398324489594,-0.047068268060684204,0.01455877535045147
1783169818674713300,6.08071337890625,0.017824532464146614,-0.045336175709962845,0.01775931566953659
1783169818684782600,6.090782470703125,0.01719256304204464,-0.039618369191884995,0.007703485433012247
1783169818694852400,6.100852294921875,0.018119797110557556,-0.03229111433029175,0.005339961498975754
1783169818704922400,6.11092236328125,0.01182115450501442,-0.018199527636170387,0.020991625264286995
1783169818714991600,6.12099169921875,0.00921361893415451,-0.0015208292752504349,0.023932261392474174
1783169818725061400,6.131061279296875,0.008550492115318775,0.01228339970111847,0.018478108569979668
1783169818735131400,6.14113134765625,0.007454300299286842,0.022777972742915154,0.011907798238098621
1783169818745200400,6.151200439453125,0.002256076317280531,0.02775275707244873,0.003214441239833832
1783169818755270400,6.1612705078125,-0.000721166143193841,0.03271282836794853,-0.006585867144167423
1783169818765340700,6.171340576171875,0.0049287304282188416,0.0311996191740036,-0.012393956072628498
1783169818775409400,6.181409423828125,0.00843958929181099,0.02735205367207527,-0.0071087428368628025
1783169818785479400,6.1914794921875,0.0056565855629742146,0.01734016463160515,0.001267964020371437
1783169818795549400,6.201549560546875,0.007175106555223465,0.0034878309816122055,-0.0029964586719870567
1783169818805618400,6.211618408203125,0.007510664872825146,-0.004438535310328007,-0.0027352026663720608
1783169818815688400,6.2216884765625,0.0062579018995165825,-0.009424910880625248,0.007002992555499077
1783169818825758500,6.231758544921875,0.00542992539703846,-0.01830282434821129,0.017753373831510544
1783169818835828500,6.241828369140625,0.003961275331676006,-0.01932874321937561,0.012210226617753506
1783169818845896700,6.251896728515625,0.004662752151489258,-0.02463429421186447,0.006507334299385548
1783169818855966700,6.261966796875,0.004037568345665932,-0.02742936834692955,0.001377202570438385
1783169818866037000,6.272037109375,0.0008724012295715511,-0.030326884239912033,0.007296344265341759
1783169818876105700,6.282105712890625,-0.0023616249673068523,-0.03235427290201187,0.005509873852133751
1783169818886175700,6.29217578125,0.005501091945916414,-0.026665762066841125,0.003120485693216324
1783169818896245800,6.302245849609375,0.00936457421630621,-0.01597781665623188,0.003203602973371744
1783169818906314800,6.312314697265625,0.0062233759090304375,-0.01771419867873192,0.014650136232376099
1783169818916385000,6.322385009765625,0.002134263515472412,-0.009090150706470013,0.01814432628452778
1783169818926454800,6.332454833984375,-0.0037947320379316807,0.00011719577014446259,0.012783916667103767
1783169818936524000,6.34252392578125,-0.004751696716994047,0.007021406199783087,0.012269506230950356
1783169818946593800,6.35259375,-0.007340289652347565,0.01843118667602539,0.017367063090205193
1783169818956663800,6.362663818359375,-0.0034985996317118406,0.024035973474383354,0.006033683195710182
1783169818966732800,6.37273291015625,0.0026165510062128305,0.03051491267979145,0.0027545331977307796
1783169818976802800,6.382802734375,0.005928134545683861,0.03145618364214897,0.01051671989262104
1783169818986872800,6.392872802734375,0.008087958209216595,0.03247004747390747,0.013301587663590908
1783169818996941800,6.40294189453125,0.005680889822542667,0.0278231929987669,0.004400427453219891
1783169819007011800,6.41301171875,0.0069605386815965176,0.01982039399445057,-0.003164547961205244
1783169819017081900,6.423081787109375,0.005954940803349018,0.009269087575376034,-0.0007235747762024403
1783169819027150800,6.43315087890625,0.007506231777369976,-0.0011292248964309692,0.005535652860999107
1783169819037220600,6.443220703125,0.005179089494049549,-0.010505740530788898,0.01550888642668724
1783169819047291000,6.453290771484375,0.004793464206159115,-0.008461232297122478,0.01610996201634407
1783169819057360000,6.46335986328125,0.003629016224294901,-0.011188086122274399,0.012226282618939877
1783169819067430000,6.473429931640625,0.0026556309312582016,-0.010388338938355446,0.009890690445899963
1783169819077500000,6.4835,0.0023302268236875534,-0.009267001412808895,0.015161378309130669
1783169819087568600,6.493568603515625,-0.002392623107880354,-0.008297611959278584,0.013675333932042122
1783169819097639000,6.503638916015625,-0.006631795782595873,-0.0037491489201784134,0.01052074320614338
1783169819107709000,6.513708984375,-0.011610042303800583,-0.00031739939004182816,0.0005482700653374195
1783169819117778000,6.52377783203125,-0.012991426512598991,-0.0028748661279678345,-0.004795077256858349
1783169819127848000,6.533847900390625,-0.01358637586236,-0.004035205580294132,-0.008247865363955498
1783169819137917700,6.543917724609375,-0.003926847130060196,-0.00696202740073204,-0.010969719849526882
1783169819147987000,6.553987060546875,0.0028769965283572674,-0.006244571879506111,-0.013184139505028725
1783169819158056700,6.564056640625,0.002874355996027589,-0.007371613755822182,-0.013221850618720055
1783169819168126700,6.574126708984375,-0.005467463284730911,-0.01644899696111679,-0.010149096138775349
1783169819178195700,6.58419580078125,-0.01240183599293232,-0.019183678552508354,-0.01517530344426632
1783169819188265700,6.594265625,-0.018746817484498024,-0.015699464827775955,-0.012383779510855675
1783169819198336000,6.6043359375,-0.019830385223031044,-0.013063674792647362,-0.0064102765172719955
1783169819208404700,6.61440478515625,-0.018468711525201797,-0.015989156439900398,-0.011320079676806927
1783169819218474800,6.624474853515625,-0.013221891596913338,-0.013338597491383553,-0.025941714644432068
1783169819228544800,6.634544677734375,-0.012070074677467346,-0.025047453120350838,-0.0298637505620718
1783169819238614800,6.64461474609375,-0.010520405136048794,-0.02947469800710678,-0.02904387004673481
1783169819248684000,6.65468408203125,-0.011169949546456337,-0.04055158421397209,-0.01917552761733532
1783169819258753800,6.66475390625,-0.013086661696434021,-0.04974709451198578,-0.016253530979156494
1783169819268823800,6.67482373046875,-0.014050458557903767,-0.045202407985925674,-0.00901506096124649
1783169819278892800,6.684892822265625,-0.017893388867378235,-0.03905756026506424,-0.005065673030912876
1783169819288962800,6.694962890625,-0.021154429763555527,-0.027415018528699875,-0.008242291398346424
1783169819299032800,6.70503271484375,-0.020689882338047028,-0.019908566027879715,-0.01327766664326191
1783169819309101800,6.715101806640625,-0.019175074994564056,-0.01633993163704872,-0.016310740262269974
1783169819319171800,6.725171875,-0.015782000496983528,-0.011259338818490505,-0.015605106018483639
1783169819329241900,6.735241943359375,-0.012465566396713257,-0.009262234903872013,-0.016626428812742233
1783169819339310800,6.745310791015625,-0.006691021844744682,-0.009587801992893219,-0.010856503620743752
1783169819349380600,6.755380615234375,-0.010358461178839207,-0.014559391885995865,0.00046539236791431904
1783169819359451000,6.765450927734375,-0.006486826576292515,-0.017266521230340004,0.0017828063573688269
1783169819369519600,6.77551953125,-0.005631952080875635,-0.018162941560149193,0.0031868249643594027
1783169819379590000,6.78558984375,-0.003973925486207008,-0.01589141972362995,-0.0032999704126268625
1783169819389660000,6.795659912109375,0.0037990424316376448,-0.009882261976599693,-0.005501871928572655
1783169819399729000,6.80572900390625,-0.0006100526079535484,-0.0006832918152213097,-0.011655610986053944
1783169819409799000,6.815798828125,-0.0010287014301866293,0.008539767935872078,-0.012666280381381512
1783169819419869000,6.825868896484375,-0.004825350362807512,0.016304727643728256,-0.01225610077381134
1783169819429938000,6.83593798828125,-0.007397165056318045,0.026785865426063538,-0.014223378151655197
1783169819440008000,6.846008056640625,-0.0041453642770648,0.03009767085313797,-0.011695532128214836
1783169819450077700,6.85607763671875,0.0006184984231367707,0.030730171129107475,-0.012275301851332188
1783169819460147000,6.86614697265625,0.0033383388072252274,0.029484592378139496,-0.018247652798891068
1783169819470216700,6.876216796875,0.004781772382557392,0.0285428985953331,-0.014066223986446857
1783169819480286700,6.88628662109375,0.0038039053324609995,0.02763930708169937,-0.01755794882774353
1783169819490355700,6.896355712890625,0.009113715961575508,0.02299155667424202,-0.016212519258260727
1783169819500425700,6.90642578125,0.010500122793018818,0.013115877285599709,-0.011188492178916931
1783169819510496000,6.91649609375,0.006124016363173723,0.011284155771136284,-0.005931146442890167
1783169819520564700,6.926564697265625,0.0011479465756565332,0.007253211922943592,-0.0007012842688709497
1783169819530635000,6.936635009765625,-0.002253176411613822,0.011665803380310535,-0.009044701233506203
1783169819540704800,6.946704833984375,-0.0023346689995378256,0.011302282102406025,-0.001373465871438384
1783169819550773800,6.956773681640625,-0.000926922308281064,0.005457974970340729,0.0057853772304952145
1783169819560844000,6.966843994140625,0.00203481363132596,0.004371552262455225,-0.005184423178434372
1783169819570913800,6.976913818359375,0.0027176481671631336,-0.004601968452334404,-0.007423609495162964
1783169819580983000,6.986983154296875,0.004987460561096668,-0.00863612536340952,-0.008110172115266323
1783169819591052800,6.997052734375,0.004626335576176643,-0.01176960114389658,-0.006682451814413071
1783169819601121800,7.007121826171875,0.008030654862523079,-0.009678485803306103,-0.005817989818751812
1783169819611191800,7.01719189453125,0.013709845021367073,-0.006267243064939976,-0.006449158303439617
1783169819621261800,7.02726171875,0.012229626066982746,0.0001971665769815445,-0.0036035969387739897
1783169819631331800,7.037331787109375,0.009650621563196182,0.0018746918067336082,-0.0041407570242881775
1783169819641400800,7.04740087890625,0.009616613388061523,0.0031513087451457977,-0.0009117033332586288
1783169819651470800,7.057470947265625,0.01013725996017456,0.002792580984532833,-0.004554375074803829
1783169819661540900,7.067540771484375,0.009373420849442482,0.003622405230998993,-0.011122207157313824
1783169819671609900,7.07760986328125,0.009480745531618595,-0.0035830438137054443,-0.016984358429908752
1783169819681679600,7.0876796875,0.007669402752071619,0.00015665218234062195,-0.009439541026949883
1783169819691748900,7.097748779296875,0.00623315991833806,-0.0022524436935782433,-0.005029879044741392
1783169819701819000,7.10781884765625,0.002846012357622385,-0.003996898420155048,-0.017181431874632835
1783169819711889000,7.117888916015625,0.0007770025404170156,-0.003629116341471672,-0.021624384447932243
1783169819721958000,7.1279580078125,-0.0010796845890581608,-0.0034647732973098755,-0.026430539786815643
1783169819732027600,7.138027587890625,0.0006476416019722819,-0.008488559164106846,-0.02393222786486149
1783169819742098000,7.148097900390625,-0.002746058627963066,-0.014529287815093994,-0.021944202482700348
1783169819752166700,7.158166748046875,-0.00402091396972537,-0.01198064349591732,-0.018263980746269226
1783169819762237000,7.16823681640625,-0.003155269892886281,-0.017310351133346558,-0.012143529951572418
1783169819772307000,7.178306884765625,-0.0017666977364569902,-0.018384670838713646,-0.01504131406545639
1783169819782376000,7.1883759765625,-0.00044054887257516384,-0.013392780907452106,-0.01729733496904373
1783169819792446000,7.198446044921875,-0.0010115306358784437,-0.01022867951542139,-0.017369773238897324
1783169819802515700,7.208515625,-0.004026147071272135,-0.010806654579937458,-0.01897357776761055
1783169819812585000,7.2185849609375,-0.0012751019094139338,-0.0143057806417346,-0.021671626716852188
1783169819822654700,7.22865478515625,-0.0058380113914608955,-0.009433871135115623,-0.01121416687965393
1783169819832724700,7.238724853515625,-0.008825545199215412,-0.015566598623991013,0.007248996291309595
1783169819842794000,7.2487939453125,-0.007472231052815914,-0.018402505666017532,0.004639286547899246
1783169819852864500,7.258864501953125,-0.010165219195187092,-0.01688183844089508,0.002561754547059536
1783169819862934300,7.268934326171875,-0.005099216941744089,-0.015584795735776424,0.0022465118672698736
1783169819873003500,7.27900341796875,-0.0019353816751390696,-0.02124401181936264,-0.001355946296826005
1783169819883073500,7.289073486328125,0.002615012228488922,-0.014849985018372536,-0.0010824354831129313
1783169819893143300,7.299143310546875,0.0011084621073678136,-0.014105897396802902,0.001666745636612177
1783169819903212500,7.309212646484375,0.0035660159774124622,-0.015509255230426788,0.0018937266431748867
1783169819913282300,7.3192822265625,0.006882450543344021,-0.01660780981183052,-0.00017608213238418102
1783169819923352600,7.3293525390625,0.002648417605087161,-0.01440333016216755,0.005504892207682133
1783169819933421300,7.33942138671875,-0.00014976575039327145,-0.00868978351354599,0.006494256667792797
1783169819943491600,7.34949169921875,-0.004205088131129742,0.0008039376698434353,0.008969745598733425
1783169819953561600,7.3595615234375,-0.0037488883826881647,0.010070406831800938,0.00776386633515358
1783169819963630300,7.36963037109375,-0.004320056177675724,0.016210488975048065,-0.0005095365922898054
1783169819973700600,7.37970068359375,-0.0018076295964419842,0.01786297932267189,-0.006844663992524147
1783169819983770400,7.389770263671875,-0.0029094372875988483,0.013391111046075821,-0.01777387596666813
1783169819993839600,7.399839599609375,0.0012387025635689497,-0.0033039795234799385,-0.03992445394396782
1783169820003909400,7.409909423828125,-0.0026918919757008553,-0.013970619067549706,-0.08007056266069412
1783169820013979400,7.4199794921875,-0.006364124361425638,-0.02830667980015278,-0.0636306032538414
1783169820024048600,7.430048583984375,-0.004133668728172779,-0.057682789862155914,-0.06976799666881561
1783169820034118400,7.440118408203125,-0.0146030867472291,-0.05352213606238365,-0.08810146152973175
1783169820044188400,7.4501884765625,-0.0010798454750329256,-0.04541042074561119,-0.0872429683804512
1783169820054257400,7.46025732421875,0.006918159779161215,-0.03722013533115387,-0.04816800355911255
1783169820064327400,7.470327392578125,0.007396023254841566,-0.04527030140161514,-0.02323639579117298
1783169820074397400,7.4803974609375,-0.0014776296447962523,-0.03331616893410683,-0.009072372689843178
1783169820084466400,7.490466552734375,-0.009561782702803612,-0.02549704723060131,-0.0180271714925766
1783169820094536400,7.500536376953125,-0.014162659645080566,-0.01922317035496235,-0.04559195041656494
1783169820104606500,7.5106064453125,-0.01622295193374157,-0.024116788059473038,-0.066414974629879
1783169820114675500,7.520675537109375,-0.01724294200539589,-0.014304104261100292,-0.08117128163576126
1783169820124745500,7.530745361328125,-0.01355406828224659,-0.03569759801030159,-0.07985258847475052
1783169820134815500,7.5408154296875,-0.010637907311320305,-0.012511052191257477,-0.06473461538553238
1783169820144884200,7.55088427734375,-0.007802995853126049,-0.015953727066516876,-0.03715396672487259
1783169820154954500,7.56095458984375,0.0008701211190782487,-0.018840596079826355,-0.020204544067382812
1783169820165024500,7.5710244140625,-0.0014679264277219772,-0.0012798653915524483,-0.017550304532051086
1783169820175093500,7.581093505859375,-0.00736523000523448,-0.002162969671189785,-0.0001675877720117569
1783169820185163500,7.59116357421875,-0.009379206225275993,-0.005513792857527733,0.015215198509395123
1783169820195233300,7.6012333984375,-0.0006661424413323402,0.00020241644233465195,0.017840541899204254
1783169820205302500,7.611302490234375,0.00494028814136982,-0.00714250560849905,0.018933404237031937
1783169820215372500,7.62137255859375,0.0010286369360983372,-0.00912629347294569,0.026221411302685738
1783169820225442300,7.6314423828125,0.0015237529296427965,-0.007745564915239811,0.030528033152222633
1783169820235511600,7.641511474609375,0.0048782704398036,-0.006538885645568371,0.035045020282268524
1783169820245581300,7.651581298828125,0.007306726183742285,-0.0028183478862047195,0.04605269432067871
1783169820255651600,7.661651611328125,0.011613324284553528,0.006191392429172993,0.0441402792930603
1783169820265720300,7.67172021484375,0.011486765928566456,0.010682659223675728,0.02741975337266922
1783169820275790300,7.681790283203125,0.01168916653841734,0.015961576253175735,0.023538194596767426
1783169820285859300,7.691859375,0.006813578307628632,0.018278442323207855,0.017841080203652382
1783169820295929300,7.701929443359375,0.005840458907186985,0.022389564663171768,0.016315888613462448
1783169820305999600,7.71199951171875,0.006555273197591305,0.026854928582906723,0.01753515750169754
1783169820316069400,7.7220693359375,0.008101237937808037,0.03432030230760574,0.016832349821925163
1783169820326138600,7.732138671875,0.010142761282622814,0.037282079458236694,0.019489817321300507
1783169820336208400,7.74220849609375,0.008558979257941246,0.03888130933046341,0.013812224380671978
1783169820346277400,7.75227734375,0.007645723409950733,0.03536418080329895,0.004760007373988628
1783169820356347600,7.76234765625,0.012450331822037697,0.029133718460798264,0.006928885355591774
1783169820366417400,7.77241748046875,0.011235235258936882,0.018544362857937813,0.018368305638432503
1783169820376486700,7.782486572265625,0.005093986634165049,0.012710442766547203,0.015137625858187675
1783169820386556400,7.792556396484375,0.008484086953103542,0.011250058189034462,0.008213594555854797
1783169820396626400,7.80262646484375,0.008639615029096603,0.00874162744730711,0.00946554634720087
1783169820406695400,7.8126953125,0.010704097338020802,0.00501053873449564,0.003357586683705449
1783169820416765400,7.822765380859375,0.011172015219926834,0.007030546199530363,0.0017727394588291645
1783169820426835500,7.83283544921875,0.007986643351614475,0.0034601916559040546,0.002422044984996319
1783169820436904400,7.842904541015625,0.0030994764529168606,0.002749127335846424,0.011280783452093601
1783169820446974500,7.852974365234375,0.0004385721404105425,-0.0024121301248669624,0.0125083914026618
1783169820457044500,7.86304443359375,0.0016820020973682404,-0.003330121748149395,0.01651085540652275
1783169820467113500,7.873113525390625,0.0027707135304808617,-0.0037845857441425323,0.011594847775995731
1783169820477183200,7.883183349609375,0.002183220349252224,-0.006819523870944977,0.003495109500363469
1783169820487253500,7.89325341796875,0.0021874126978218555,-0.006724242120981216,0.004608552437275648
1783169820497322500,7.903322509765625,0.0011080334661528468,-0.005019286647439003,0.0016556391492486
1783169820507392500,7.913392578125,0.0011717871529981494,0.0015453440137207508,0.005839251913130283
1783169820517462500,7.923462646484375,-0.0005587348714470863,0.0013466724194586277,0.007586285471916199
1783169820527531300,7.93353125,0.000872564036399126,-0.0045306142419576645,0.004489030223339796
1783169820537601500,7.9436015625,0.002998565323650837,0.005460767541080713,0.0032261593732982874
1783169820547671600,7.953671630859375,0.007436850108206272,-0.0013833427801728249,0.005031940061599016
1783169820557740500,7.963740478515625,0.006762537639588118,-0.0022035958245396614,0.0035853111185133457
1783169820567810600,7.973810546875,0.0048070489428937435,-0.009224994108080864,0.008970011956989765
1783169820577880300,7.98388037109375,0.0002554403617978096,-0.0133542250841856,0.008976403623819351
1783169820587949600,7.993949462890625,-0.0008341290522366762,-0.00818212702870369,0.015298426151275635
1783169820598019300,8.004019287109376,0.0012346144067123532,0.00321993138641119,0.011994774453341961
1783169820608089300,8.01408935546875,0.0023007362615317106,0.002781196963042021,0.004466952756047249
1783169820618158300,8.024158447265625,-0.005123357754200697,0.010802904143929482,0.0005068324971944094
1783169820628228400,8.034228271484375,-0.009974537417292595,0.007175825536251068,-0.0006151304114609957
1783169820638298600,8.044298583984375,-0.00790366344153881,0.0007988861761987209,0.0040057203732430935
1783169820648367400,8.054367431640625,-0.010770011693239212,-0.0049416860565543175,0.005540420301258564
1783169820658437400,8.064437255859374,-0.0021717301569879055,-0.008759061805903912,0.004796333145350218
1783169820668507400,8.07450732421875,0.0018617080058902502,-0.01429614145308733,0.007285827770829201
1783169820678576400,8.084576416015626,0.004242573864758015,-0.019576922059059143,0.0039696600288152695
1783169820688646700,8.094646728515626,0.0046965619549155235,-0.01822153851389885,0.010828658938407898
1783169820698716400,8.10471630859375,0.0047426349483430386,-0.010348967276513577,0.01340207178145647
1783169820708785400,8.114785400390625,0.005058635026216507,-0.010409197770059109,0.007596110925078392
1783169820718855400,8.12485546875,0.0037691325414925814,-0.0009520472958683968,0.0008910705801099539
1783169820728925400,8.134925537109375,0.002135029062628746,0.002650813665241003,0.006627173628658056
1783169820738994400,8.144994384765624,-0.0009300028905272484,0.005772304721176624,0.007127048913389444
1783169820749064400,8.155064453125,-0.0016481871716678143,0.010641388595104218,-0.0034877231810241938
1783169820759134500,8.165134521484376,0.004441929515451193,0.018797053024172783,-0.004296791739761829
1783169820769203500,8.175203369140625,0.001801926176995039,0.017997700721025467,-0.012659836560487747
1783169820779273500,8.1852734375,0.006505068391561508,0.014623741619288921,-0.010366586968302727
1783169820789342500,8.195342529296875,0.00603583175688982,0.00560268759727478,-0.007409760728478432
1783169820799412500,8.20541259765625,0.0013161774259060621,0.0034407335333526134,-0.011664160527288914
1783169820809482200,8.215482177734375,-0.0019563501700758934,0.0038389964029192924,-0.014429348520934582
1783169820819551500,8.225551513671874,-0.00280962698161602,-0.0006678709760308266,-0.009911561384797096
1783169820829621500,8.23562158203125,-0.005342617630958557,-0.0050055161118507385,-0.005082320421934128
1783169820839691500,8.24569140625,-0.0028770631179213524,-0.009208251722157001,-0.004170454107224941
1783169820849759700,8.255759765625,-0.005399609450250864,-0.015709292143583298,0.0015417598187923431
1783169820859830000,8.265830078125,-0.006304551847279072,-0.01892000064253807,-0.0013613521587103605
1783169820869899800,8.275899658203125,-0.003817425575107336,-0.02252751961350441,-0.002347254427149892
1783169820879968800,8.28596875,0.00022152462042868137,-0.024237267673015594,0.0020448309369385242
1783169820890038800,8.296038818359374,0.004445807076990604,-0.025049006566405296,0.0037736473605036736
1783169820900108800,8.30610888671875,0.008227495476603508,-0.023556573316454887,0.015968794003129005
1783169820910178000,8.316177978515626,0.005375344306230545,-0.01836763322353363,0.013890627771615982
1783169820920247800,8.326247802734375,0.0083210663869977,-0.011143543757498264,0.006088631227612495
1783169820930317800,8.33631787109375,0.00475882226601243,-0.005328265018761158,0.0023684613406658173
1783169820940386800,8.34638671875,0.004582786932587624,0.0005938061513006687,-0.0018153644632548094
1783169820950456800,8.356456787109375,0.0009783711284399033,0.0038942270912230015,0.00871780514717102
1783169820960526800,8.36652685546875,-0.0007510855793952942,0.015579910948872566,0.0029629808850586414
1783169820970595800,8.376595947265624,0.0026073588524013758,0.020655304193496704,-0.00873098149895668
1783169820980665900,8.386665771484376,0.004471837542951107,0.028199240565299988,-0.010188262909650803
1783169820990736000,8.39673583984375,0.010040669701993465,0.02621607854962349,-0.012323664501309395
1783169821000804900,8.406804931640625,0.012403425760567188,0.022897513583302498,-0.006104651838541031
1783169821010874600,8.41687451171875,0.010210219770669937,0.017856648191809654,-0.005610799416899681
1783169821020945000,8.42694482421875,0.010780401527881622,0.01060619205236435,-0.008406319655478
1783169821031013600,8.437013671875,0.00539647601544857,0.0029992074705660343,-0.007290664128959179
1783169821041084000,8.447083984375,0.0007868102402426302,-0.012422891333699226,-0.012580766342580318
1783169821051154000,8.45715380859375,-0.001586472149938345,-0.010788828134536743,-0.01202400866895914
1783169821061223000,8.467222900390626,-0.0017404027748852968,-0.013430951163172722,-0.016119683161377907
1783169821071293000,8.47729296875,0.0010123108513653278,-0.011645806953310966,-0.010161338374018669
1783169821081362700,8.48736279296875,0.0018168517854064703,-0.007622569799423218,-0.006121589802205563
1783169821091432000,8.497431884765625,-0.002163951750844717,-0.00942013505846262,-0.003021013690158725
1783169821101502000,8.507501953125,-0.0074726976454257965,-0.020207267254590988,-0.013937044888734818
1783169821111571700,8.51757177734375,-0.014267518185079098,-0.032265178859233856,-0.042669877409935
1783169821121641000,8.527640869140624,-0.007526524364948273,-0.03739788755774498,-0.06157432869076729
1783169821131710700,8.537710693359376,0.004317590035498142,-0.051377058029174805,-0.012584565207362175
1783169821141780700,8.54778076171875,0.006116555072367191,-0.03605296462774277,0.04140916094183922
1783169821151849700,8.557849609375,0.000630992348305881,-0.04496992379426956,0.05120662599802017
1783169821161919700,8.567919677734375,-0.0003951236139982939,-0.0267815999686718,0.015096294693648815
1783169821171990000,8.577989990234375,-0.0038420299533754587,0.0016511157155036926,-0.008753271773457527
1783169821182058800,8.588058837890625,-0.0038846407551318407,0.011476581916213036,-0.009571128524839878
1783169821192129000,8.59812890625,-0.0023115575313568115,0.022512171417474747,-0.018581880256533623
1783169821202198800,8.60819873046875,-0.0010108696296811104,0.03089340403676033,-0.04431760311126709
1783169821212267800,8.618267822265626,0.0012997675221413374,0.04312310367822647,-0.06263488531112671
1783169821222337800,8.628337890625,-0.0037282807752490044,0.042366769164800644,-0.04419755935668945
1783169821232406800,8.63840673828125,-0.0066596344113349915,0.04210750386118889,0.0004903643857687712
1783169821242477000,8.64847705078125,-0.0021474401000887156,0.046719301491975784,0.040051355957984924
