time,seconds_elapsed,z,y,x
1783170111308137700,0.0771376953125,-0.23050270006656645,0.08970730506256222,0.08208832709197886
1783170111318206500,0.08720654296875,-0.19317688575685024,-0.20277327388077973,0.20258003459731116
1783170111328276700,0.09727685546875,0.2922135985702276,-0.2581317346177995,-0.22343626881167292
1783170111338345500,0.107345458984375,0.7018190663337707,-0.00771174342110753,-0.03572810592264868
1783170111348415500,0.11741552734375,0.7294885790258645,0.07004091995358466,-0.09957601645500398
1783170111358484500,0.127484375,0.590522591406107,0.057904199697077274,-0.168032014437858
1783170111368553700,0.1375537109375,0.4369593386352062,0.06648191229775548,-0.1708303399194963
1783170111378623500,0.14762353515625,0.40329906109571456,0.06652721274420619,-0.09954972210312261
1783170111388692700,0.157692626953125,0.5331523524552584,0.09134060535281896,-0.09445656368257477
1783170111398761500,0.167761474609375,0.7297206342160701,0.07888079062178731,-0.06951952642798423
1783170111408831500,0.17783154296875,0.8200742743581533,0.05099675839617848,-0.04405932381581515
1783170111418900500,0.187900390625,0.814558141285181,-0.01187339314520359,-0.11326921803904696
1783170111428970500,0.197970458984375,0.7238976271510124,-0.06138765789866447,-0.18008505673259495
1783170111439039500,0.20803955078125,0.7865665570318698,-0.09586085925623775,-0.22566428359206764
1783170111449108500,0.2181083984375,0.9837485867768525,-0.1317166010133922,-0.2505842053150758
1783170111459178500,0.228178466796875,1.2572960633218289,-0.13916428667083383,-0.21032153383586555
1783170111469247500,0.23824755859375,1.452908651793003,-0.15867241247817873,-0.13821538844816386
1783170111479317800,0.24831787109375,1.4792057070881128,-0.23895605563521383,0.02744195101391524
1783170111489386500,0.258386474609375,1.3642787667036056,-0.28708193477019667,0.12492178977411239
1783170111499455500,0.26845556640625,1.3005389927208424,-0.26573022692278025,0.12537696792939676
1783170111509525500,0.278525390625,1.2415882065802812,-0.2364269755490124,0.14283141260994597
1783170111519594800,0.2885947265625,1.163422432360053,-0.18943214627057312,0.19086075430158525
1783170111529664500,0.29866455078125,1.202417641186714,-0.2253979242734611,0.18270691140247508
1783170111539733800,0.308733642578125,1.3837626348525285,-0.28595351526215673,0.2266009799202904
1783170111549802500,0.318802490234375,1.5286597660869359,-0.3389756420060992,0.21976432056697084
1783170111559872500,0.32887255859375,1.5642296766400337,-0.3811410053014755,0.20496903035938738
1783170111569941500,0.33894140625,1.416852419027686,-0.37200668173134327,0.20688925783224402
1783170111580011500,0.349011474609375,1.35194301674366,-0.35917671851366756,0.23133564375936982
1783170111590080500,0.35908056640625,1.6326041246861218,-0.23777239880859852,0.32190888146888463
1783170111600149500,0.3691494140625,2.137723976355791,-0.15405673537626863,0.3053136109009385
1783170111610219500,0.379219482421875,2.3843811078876254,0.2684402165338397,0.42241161171421404
1783170111620288500,0.38928857421875,2.1469196747243404,1.2437572211824357,0.8092821005783974
1783170111630358500,0.399358642578125,2.119123905304074,2.1140949712261556,1.358762195239216
1783170111640427500,0.409427490234375,2.423230770763755,1.249740241114795,0.4009138464596122
1783170111650496500,0.41949658203125,2.811500605031848,0.06833411603569985,-0.27639877432286736
1783170111660566500,0.42956640625,3.79676076541543,0.2000795047521591,-0.08500256143771111
1783170111670635500,0.439635498046875,5.13926784529388,0.7580427655979991,0.49081488399598744
1783170111680705500,0.44970556640625,5.997949205943942,0.889117415446043,0.6898203663084655
1783170111690774500,0.4597744140625,6.075668989962339,0.7646053389839828,0.41776623359378423
1783170111700843500,0.469843505859375,5.3273909547925,0.8471221480205655,0.5272538690011948
1783170111710913500,0.47991357421875,4.968218035671114,1.472015795584023,0.4849499740179628
1783170111720982500,0.489982421875,4.8726241567879915,1.2219814427040516,-0.18906484732814133
1783170111731052500,0.500052490234375,2.8704765256136655,0.16148469341993332,-0.7677738129522651
1783170111741121500,0.51012158203125,2.8726316578209397,0.15326237012818456,-1.3907203450359402
1783170111751190800,0.520190673828125,3.400607484421134,0.1587200510121882,-0.7811822336450218
1783170111761260500,0.530260498046875,2.695342661547661,-0.37074893675521015,-0.626547698380798
1783170111771329500,0.54032958984375,1.5219740047127008,-0.7616932509295642,-0.5179696155663579
1783170111781399600,0.550399658203125,-0.29477906514406205,-0.9500162669144571,0.0281154298286885
1783170111791468500,0.560468505859375,-2.6858582093656063,-0.9633902738809585,0.9813802502103149
1783170111801537500,0.57053759765625,-5.024814952161908,-0.9295736367359757,1.4999546267367898
1783170111811607600,0.580607666015625,-7.020597724479437,-0.41351913407593965,0.9953485698081552
1783170111821676500,0.590676513671875,-8.50226309967935,-0.07429375509247184,0.7062510574318468
1783170111831746600,0.60074658203125,-9.201615483638644,-0.5346332386627793,0.6414447501961141
1783170111841815600,0.610815673828125,-9.130357589110732,-1.216034370867908,0.8582539290182292
1783170111851884500,0.620884521484375,-9.751852241885661,-1.9529096991442143,1.3299135557651518
1783170111861954600,0.63095458984375,-10.841945818662643,-2.573620654195547,1.8773628752507268
1783170111872023600,0.6410234375,-12.545661122882365,-2.913395045363903,2.685519186669588
1783170111882093600,0.651093505859375,-15.39094533957243,-2.847079283413291,2.752316010135412
1783170111892162600,0.66116259765625,-17.717120342206954,-2.4185398364685473,1.6194740094780922
1783170111902231600,0.6712314453125,-18.572107524514198,-1.7435984017968176,0.39236119523495433
1783170111912301600,0.681301513671875,-18.172738788604736,-1.79240130341053,-0.1017709600828588
1783170111922370600,0.69137060546875,-17.42663517486453,-1.9623595184043048,0.747244600468874
1783170111932440600,0.701440673828125,-17.153194665825367,-1.8536381546616554,1.5610259121626615
1783170111942509600,0.711509521484375,-17.15102258248329,-1.3264207452133296,1.7721672014161944
1783170111952578600,0.72157861328125,-16.829897946727275,-0.5083785612046718,1.4466656657502055
1783170111962648600,0.731648681640625,-15.91512118936777,0.1562608212918043,0.7388532042205334
1783170111972717600,0.741717529296875,-13.96594877705574,0.6957599124252796,0.353966874910891
1783170111982786600,0.75178662109375,-10.747980417764186,0.8188859413564205,0.20824586007297038
1783170111992856600,0.761856689453125,-7.262485157391429,0.7313575877681374,0.6309081586126237
1783170112002925600,0.771925537109375,-4.1405958301514385,0.5774161493346095,1.2398166668631136
1783170112012995600,0.78199560546875,-1.2833435277700422,0.15104454794824124,2.003551945014298
1783170112023064600,0.792064697265625,1.4917594837129116,-0.26497312494516373,2.5814710754349828
1783170112033133600,0.802133544921875,3.8655987393200397,-0.3820407306201756,2.618656604491174
1783170112043203600,0.81220361328125,5.461482614374161,-0.2292534306578338,1.990768012895435
1783170112053272600,0.8222724609375,6.337657546138763,0.07783464256972074,1.1313238511793315
1783170112063342600,0.832342529296875,6.329386561399698,0.32846506164669986,0.3136161598220467
1783170112073411600,0.84241162109375,5.79709053351283,0.5408801702283322,-0.02627155552767217
1783170112083480600,0.85248046875,5.545965316656232,0.5948636893503367,-0.25272366502918303
1783170112093550300,0.86255029296875,5.582390382733941,0.6195454184032976,-0.6182380621317773
1783170112103619600,0.87261962890625,5.880935522413253,0.7724822098389268,-0.6702616062924266
1783170112113689600,0.882689697265625,6.601662702834606,0.7757651770323515,-0.19483517435789108
1783170112123758600,0.892758544921875,7.514263285198807,0.6841324568651617,0.19020524953491985
1783170112133828000,0.902828125,8.835080511316656,0.696065032851696,0.02882204372808337
1783170112143898400,0.9128984375,10.36717609707117,0.9011101971872151,-0.576836522815749
1783170112153967000,0.922967041015625,11.364697773134708,1.2029182841852306,-1.2251941211402415
1783170112164037000,0.933037109375,11.561644240558147,1.3649452677883207,-1.587366514338553
1783170112174106000,0.943106201171875,11.031274796819686,1.45827178626135,-1.8703925978466867
1783170112184175400,0.95317529296875,9.794217219406367,1.5029104078024624,-1.9369339852467178
1783170112194245000,0.9632451171875,8.864797604188322,1.544979471116513,-1.9984720114015042
1783170112204314000,0.973314208984375,8.359573707622289,1.6502109469167887,-2.0484677760615946
1783170112214384000,0.983384033203125,8.164445103275776,1.716757595013827,-2.003034643141925
1783170112224453000,0.993453125,8.295970711761713,1.7099283335156739,-1.744123886975646
1783170112234522000,1.003522216796875,8.512408061596751,1.709158372056484,-1.449918383935839
1783170112244592000,1.013592041015625,8.597931212842465,1.7794687566012144,-1.4082295521110295
1783170112254661000,1.0236611328125,8.695613588437437,1.933855454584211,-1.3785524989888072
1783170112264731100,1.033731201171875,8.931986057320236,2.081399447065592,-1.2894301542073487
1783170112274800000,1.043800048828125,9.2585601906538,2.1244775412917134,-1.1019706962492317
1783170112284869000,1.053869140625,9.391441305401921,2.1616177699014543,-0.7835922904614359
1783170112294939400,1.063939453125,9.027632543173432,2.2547509577594695,-0.43798729344345627
1783170112305008000,1.074008056640625,8.410381519317626,2.3266461272776127,-0.3035447015322745
1783170112315077000,1.0840771484375,8.022514420631527,2.4688959588736292,-0.3455066146774217
1783170112325147100,1.094147216796875,7.923046330663562,2.60581407405287,-0.46384445948395875
1783170112335216400,1.10421630859375,7.961485659173131,2.742942617112398,-0.5318232227433473
1783170112345286100,1.1142861328125,8.017692699563503,2.751741717378795,-0.49439599388577044
1783170112355355100,1.124355224609375,8.134521089655161,2.639294611111283,-0.3185910256251693
1783170112365424000,1.134424072265625,8.585323660203814,2.6254990177318454,-0.07684011510703712
1783170112375494100,1.144494140625,9.02193111666143,2.461585343599319,0.00033732392927631735
1783170112385563100,1.154563232421875,8.754024860873818,2.3253731847323476,-0.12117714161938056
1783170112395633200,1.164633056640625,8.29521141782701,2.1656844348184765,-0.35489586285669356
1783170112405702100,1.1747021484375,7.858633771985769,2.0474375562310216,-0.45898894574418664
1783170112415771100,1.184771240234375,7.195381459933519,1.9995283885866402,-0.5472045509442687
1783170112425841200,1.194841064453125,6.3964709696352475,1.6589346438594161,-0.6304371070347726
1783170112435910100,1.20491015625,5.842753383535146,1.0723547987297177,-0.39074820708036423
1783170112445980200,1.214980224609375,5.326962500247359,0.6712979636028409,-0.061506242777034634
1783170112456049200,1.225049072265625,4.186595949304103,0.4654379757530987,0.08011851572319864
1783170112466118100,1.2351181640625,2.3702158044129606,0.09258198371604084,0.13953366797249764
1783170112476188200,1.245188232421875,-0.405014048320055,-0.5866974801599979,-0.3482984738856554
1783170112486257200,1.255257080078125,-3.2865970743596553,-1.5240245075017214,-1.4229299853757023
1783170112496327200,1.2653271484375,-5.123890243420004,-2.519015203782916,-2.2130881371587514
1783170112506396400,1.275396484375,-7.243017655855417,-3.429518521606922,-2.5673256457045674
1783170112516465200,1.285465087890625,-10.907943016183376,-4.184068476653099,-2.8610274370059368
1783170112526535200,1.29553515625,-15.746571964389085,-4.3642181230545045,-2.4766619167000052
1783170112536604200,1.305604248046875,-19.599538016629218,-4.2895051196366545,-1.1674289645876734
1783170112546673200,1.315673095703125,-22.085444147014616,-3.8493829330563543,0.4318953332439065
1783170112556743200,1.3257431640625,-26.00708099989891,-3.0525922113910315,1.8628380908139048
1783170112566812200,1.335812255859375,-30.789559606337544,-2.0866814791217445,3.161632431824505
1783170112576882200,1.345882080078125,-34.887553727602956,-0.7271908234775066,3.9379663486555216
1783170112586951200,1.355951171875,-36.68095807057619,0.18824556683450935,3.560443533851206
1783170112597020200,1.366020263671875,-34.36497011543512,0.3466882622100413,2.640343243381381
1783170112607090200,1.376090087890625,-29.447396809852123,-0.15796382581740617,2.0025551890619098
1783170112617159200,1.3861591796875,-24.04606383601427,-1.2049020053483546,1.7067492650881408
1783170112627229200,1.396229248046875,-18.781328951621056,-1.9434810688026247,1.70554778034389
1783170112637298200,1.406298095703125,-13.246750705897806,-2.3983014966905114,1.4129407985419034
1783170112647367200,1.4163671875,-7.977178318345547,-2.8937641699597236,1.1922018790554254
1783170112657437200,1.426437255859375,-3.7947991099536416,-3.166783530977368,1.435197492405027
1783170112667506200,1.436506103515625,-0.6855699423223733,-3.1331308522224424,1.526332638313621
1783170112677575200,1.4465751953125,1.2749316732555627,-2.7811709332197903,1.1916337968438864
1783170112687645200,1.456645263671875,1.8754197783589361,-2.222494263407588,0.4293719887787476
1783170112697714200,1.466714111328125,1.9887316847622394,-1.7036553907260297,-0.39919535210393364
1783170112707784200,1.4767841796875,2.8790438629508017,-1.4359759294316172,-0.790883470382914
1783170112717853200,1.486853271484375,4.109085424122214,-1.2332342197328805,-0.7470018046889454
1783170112727922200,1.496922119140625,5.372563975471258,-0.9889448402456938,-0.29265589897762984
1783170112737992200,1.5069921875,6.536636396172642,-0.7260664225574582,0.3838982681203633
1783170112748061200,1.517061279296875,7.807564094483852,-0.5820728160340338,0.7962636290512979
1783170112758131200,1.527131103515625,9.125459295675158,-0.6130594904500991,0.8763010423623024
1783170112768200200,1.5372001953125,10.2927080083251,-0.6191906866814941,1.028390934645012
1783170112778269200,1.547269287109375,11.033853707396984,-0.43806876118183136,1.2301418066754937
1783170112788339200,1.557339111328125,11.256461854821444,-0.33376557920761407,1.0395846749629825
1783170112798408200,1.567408203125,10.813926177358626,-0.47410051709301765,0.7594955216895789
1783170112808478200,1.577478271484375,9.955675024819374,-0.5067855198595672,0.5472609573066234
1783170112818547200,1.587547119140625,9.498864738288521,-0.36857334628179667,0.40461065515093503
1783170112828616200,1.5976162109375,9.594988194003701,-0.20518705702424048,0.3732573393795639
1783170112838686200,1.607686279296875,9.932333896720408,-0.20412600366398692,0.5069344268109649
1783170112848755200,1.617755126953125,10.456825388336181,-0.34111250790432096,0.8946217119507491
1783170112858824200,1.62782421875,10.988770703089237,-0.32243469544127584,1.3150930032521486
1783170112868894200,1.637894287109375,11.227695194542408,-0.16687749237418173,1.233629064269364
1783170112878963200,1.647963134765625,11.105459976971149,-0.01375730719566345,0.9045813073638826
1783170112889033000,1.658032958984375,10.624121398383378,0.23389307315722108,0.6575344458620995
1783170112899102200,1.668102294921875,9.923981078916787,0.626757687869668,0.49087695291414857
1783170112909171200,1.678171142578125,9.059703505694866,0.9575624445103108,0.3940574046935886
1783170112919241200,1.6882412109375,8.33215495482087,1.2176024969674646,0.3895613353833556
1783170112929310200,1.698310302734375,7.962975605469942,1.405254335692525,0.36598932113796473
1783170112939380200,1.708380126953125,7.905552175027132,1.5302170785315334,0.3398864001754671
1783170112949449000,1.718448974609375,8.062429082390665,1.612286436061561,0.5208957321461289
1783170112959518200,1.728518310546875,8.384999825301765,1.5866446298047898,0.8832342026263474
1783170112969588200,1.738588134765625,8.822787431454659,1.5247390855118632,1.1523222886096685
1783170112979657200,1.7486572265625,9.24552535251379,1.5831854292616248,1.3804507338255643
1783170112989727200,1.758727294921875,9.371122739994526,1.8002884033985436,1.5480315521635115
1783170112999796200,1.768796142578125,9.09200009366572,1.9306474523231385,1.5280204452700912
1783170113009865200,1.778865234375,8.518126439243554,2.022769417311996,1.3897583681359886
1783170113019935200,1.788935302734375,7.628491721925139,2.222623881136626,1.1368526245381683
1783170113030004200,1.799004150390625,6.992404480174184,2.3104363123632967,0.720892015594244
1783170113040073200,1.8090732421875,6.745898739811778,2.258872859995067,0.5520130472045391
1783170113050143200,1.819143310546875,6.537777382901311,2.161909154063463,0.8220558035641908
1783170113060212200,1.829212158203125,6.2598910003691906,1.7032218216143546,0.7870868545789271
1783170113070282200,1.8392822265625,6.2209916531324385,1.0280766810640691,0.3496412667967379
1783170113080351200,1.849351318359375,5.578223326182365,0.49177287884056564,0.05186835359893739
1783170113090420200,1.859420166015625,2.8583552951872346,0.07321414316222072,-0.44678142527379094
1783170113100490000,1.869489990234375,-2.5738860271334647,-0.2091518690019846,-1.3608945310927927
1783170113110559200,1.879559326171875,-8.718495282331109,-0.6335493938364088,-2.557760821762681
1783170113120628200,1.889628173828125,-12.494178772926329,-1.230391105261445,-1.8155602068103849
1783170113130698200,1.8996982421875,-13.304328450119495,-1.2035972063601017,0.7026640657905489
1783170113140767000,1.90976708984375,-13.386654851150512,-2.4823168737217784,2.2986254630602896
1783170113150836700,1.919836669921875,-14.12932381426692,-4.477706555068493,2.007860455863178
1783170113160905700,1.92990576171875,-16.296788264369965,-5.189420407950878,1.1383252543739975
1783170113170974700,1.939974609375,-19.940660315275192,-4.1001545141696925,-0.06221687983099836
1783170113181044700,1.950044677734375,-24.72300331263542,-3.4355203923702238,-1.4543269941583274
1783170113191113700,1.96011376953125,-29.18940989053249,-3.0158018191322684,-0.4971557409226894
1783170113201183700,1.970183837890625,-31.66897512745857,-2.7887779010921716,2.1581100540414453
1783170113211252700,1.980252685546875,-30.81359047026634,-3.6575796737402677,3.8282708791837092
1783170113221321700,1.99032177734375,-26.44291221128702,-4.28472928353697,3.7434874403893947
1783170113231392000,2.00039208984375,-20.877050354027748,-4.469294116032123,2.8603292256087065
1783170113241460700,2.010460693359375,-16.022432394051553,-4.539423298791051,1.7889434180416166
1783170113251529700,2.02052978515625,-11.63990938349962,-4.260562226007878,0.5348606542104855
1783170113261599700,2.030599853515625,-7.372426710578798,-3.428250985889137,-1.1127613356590271
1783170113271669000,2.0406689453125,-3.6097406487226484,-2.413547581139207,-3.00101838375926
1783170113281738800,2.05073876953125,-0.9272598068356513,-1.6357582048028707,-3.895581205129623
1783170113291808000,2.06080810546875,0.6602028613537549,-0.900763283445686,-3.135265818424523
1783170113301876700,2.070876708984375,1.5968728860914707,-0.3246832050204277,-2.0542638951197265
1783170113311946800,2.08094677734375,2.558215579792857,0.2402810206286609,-0.7876075174521654
1783170113322015700,2.091015625,3.275736073127389,0.8389375263907015,0.5203983770832419
1783170113332085800,2.101085693359375,3.5206343782931566,1.3655426491595803,0.8790251335639506
1783170113342154800,2.11115478515625,4.141455077329278,1.6420717718638478,0.6904066417638212
1783170113352224000,2.12122412109375,5.290652000460028,1.8535677197739482,0.5571243258036672
1783170113362293800,2.131293701171875,6.571150075671077,1.6663813066035509,0.622457798718661
1783170113372362800,2.14136279296875,7.473199453404545,1.2329340677425265,0.6840344033181667
1783170113382431700,2.151431640625,7.729346882337332,1.057751103837788,0.47652989966440945
1783170113392501800,2.161501708984375,7.887099988013506,0.9034386401347816,0.35829383473191406
1783170113402570800,2.17157080078125,7.856258859547972,0.8130122270174324,0.02363521567471325
1783170113412640800,2.181640869140625,7.51994659153223,0.8014119517251849,-0.5587299343694001
1783170113422709800,2.191709716796875,7.239011927345395,0.6548866347670554,-0.7984234374336898
1783170113432778800,2.20177880859375,6.955442238479852,0.6725019325651228,-0.46852695474438366
1783170113442848800,2.211848876953125,7.088699200803041,0.5376711450539529,-0.16816022566109895
1783170113452917800,2.221917724609375,8.036223212510347,0.3783000827871263,-0.16995872645042837
1783170113462987800,2.23198779296875,9.027641895523667,0.17948592179566622,-0.06174070912003517
1783170113473056800,2.242056884765625,9.194912186607718,-0.008592764039337635,0.45431751986704766
1783170113483125800,2.252125732421875,8.729753173926472,0.006857026287913322,1.3374680627979338
1783170113493195800,2.26219580078125,8.446318509617447,0.18074512807652354,1.7569100110515952
1783170113503265000,2.27226513671875,8.59758517588377,0.39134193518981336,1.6596218954712152
1783170113513333800,2.282333740234375,9.014136517262457,0.717410018697381,1.4431813307657837
1783170113523403800,2.29240380859375,9.451729477626085,0.9642293550536036,1.5743749308183788
1783170113533472800,2.30247265625,9.381153720143438,1.121688300088793,1.880818276401609
1783170113543542800,2.312542724609375,9.018942456239461,1.2153501879960298,1.959084442256391
1783170113553611800,2.32261181640625,8.591923496860264,1.3261802144557238,1.8328990257546305
1783170113563680800,2.3326806640625,8.318089604589343,1.4765383875750004,1.652044738215208
1783170113573750800,2.342750732421875,8.26354552897513,1.584488913075626,1.5004245823360978
1783170113583819800,2.35281982421875,8.315600710383057,1.6961029295198617,1.4325292961090803
1783170113593889800,2.362889892578125,8.545683139210938,1.8198938521005212,1.3188722295299171
1783170113603958800,2.372958740234375,8.806673916521667,1.9228196813069283,1.103552923939377
1783170113614027800,2.38302783203125,8.944372660684586,2.0671653161384165,1.030551108353585
1783170113624097800,2.393097900390625,8.940077009317278,2.1237296455338597,1.0857762980997563
1783170113634166800,2.403166748046875,8.76784062025845,2.1776523743793366,1.195421352558583
1783170113644235800,2.41323583984375,8.558340960732101,2.2320262079931794,1.2681437666811048
1783170113654305800,2.423305908203125,8.347555937570332,2.229984034641087,1.1067837225541473
1783170113664374800,2.433374755859375,8.257418570527435,2.229524892696738,0.9789765500694513
1783170113674444800,2.44344482421875,8.232178330808878,2.1721352183930573,1.0193081220664084
1783170113684513800,2.453513671875,8.153398224082588,1.9701200694032013,1.0762339782506227
1783170113694582800,2.463582763671875,7.859373192176222,1.6878310679979622,1.105809032303095
1783170113704652800,2.47365283203125,7.312171271580457,1.32922732706666,0.9276784706391393
1783170113714721800,2.4837216796875,6.91132018815875,0.8157391677632927,0.5987031213827431
1783170113724790800,2.493790771484375,6.448158486774563,0.14074132672920822,-0.021012392890453337
1783170113734860800,2.50386083984375,5.4987277646631,-0.3898044964894652,-0.7453513340681791
1783170113744929800,2.5139296875,3.124081284326315,-0.8969498626373708,-1.7034560687616467
1783170113754999800,2.523999755859375,-1.3068629350453616,-1.1875846675835549,-2.0921572801843284
1783170113765068800,2.53406884765625,-6.345315367415547,-0.946335678705573,-1.4508363755635916
1783170113775137800,2.5441376953125,-11.427941872555017,-1.731218958825618,-0.811913106669113
1783170113785207800,2.554207763671875,-15.32089389822483,-3.291260389995575,-1.0375720930315553
1783170113795276800,2.56427685546875,-16.60176139127016,-4.1016996977850795,-1.4389887013815343
1783170113805346800,2.574346923828125,-16.342680246973035,-4.504470643353462,-1.5133946846768258
1783170113815415800,2.584415771484375,-17.364557781136035,-4.70860877584666,-1.1510448890849947
1783170113825484800,2.59448486328125,-20.644244637715815,-4.441452169382572,0.23916785348867997
1783170113835554800,2.604554931640625,-25.482743822062012,-3.49124432541877,1.328111767040193
1783170113845623800,2.614623779296875,-30.426945606851575,-2.636327577999234,1.429823544281721
1783170113855692800,2.62469287109375,-33.72357892205715,-1.9783231034725903,0.8449987991910427
1783170113865762800,2.6347626953125,-34.39182772722244,-1.0163242839500308,0.43070568506792184
1783170113875831800,2.644831787109375,-32.12811707180738,-0.2281051374055445,0.3789201509142294
1783170113885901600,2.654901611328125,-27.730043440902232,-0.3926417657420039,0.49588908198773857
1783170113895970800,2.664970703125,-22.710854511928556,-1.2074850075788794,0.9418328143283724
1783170113906039800,2.675039794921875,-17.90539951905012,-1.8218943782679735,1.4363389175251124
1783170113916109800,2.68510986328125,-12.904356487619877,-2.2219572339214384,1.8319577993817626
1783170113926178800,2.6951787109375,-7.85288733728826,-2.5244208622187374,1.835064971616864
1783170113936247800,2.705247802734375,-3.3024662591427565,-2.66490719127357,1.558119377066195
1783170113946317800,2.71531787109375,0.36913843281865116,-2.6729151411622762,1.2597075083777307
1783170113956386800,2.72538671875,2.792404274895787,-2.4766052180767058,0.8009231452949345
1783170113966456800,2.735456787109375,4.221524054822326,-2.2120963496424255,0.4319879434308037
1783170113976525800,2.74552587890625,5.2146115478307005,-1.9918040779449044,0.39221090004406867
1783170113986594800,2.7555947265625,5.8221600928395985,-1.7482453508198261,0.4813012422520667
1783170113996664800,2.765664794921875,6.133657068550586,-1.403807497885078,0.5468776936100795
1783170114006733800,2.77573388671875,6.385501831853389,-0.9582504267744719,0.5963486306784674
1783170114016803800,2.785803955078125,6.5317608990907665,-0.4810981939606368,0.6911871976822614
1783170114026872800,2.795872802734375,6.550822742435336,0.013689137330278753,0.7771817658320069
1783170114036941800,2.80594189453125,6.590261018854379,0.4724143906369805,0.6842369401529431
1783170114047011800,2.81601171875,6.726848002383113,0.819799695200473,0.42299452616870403
1783170114057080800,2.826080810546875,7.139892796945571,1.0610847783051431,0.07512209567539394
1783170114067149800,2.83614990234375,7.776574497458339,1.2837990164525805,-0.11523936733454465
1783170114077219800,2.8462197265625,8.45105196788013,1.463363702572882,0.2891817931262776
1783170114087288800,2.856288818359375,9.206381675127147,1.1639274592727422,1.7491661189265548
1783170114097358600,2.866358642578125,10.09805520479679,0.5101534619227052,2.921188767980039
1783170114107427800,2.876427734375,10.8982726860404,0.08733370779901742,2.9546909323483703
1783170114117496800,2.886496826171875,11.441890902930497,-0.08606792564690112,2.217239850010723
1783170114127566800,2.89656689453125,11.672881094253063,-0.06944397697374224,1.0948017544679343
1783170114137635800,2.9066357421875,11.530759272950887,0.17202449987381696,0.21203823809325695
1783170114147705000,2.916705078125,10.82279688155651,0.45612888013795017,-0.4535211818575859
1783170114157775000,2.926775146484375,9.918852483856677,0.5869413719184696,-0.8477464173987508
1783170114167844000,2.936843994140625,8.746029770466684,0.8216102517537772,-0.9454662023946643
1783170114177914000,2.9469140625,7.5613377555847165,0.9647035484366119,-0.6740959237582981
1783170114187983000,2.956983154296875,7.0249407221198075,0.9339490753412246,-0.1331990215908736
1783170114198052000,2.967052001953125,7.131471005558967,0.78389938364923,0.5791996717505157
1783170114208122000,2.9771220703125,7.5488927000313994,0.5531397862121462,1.1645234524045138
1783170114218191000,2.987191162109375,7.9991312069565055,0.3457354915298521,1.618286991650611
1783170114228260000,2.997260009765625,8.304682426005602,0.3622102409906685,1.6672525364801287
1783170114238330000,3.007330078125,8.179410617217421,0.6044900342211127,1.3553177538737653
1783170114248399000,3.017399169921875,7.822086540833115,0.830624163814634,0.9718789199586957
1783170114258469000,3.02746923828125,7.536511357364058,1.1125219739452004,0.671288684317842
1783170114268538000,3.0375380859375,7.234604047775268,1.5029482555948197,0.5658464883763342
1783170114278607000,3.047607177734375,6.9773284915953875,1.6706170444771646,0.4884641196187585
1783170114288676900,3.0576767578125,7.00686496720314,1.7308854890875518,0.7776097089204936
1783170114298746000,3.06774609375,7.205688918936252,1.8649812403224408,1.27340724016726
1783170114308816000,3.07781591796875,7.45433634750247,2.0508296828873456,1.373778416454792
1783170114318885000,3.087885009765625,7.607765160238742,2.254350414134562,1.2673998164460063
1783170114328953900,3.097953857421875,7.550919237422943,2.3772565167047084,0.9626708004999905
1783170114339024100,3.108024169921875,7.367367089101672,2.541003163707256,0.5644914935708045
1783170114349092900,3.1180927734375,7.490663798424601,2.4731065623059867,0.16312500797286628
1783170114359162000,3.128162109375,7.628522117063403,1.9404151053607464,-0.4479353445492685
1783170114369232000,3.13823193359375,7.230620531097054,0.8995024697296321,-1.2699902713306248
1783170114379301000,3.148301025390625,6.404398255503177,-0.12062369072139262,-2.132698403278738
1783170114389371100,3.15837109375,4.350997991475463,-1.0659265192478895,-3.34016002998203
1783170114399440100,3.168440185546875,-0.48868075804412364,-2.2416453924708066,-4.4996483377635474
1783170114409508900,3.1785087890625,-7.715665562987327,-2.231819433374703,-3.6648037797749042
1783170114419579100,3.1885791015625,-16.23405503708124,-1.3677904280863702,-2.510044546341896
1783170114429648100,3.198648193359375,-24.082290164649486,-1.220286767615378,-2.978421644286811
1783170114439717000,3.208717041015625,-27.33565249340534,-0.8627417419567703,-2.51830822455734
1783170114449787100,3.218787109375,-25.84665312205553,-1.0521415933929383,-0.6364564403895289
1783170114459856100,3.228856201171875,-22.035605472612378,-2.2527485318958758,1.1266052982248365
1783170114469926100,3.238926025390625,-19.115530511093137,-3.622999358746409,2.750609498478472
1783170114479995100,3.2489951171875,-19.15326023002863,-4.63215243589282,3.4613729187682267
1783170114490064100,3.259064208984375,-20.774235291719435,-4.657229886265099,2.6010262552544474
1783170114500134000,3.2691337890625,-21.463727960443496,-3.697501349762082,0.837910813691467
1783170114510203100,3.279203125,-21.629884152805804,-2.7493147824928164,-1.0622134170088917
1783170114520272100,3.289272216796875,-20.165963108611106,-2.143858241327107,-2.2659109419383108
1783170114530342100,3.299342041015625,-17.53374647306204,-2.2966002408429977,-2.6686580682396888
1783170114540411000,3.309410888671875,-14.705930108523368,-2.8849469495147466,-2.067226837067306
1783170114550481200,3.319481201171875,-12.0740478194952,-3.1609418192118404,-1.0195474107149989
1783170114560550000,3.3295498046875,-9.358196622925997,-2.9960657297879454,-0.3136286905100569
1783170114570619100,3.339619140625,-6.598528496462106,-2.363637156675011,-0.28683168633617456
1783170114580689000,3.34968896484375,-4.032008614182472,-1.47666990500018,-0.8223852547142654
1783170114590758100,3.359758056640625,-1.9508441449165344,-0.5291365409426391,-1.3615842669226228
1783170114600827000,3.369826904296875,-0.49120180095434185,0.2692281520411372,-1.8115674839124083
1783170114610897200,3.379897216796875,1.118060026589036,0.6196934485718607,-1.7318765459515153
1783170114620966000,3.3899658203125,2.7731863642066714,0.7292389881789684,-1.06327264373824
1783170114631036200,3.4000361328125,4.317094552829861,0.7015243211708962,-0.36935481551568955
1783170114641105000,3.41010498046875,5.350629207038879,0.7492410349830985,0.3024715193428099
1783170114651174100,3.420174072265625,5.914672956842184,0.7196592589288949,0.6839948750253766
1783170114661244200,3.430244140625,6.492722435644269,0.694240009381622,0.8815699957411736
1783170114671313200,3.440313232421875,7.037092347684502,0.7126167930714785,1.0038260369047523
1783170114681383200,3.450383056640625,7.603557771676778,0.5386736000947654,0.9564853167980909
1783170114691452000,3.460451904296875,8.34524941419363,0.17561989401727915,0.9308347427129745
1783170114701521200,3.470521240234375,9.040130205696821,-0.2021701934210956,0.9701182669617235
1783170114711591000,3.4805908203125,9.26622444167137,-0.38493674432262776,0.859551421482861
1783170114721660200,3.49066015625,8.873383646225928,-0.3820161807008087,1.0445390824999659
1783170114731729200,3.500729248046875,8.186814755994082,-0.28506065807566044,1.2685083622097968
1783170114741799200,3.510799072265625,7.703432104358076,-0.21983093779608606,1.314345253624767
1783170114751868000,3.520867919921875,7.873716190305352,-0.24635990215092896,1.4218866138026118
1783170114761938200,3.530938232421875,8.490562725013493,-0.1382657303959131,1.478714708700776
1783170114772007000,3.5410068359375,9.113848352858424,0.1325853466719389,1.4926304213285446
1783170114782076200,3.551076171875,9.77628350330889,0.4682708610914647,1.3706690522626042
1783170114792146000,3.56114599609375,10.46482866204977,0.9250529444411396,1.1926384438417852
1783170114802215200,3.571215087890625,11.324288605856895,1.2135013452589511,0.9327467138141393
1783170114812284000,3.581283935546875,12.203308990180492,1.4922048893928528,0.7903326315671205
1783170114822354200,3.591354248046875,12.514827593201398,1.8741504890754819,0.8135700070306658
1783170114832423000,3.6014228515625,12.008427054071426,2.1211150791212914,0.8765377737276255
1783170114842493200,3.6114931640625,10.896436118263006,2.2674790680378676,0.9669749274346977
1783170114852562000,3.62156201171875,10.108020133972168,2.4607494772970675,1.0146225945986806
1783170114862631200,3.631631103515625,9.661579850286245,2.710502529017627,0.9880920228086412
1783170114872701200,3.641701171875,9.230245365795492,2.9321467998459934,0.7838074675820768
1783170114882770200,3.651770263671875,8.990337124001979,3.1899051711067554,0.7257631287619472
1783170114892839000,3.6618388671875,8.964458586379886,3.3662913733214137,0.8233854447327553
1783170114902909000,3.671908935546875,9.029233548629284,3.3863477806612847,0.9650457860030234
1783170114912978000,3.68197802734375,9.229891730052232,3.41802477542907,1.2026339142858982
1783170114923048000,3.6920478515625,9.413457906898856,3.409523489065468,1.441697083557397
1783170114933117200,3.7021171875,9.128170308199524,3.3307916053950786,1.7358146160528063
1783170114943186000,3.71218603515625,8.17719235664606,3.3983477227956054,1.9082364446811377
1783170114953256200,3.722256103515625,7.027924121844768,3.3487563011527057,1.839325697801262
1783170114963325000,3.732324951171875,5.617651081207394,2.9491923349320888,1.9182342532128094
1783170114973395200,3.742395263671875,4.314023474821448,2.445550446860492,1.7152940983325242
1783170114983464000,3.7524638671875,2.371110707426071,1.8558444325342773,1.156912758205086
1783170114993533200,3.762533203125,-0.6299684666097164,1.217445991231501,0.2409871230714023
1783170115003603000,3.77260302734375,-3.960543798905611,0.37993718246966596,-1.181433451477438
1783170115013672200,3.782672119140625,-8.4698133669734,-0.9259224207520484,-3.174889388282597
1783170115023741000,3.792740966796875,-14.26936590668559,-2.265793891429901,-4.181649725073576
1783170115033811200,3.802811279296875,-19.50221979817152,-2.90675166182667,-3.674650927789509
1783170115043880000,3.8128798828125,-22.08467257812023,-3.3884839159071443,-2.1831842895433304
1783170115053949200,3.82294921875,-22.022350854241846,-3.5701837143599984,-0.5912164188891649
1783170115064019000,3.83301904296875,-20.746910062420366,-3.741709324800968,0.6953006974156946
1783170115074088200,3.843088134765625,-20.688291869235037,-4.144690990510583,1.523413389866054
1783170115084158000,3.853157958984375,-22.49969247214794,-4.1194411061808465,1.794281125807762
1783170115094227200,3.863227294921875,-23.997859484815596,-3.5722000226184725,0.908220102257654
1783170115104296000,3.8732958984375,-23.615614902186394,-3.265640211048722,-0.8502629302643239
1783170115114366000,3.883365966796875,-21.38624841492176,-3.4429610637649892,-2.662200854924321
1783170115124435000,3.89343505859375,-18.221402574008703,-3.6871962288469073,-3.690172029787302
1783170115134504200,3.903504150390625,-14.910502248519657,-3.9984415678843854,-3.3177474149048325
1783170115144573000,3.913572998046875,-12.198898188000916,-4.162891248589754,-1.991151313124597
1783170115154642200,3.92364208984375,-10.175668021309376,-4.103933448186517,-0.9280620631292462
1783170115164712000,3.9337119140625,-7.7589593457907435,-3.6665263657838105,-0.20070487010888755
1783170115174781200,3.94378125,-4.661243505820631,-2.813897144779563,-0.025592930180323308
1783170115184850000,3.953849853515625,-2.464479895997047,-1.902944037361443,-0.29514165137875825
1783170115194920000,3.963919921875,-1.8887264191776514,-0.9591815701447427,-0.7367035519059747
1783170115204989000,3.973989013671875,-1.6960487151145933,0.19247838209867477,-0.9175441762462258
1783170115215059000,3.984058837890625,-1.1303379088819026,0.9523474863409995,-0.924817382119596
1783170115225128000,3.9941279296875,-0.27143384539186954,1.3336559571638702,-0.9324330447550863
1783170115235197200,4.004197265625,0.849881383600831,1.6566906643249093,-0.8275325544748455
1783170115245267200,4.01426708984375,2.13440564558804,1.6006528430216014,-0.43985783655568955
1783170115255336000,4.0243359375,3.0861610112547875,1.4627471781097352,0.19087195154903455
1783170115265405000,4.034405029296875,3.983637674245238,1.4032413884349166,0.7424420955579727
1783170115275475000,4.044474853515625,5.084311681747436,1.228741146097332,1.0836568947929888
1783170115285544200,4.054544189453125,6.198469440200925,1.1909582356698811,1.3108388529390096
1783170115295614000,4.064614013671875,7.577861020362377,1.1262735820524394,1.4217194405421614
1783170115305683200,4.07468310546875,9.329901671811937,1.1559734315283596,1.0482743235055356
1783170115315752000,4.084751953125,10.614716441178322,1.46850544937551,0.3877398190446198
1783170115325822200,4.094822265625,10.032060345363616,1.6517254431329667,0.009549114916101097
1783170115335891000,4.104890869140625,7.832872138741612,1.6619165822796522,-0.1541591728374362
1783170115345960200,4.114960205078125,6.383228041702509,1.8484217351876198,-0.3052756900433451
1783170115356030000,4.125030029296875,6.968720822247862,2.085305076202005,-0.24845168679840862
1783170115366099200,4.13509912109375,8.53184049181938,2.199159418918937,-0.20462927701100705
1783170115376169000,4.1451689453125,10.16877767727375,2.013414436728507,0.05040069219917059
1783170115386238200,4.15523828125,11.366962210935354,1.5720327516064048,1.021649789821729
1783170115396307000,4.165306884765625,12.27578619737029,1.3275360129788518,2.0418299454823137
1783170115406377000,4.175376953125,12.77840487987399,1.3359949215054512,2.411542378796637
1783170115416446000,4.185446044921875,12.718024937713146,1.4766212435528636,2.2430055749081075
1783170115426515200,4.19551513671875,12.302079161012172,1.634084426371753,1.8909078548699616
1783170115436585000,4.2055849609375,11.78486145979166,1.836064796309173,1.7340334317244588
1783170115446654200,4.215654296875,11.49707327644825,2.083631736162305,1.6382590817078948
1783170115456724200,4.22572412109375,11.83581423291564,2.1150050718083975,1.3221058046236633
1783170115466793000,4.23579296875,12.765590991008281,2.015432060161233,1.0508742038056254
1783170115476862000,4.245862060546875,13.30064596221447,2.0229957734137773,0.882283039381355
1783170115486932000,4.255931884765625,13.03967330508232,2.047658797766268,1.0307876935884357
1783170115497001000,4.2660009765625,12.180849321091175,2.099185279124975,1.3760131897695362
1783170115507070000,4.276070068359375,10.992369019842148,2.3026029883891344,1.3697789715550839
1783170115517140200,4.28614013671875,9.792392342066764,2.511791390009224,1.1467251261897384
1783170115527209000,4.296208984375,9.09298559757173,2.575336518202722,1.156192627236992
1783170115537279200,4.306279296875,8.782391123658417,2.6085417454510926,1.3985871328882873
1783170115547348000,4.316347900390625,8.560945590272546,2.494447456498444,1.549935778349638
1783170115557417200,4.326417236328125,8.214398928490281,2.252423245464265,1.7435938717521726
1783170115567487000,4.336487060546875,7.4737044803172346,1.9301652217641472,2.078119987003505
1783170115577556200,4.34655615234375,6.510174505704641,1.5340651322618126,2.136646848643571
1783170115587625000,4.356625,4.635218837726116,1.4178361693680286,1.4833214718438683
1783170115597695200,4.3666953125,1.3419693197399376,1.3834215663298963,0.4744667931221425
1783170115607764000,4.376763916015625,-2.4650673404961823,0.842687964965403,-1.0634963694915174
1783170115617834000,4.386833984375,-5.095266791003942,-0.1626902698174119,-3.124227999320626
1783170115627903000,4.396903076171875,-6.07197481161952,-1.4232730997249483,-4.159106177093088
1783170115637972200,4.40697216796875,-7.067583347538113,-2.68415432805717,-3.0318755865767595
1783170115648042000,4.4170419921875,-10.173339286100864,-4.019327996307611,-1.0378334473814814
1783170115658111000,4.427111083984375,-15.048424864566325,-5.239176664766669,0.23597181566003708
1783170115668180000,4.437179931640625,-19.65982794241905,-4.040724420079589,1.2854007525607942
1783170115678250000,4.44725,-23.9533516500473,-2.138991804334521,1.1691662367090583
1783170115688319000,4.457319091796875,-28.204897333645818,-1.5927100673235952,0.5682557049425319
1783170115698389000,4.467388916015625,-30.323553036916255,-1.4612072551913557,0.8552009711883962
1783170115708458000,4.4774580078125,-29.027118556904792,-1.9422044729955494,1.5023575962252913
1783170115718527000,4.48752685546875,-25.861995652616024,-2.798131128109991,1.569154565821588
1783170115728597200,4.49759716796875,-22.709482054531573,-3.1452509136050937,1.1892151183295994
1783170115738666000,4.507666015625,-21.13185981235504,-3.3795988909229635,0.35163868769165124
1783170115748735000,4.51773486328125,-20.38347305611372,-3.734925948271155,-0.49691491790413855
1783170115758805000,4.527804931640625,-18.482233776843547,-3.9310423946112394,-0.859328937838599
1783170115768874200,4.537874267578125,-16.03228275693655,-3.917786022675037,-0.9111622201241553
1783170115778944000,4.547944091796875,-13.175591011047363,-3.9084488700091837,-0.5805859019445255
1783170115789013200,4.55801318359375,-9.96959366005659,-3.845629133480787,-0.2291123051540926
1783170115799082000,4.56808203125,-6.685322398295998,-3.447650390625,-0.0747411700664088
1783170115809152000,4.578152099609375,-4.084012357664108,-2.5953762666687368,0.27174011659575625
1783170115819221000,4.588220947265625,-3.031815088561177,-2.017185771960765,0.7303347475264221
1783170115829290200,4.598290283203125,-2.4669787270754573,-1.7910918282471595,0.9444435082834214
1783170115839360000,4.608360107421875,-1.466241596096754,-1.569318524211645,0.5773384809885174
1783170115849429200,4.61842919921875,-1.2345903105169533,-1.1559743083111942,-0.6697541682269423
1783170115859499000,4.6284990234375,-1.5841665492534636,-0.32909671061374246,-1.853820379360765
1783170115869568000,4.638568115234375,-0.7857733608275651,0.34420265593938526,-2.4810499225258824
1783170115879637000,4.648636962890625,1.2557359743982552,0.5302419449012726,-2.6280890342250465
1783170115889707000,4.65870703125,3.5967373747646807,0.7251670625649392,-2.250842844405025
1783170115899776000,4.66877587890625,5.652728824329376,0.8646841081961989,-1.2284503464572132
1783170115909845000,4.678844970703125,7.532168359723687,0.6053806994505226,-0.28455548503249883
1783170115919915000,4.6889150390625,9.154802879059314,0.3371764836296439,0.10353882827190682
1783170115929984000,4.69898388671875,10.301087714135646,0.5080426072485744,0.24174844456641
1783170115940054000,4.709053955078125,10.8928658585608,0.9077190939329564,0.33312961939163505
1783170115950123000,4.719123046875,10.87492337463498,1.1755668975315987,0.18454890427365897
1783170115960192000,4.72919189453125,10.558049382060766,1.2114628251686692,-0.31640235647447407
1783170115970262000,4.739261962890625,10.379031370037794,1.301021369410306,-0.7142847993489354
1783170115980331000,4.7493310546875,10.402982738989591,1.339681354933232,-0.6935015390392393
1783170115990400000,4.75939990234375,10.811108781850338,1.254266047976166,-0.6769852885242551
1783170116000470300,4.76947021484375,11.398773061215877,1.2411594597741962,-0.5950872689731419
1783170116010539000,4.7795390625,11.897812131667136,1.353406659555435,-0.36368878911063074
1783170116020609000,4.789609130859375,12.027021864426136,1.5592729310154914,-0.1212007599569857
1783170116030678000,4.799677978515625,11.70977611593008,1.7336618219330906,0.01686338345222175
1783170116040747300,4.809747314453125,11.255580395811796,1.843242286723107,0.17371413346119224
1783170116050817000,4.819817138671875,10.947096630442141,1.927018594301492,0.4707835014995187
1783170116060886300,4.82988623046875,10.817211190378666,2.0163192182593046,0.7480862389247864
1783170116070955000,4.839955078125,10.89105617879033,2.1417263438649474,0.906094561471045
1783170116081025000,4.85002490234375,11.176468865174055,2.1873358562648293,1.1802739792440087
1783170116091094000,4.860093994140625,11.276895571041107,2.2790597618468103,1.5452099188715218
1783170116101164000,4.8701640625,11.248974129414558,2.2806658818691967,1.922597416858375
1783170116111233000,4.88023291015625,11.233720446181296,2.1959204369977114,2.1489462121158835
1783170116121302000,4.890302001953125,11.214557480549812,2.3154975412756205,1.9536102486290037
1783170116131372000,4.9003720703125,10.868200203859805,2.608654558175802,1.4695935368731616
1783170116141441800,4.91044189453125,10.124237109279631,2.9477114487245677,0.9777059456117451
1783170116151511000,4.920510986328125,9.507455456501244,3.158068601863086,0.6767091749966144
1783170116161580800,4.930580810546875,9.465753326803446,3.00924377579093,0.6188697110988199
1783170116171650000,4.940650146484375,9.838888720303773,2.6857085717618463,0.9623634150512516
1783170116181719800,4.9507197265625,10.166907207226753,2.7153210352152586,1.7037122354798018
1783170116191788800,4.960788818359375,9.57844739356935,2.528289228084683,2.1966082731314
1783170116201857800,4.97085791015625,7.975393188494444,2.0322649754099547,2.323083174099028
1783170116211927800,4.980927734375,5.404167320480942,2.0001801304936406,2.520883920264244
1783170116221996800,4.990996826171875,1.9175012627631425,1.9671315551117061,2.127997532111406
1783170116232065800,5.001065673828125,-2.0839105531036854,1.4114111047565936,1.3215357496507465
1783170116242135800,5.0111357421875,-5.257878442627192,0.6874120630577206,0.6401106520481408
1783170116252204800,5.021204833984375,-7.136965511322021,-0.4322818483434617,-0.07869944270551205
1783170116262273800,5.031273681640625,-8.024024240672588,-1.9598241547077893,-0.5286027993921191
1783170116272343800,5.04134375,-8.80663358451128,-3.417627008283138,-0.6059330726362765
1783170116282412800,5.051412841796875,-10.389818136990069,-4.833345162583887,-0.9865439165838062
1783170116292482800,5.06148291015625,-13.344417299401758,-5.55792288095355,-1.8316491718240082
1783170116302551800,5.0715517578125,-18.31596301819086,-5.25955952758193,-2.5334581551551816
1783170116312620800,5.081620849609375,-23.84940027718544,-4.110799826824665,-2.406892361033708
1783170116322690800,5.09169091796875,-27.23043387708664,-2.893536498683691,-1.4201983684547244
1783170116332759800,5.101759765625,-28.15860086189508,-1.9160504794329403,0.07479550320268608
1783170116342828800,5.111828857421875,-28.30726582123041,-1.8780396054685116,1.1773426750324665
1783170116352898800,5.12189892578125,-27.450298278760908,-2.566820618791878,1.2980841469146311
1783170116362967800,5.1319677734375,-25.292201376461982,-2.7252877179563044,1.129901417160779
1783170116373037800,5.142037841796875,-22.73261041666269,-2.7977356990516182,0.7898693249043077
1783170116383107000,5.152107177734375,-19.95819363387823,-2.65506033551991,0.5410958588056266
1783170116393175800,5.16217578125,-16.834295889425277,-2.3111619962893424,0.46991059112250805
1783170116403245800,5.172245849609375,-13.305579326963423,-2.1454111698575318,0.5504611415874213
1783170116413314800,5.182314697265625,-9.32310835841,-1.8939083518601953,0.6059060384988785
1783170116423384000,5.192384033203125,-5.327731731054186,-1.583272230762243,0.5793932215612382
1783170116433453800,5.202453857421875,-2.1669693600624798,-0.9406457965008914,0.2841235233560204
1783170116443522800,5.212522705078125,-0.26670564782619477,-0.48549131435304876,-0.19340433783717453
1783170116453592800,5.2225927734375,0.6761883659929037,-0.1695944962479174,-0.590522591406107
1783170116463661800,5.232661865234375,0.6324713893413544,0.3168371676951647,-1.2688472387753427
1783170116473730800,5.242730712890625,-0.06099018301367759,0.6355975585378706,-1.8047277010202407
1783170116483800800,5.25280078125,0.2649047358840704,0.7434856863267719,-1.3412220085039734
1783170116493869800,5.262869873046875,2.1443588843256234,0.5489372199557722,-0.33058870273716745
1783170116503938800,5.272938720703125,4.717997074177861,0.059525371158123015,0.4909432230833918
1783170116514008800,5.2830087890625,7.383903213360905,-0.300941094905138,0.9274802446532994
1783170116524077800,5.293077880859375,9.568383095672726,-0.515209868529439,0.9569245849981903
1783170116534147800,5.30314794921875,10.877501116168498,-0.6376759722471237,0.6796496123626827
1783170116544216800,5.313216796875,10.831429100823401,-0.7923349113002419,0.7839968526743352
1783170116554285800,5.323285888671875,9.762029352506994,-0.8763945658646524,1.2976840416811406
1783170116564355800,5.33335595703125,8.393277239781618,-1.036382883246988,1.601040527164936
1783170116574423800,5.343423828125,7.609523402082919,-1.0096312160521745,1.2757706082977354
1783170116584493800,5.353493896484375,7.908783996555209,-0.7823316959410905,0.6711955261416733
1783170116594562800,5.363562744140625,8.57690011525154,-0.5728736835993826,0.3491976146824658
1783170116604631800,5.3736318359375,9.186747584852576,-0.5599826378442346,0.3732541610417887
1783170116614701800,5.383701904296875,10.0237355846107,-0.42023908998072146,0.369479391743429
1783170116624770800,5.393770751953125,10.79314408609271,-0.07625409538000821,0.23728883480904622
1783170116634840800,5.4038408203125,11.271593957501649,0.20306188156381247,-0.1764392110435292
1783170116644909800,5.413909912109375,11.55677166608572,0.4609506012059748,-0.5855424283733591
1783170116654978800,5.423978759765625,11.607391261732577,0.7471819104962051,-0.8037969471655786
1783170116665048800,5.434048828125,11.177342140877245,1.0176930880852042,-0.8593206814669072
1783170116675117800,5.444117919921875,10.39710829399824,1.1473846130117773,-0.8774938323434441
1783170116685186800,5.454186767578125,9.8710678193748,1.304083679590374,-0.6850768981084228
1783170116695256800,5.4642568359375,9.639642743766307,1.4181547337979077,-0.31719547961354255
1783170116705325800,5.474325927734375,9.653604633623361,1.3404519009143114,0.014667380378441884
1783170116715395800,5.484395751953125,9.692053899005055,1.285976652752608,0.36361769663579757
1783170116725464800,5.49446484375,9.64515946136117,1.381322986615449,0.4713552004402503
1783170116735534000,5.5045341796875,9.417494615069032,1.5858325827695428,0.49420781436990946
1783170116745603800,5.514603759765625,9.122276573985815,1.8068334411278366,0.49614992488101123
1783170116755672800,5.5246728515625,8.603407013905048,2.132211058153212,0.23005378725528716
1783170116765741800,5.534741943359375,7.608211734962463,2.418962445794791,-0.279111613478139
1783170116775811800,5.544811767578125,6.654313512048125,2.6921441577672955,-0.7218415714040398
1783170116785880800,5.554880859375,6.353330331566929,2.813129667538404,-0.8917995672021061
1783170116795950800,5.564950927734375,6.549549653759598,2.707100611619651,-0.6171499746341258
1783170116806019800,5.575019775390625,7.136682602727412,2.4863351694524285,-0.13451664352808146
1783170116816088800,5.5850888671875,7.668655390009284,2.044507055737078,0.20396982672158628
1783170116826158800,5.595158935546875,7.790732786670326,1.5623331953689454,0.5602150583606214
1783170116836227800,5.605227783203125,7.5385028234422204,1.233498131366074,0.8465721859876066
1783170116846296800,5.615296875,6.328346696957945,1.0712741638861596,0.7312772160083055
1783170116856366800,5.625366943359375,3.909341434934735,0.9985815603800118,-0.041729309965670106
1783170116866435800,5.635435791015625,0.6598369506508112,0.7281129067584872,-1.6298703158080576
1783170116876504800,5.6455048828125,-3.250228706905246,-0.16462766762077807,-3.4588691192537544
1783170116886574800,5.655574951171875,-6.775010268005729,-1.1749142788417637,-4.706239416366815
1783170116896643800,5.665643798828125,-9.98207203335762,-1.9631546143047511,-4.809927754378318
1783170116906713600,5.675713623046875,-12.702060475862025,-3.107569709986448,-3.5310517274111506
1783170116916782800,5.685782958984375,-14.34221603884101,-4.073075368586182,-1.3419522224746643
1783170116926851800,5.695851806640625,-15.29711671679616,-4.184347293594479,0.8551514329582453
1783170116936921900,5.705921875,-16.96903987543583,-3.740339790013432,2.4064625913143156
1783170116946990800,5.715990966796875,-20.355025544786454,-3.240219938588142,2.790658015750348
1783170116957059800,5.726059814453125,-24.55504211667776,-2.600327459335327,3.179606479932368
1783170116967129900,5.7361298828125,-28.124181874942778,-1.3488029651522635,3.7104099311739205
1783170116977198800,5.74619873046875,-30.778575270986554,-0.3975777608394623,3.2114906877100466
1783170116987268900,5.756268798828125,-31.468477105033397,0.08473433895558119,2.3382746057510375
1783170116997337900,5.766337890625,-29.434502256965636,0.5562482736214995,1.3144511982172726
1783170117007406800,5.77640673828125,-25.64744806205034,0.46722471303939817,0.614645371402055
1783170117017476900,5.786476806640625,-21.250723507666585,0.19902049721851944,0.8246070954822003
1783170117027545900,5.7965458984375,-17.149729620063304,-0.34855654029995203,1.2118929602142423
1783170117037614800,5.80661474609375,-13.30392746810317,-1.0205695203043519,1.426112414804101
1783170117047684900,5.816684814453125,-9.20329890668094,-1.4725861428178846,1.8026218147821724
1783170117057753900,5.82675390625,-5.001321263849735,-1.9095996958583592,1.955897336652875
1783170117067823900,5.836823974609375,-1.4264841707259415,-2.022984667497873,1.6940078569367527
1783170117077892900,5.846892822265625,1.0702893906325102,-1.8851102745071053,0.9822416893452406
1783170117087961900,5.8569619140625,2.962217236199975,-1.6275323743797838,0.30926337144002314
1783170117098031900,5.867031982421875,4.4335669690907,-1.2687984311975538,-0.05965345451720058
1783170117108100900,5.877100830078125,5.103153744861483,-1.024322881488502,-0.3556982652807608
1783170117118169900,5.887169921875,4.763894901999831,-0.7557378496564924,-0.5923184253143147
1783170117128239900,5.897239990234375,4.545146937134862,-0.29782793132066726,-0.544718688945286
1783170117138308600,5.90730859375,4.90354887188375,-0.053393736535310744,-0.4687608000328764
1783170117148378600,5.917378662109375,5.722395650273561,0.103400607111305,-0.29282679856512694
1783170117158447600,5.927447509765625,6.660369158825278,0.36879458781704305,0.15395506510008125
1783170117168516600,5.9375166015625,7.494926716566085,0.5626826905831694,0.39515608665049073
1783170117178586400,5.94758642578125,8.141320832797884,0.7000402200929821,0.24967784932618958
1783170117188655600,5.957655517578125,8.643435072910785,0.8576729142598807,-0.05464689666787162
1783170117198724600,5.967724609375,9.071059012445806,1.050212817287445,-0.48216363123506306
1783170117208794600,5.977794677734375,9.387767585325241,1.1926615324564278,-0.9749676066890358
1783170117218863400,5.98786328125,9.875351195782422,1.2251663563504815,-1.255285015760362
1783170117228932600,5.9979326171875,10.445597891879082,1.191806230801344,-1.1431969520635903
1783170117239002400,6.00800244140625,10.746841769123076,1.2463162580154836,-0.8810052745305001
1783170117249071600,6.018071533203125,10.918903970658778,1.2946195395439863,-0.6640505497578532
1783170117259141400,6.028141357421875,10.955791978073119,1.2190361830323935,-0.35743356464076786
1783170117269210600,6.038210693359375,11.168015509605407,1.223170652488619,0.15610493661034852
1783170117279279400,6.048279296875,11.631459535062312,1.2148115510746835,0.5853537374008446
1783170117289349600,6.058349609375,11.964604278957843,1.3052034774005412,0.6982379929766058
1783170117299418400,6.06841845703125,11.960146715027093,1.3679368508197367,0.6367119495205581
1783170117309487600,6.078487548828125,11.766577615082264,1.3839089114554226,0.5337167448723689
1783170117319557600,6.0885576171875,11.647265006959438,1.44345868640244,0.5131702159279957
1783170117329626600,6.098626708984375,11.4871293900609,1.5497737196557222,0.6007954174868763
1783170117339696600,6.108696533203125,11.34720069488883,1.6063376106597482,0.5879677923567592
1783170117349765600,6.118765625,11.299707122308016,1.716235032444447,0.53455030961968
1783170117359834400,6.12883447265625,11.197828464066982,1.8536993833296,0.53721266069673
1783170117369904600,6.138904541015625,10.918866561257838,1.9932982620254158,0.6195405960977077
1783170117379973600,6.1489736328125,10.37112980313301,2.2736628712393343,0.8446739511508494
1783170117390042600,6.159042724609375,9.688345692136883,2.5091972818627952,1.0052563619688153
1783170117400112600,6.169112548828125,9.083011316046118,2.584386962881684,1.046426869007945
1783170117410181600,6.179181640625,8.847776911282539,2.6033999986484644,1.0609379171803592
1783170117420251600,6.189251708984375,8.771102836924792,2.647922446464002,0.9900592312283814
1783170117430320400,6.1993203125,8.231525419858098,2.4880887351214884,0.8522039813295006
1783170117440389600,6.2093896484375,7.523646030572056,2.266238420327008,0.8024296043351292
1783170117450459400,6.21945947265625,6.594246873620152,2.1888538596123457,0.6674162998639047
1783170117460528600,6.229528564453125,4.6184740391522645,1.869307579088956,0.16255656043514607
1783170117470597600,6.23959765625,1.5624053838223217,1.5053085549853742,-0.7557121306933462
1783170117480667600,6.249667724609375,-1.8007874389618634,1.158869591361284,-1.6484852921679616
1783170117490736400,6.259736328125,-4.009059700271487,0.6244691385410726,-1.8023551266700029
1783170117500806700,6.269806640625,-4.693447739332914,-0.22897256788983938,-1.0301032915208488
1783170117510875400,6.27987548828125,-5.569879860728979,-1.2086094815641641,0.5368167201817036
1783170117520944600,6.289944580078125,-7.581133758422732,-1.8112148710824547,1.886323888080567
1783170117531014400,6.300014404296875,-10.628768347406387,-2.702679288046062,1.3818700991041957
1783170117541083600,6.310083740234375,-14.707386737072467,-3.1554584193646904,-0.4853145695466548
1783170117551152400,6.32015234375,-18.785299024295806,-2.810261126364767,-2.3600087370447813
1783170117561222700,6.33022265625,-21.507592821133134,-3.0919366720467805,-3.6914930492579936
1783170117571291400,6.34029150390625,-22.387733149397373,-4.13747799039185,-3.569031621715426
1783170117581360600,6.350360595703125,-21.764567348539828,-4.303732382431626,-1.1694241569928825
1783170117591430700,6.3604306640625,-21.90882267473936,-3.5580110460072754,2.033372644390911
1783170117601499600,6.370499755859375,-23.39726324316263,-2.730135742509365,3.701986970743537
1783170117611569700,6.380569580078125,-25.18627198152542,-1.8460753181919454,4.004014984102547
1783170117621638700,6.390638671875,-27.239856369948384,-1.1112359527226536,3.540609537090361
1783170117631707600,6.400707763671875,-27.663765672874447,-0.113564858251065,2.8504055052265524
1783170117641777400,6.41077734375,-25.343202080380916,0.30394568354859947,2.2133085019111634
1783170117651846700,6.4208466796875,-20.728876393079755,-0.1984580410301685,1.4842644517824053
1783170117661915600,6.43091552734375,-15.6507208958745,-0.8831413367111235,0.9346163801435381
1783170117671985700,6.440985595703125,-10.851826576685905,-1.4709323842614888,0.7956693894851953
1783170117682054400,6.451054443359375,-6.472005810829996,-2.03277701658532,0.7106861172698438
1783170117692124700,6.461124755859375,-2.4946535004645582,-2.3961316053055226,0.2136129400640726
1783170117702193400,6.471193359375,0.4787251812189817,-2.5338497848212715,-0.0868204975798726
1783170117712262700,6.4812626953125,2.2982512229204177,-2.315410155253112,-0.14868381016626953
1783170117722332400,6.49133251953125,3.099917733928561,-1.6925108963772653,-0.520817406212911
1783170117732401700,6.501401611328125,3.6343402524501083,-1.029045306900516,-1.0883476098924874
1783170117742470400,6.511470458984375,4.505060425940155,-0.6243302415270358,-1.4056240457877516
1783170117752540700,6.521540771484375,5.314699231001734,-0.3883380041334778,-1.2430948117509484
1783170117762609400,6.531609375,6.136221950602531,-0.21540289222076534,-0.6218530377585441
1783170117772679700,6.5416796875,6.996833402532339,-0.18394845416247843,0.16847257954590023
1783170117782748400,6.55174853515625,8.16279616702497,-0.3579281066920608,0.8564837044753134
1783170117792817700,6.561817626953125,9.34864202811718,-0.6424028546385466,1.3861689653418958
1783170117802887400,6.571887451171875,10.456582227230072,-0.8706205125078559,1.1363073386803269
1783170117812956700,6.581956787109375,10.96308330412507,-0.7293794926282018,0.30869689666368066
1783170117823025400,6.592025390625,10.760387479394673,-0.49673963440246877,-0.7074785534001886
1783170117833095400,6.602095458984375,10.37226611368656,-0.4361961722429841,-1.72315840196684
1783170117843164400,6.612164306640625,9.953453841638565,-0.522708992113173,-2.649399825540185
1783170117853233700,6.622233642578125,9.527697449541092,-0.5970823152478784,-3.011361206336319
1783170117863303700,6.6323037109375,9.235310247969627,-0.6133541625477373,-2.7681901633545754
1783170117873372700,6.64237255859375,9.61505950665176,-0.730299018625915,-2.3813933242484926
1783170117883442700,6.652442626953125,10.121807836306095,-0.8294092350669204,-1.5983929352656006
1783170117893511400,6.662511474609375,10.826572892963886,-0.9986201388247311,-0.5088782178224995
1783170117903580700,6.67258056640625,11.467190179359912,-0.9523892796561121,0.2087947261273861
1783170117913650400,6.682650390625,11.755326737749575,-0.64795676243864,0.11898735822383313
1783170117923719700,6.6927197265625,11.78293955181837,-0.21281207200996577,-0.48267680492158976
1783170117933788400,6.702788330078125,11.361712035322189,0.3218034848656505,-1.1472457890629768
1783170117943858700,6.712858642578125,10.359951406514645,0.8155308587748556,-1.7551935625225306
1783170117953927400,6.722927490234375,9.237602742820977,1.1588176419783383,-2.02259406074509
1783170117963996700,6.73299658203125,8.510978905576467,1.2885234146259725,-1.7669678792074321
1783170117974066400,6.74306640625,8.633082605722546,1.340954297478497,-1.2088628718033432
1783170117984135700,6.7531357421875,9.159794695997238,1.3334047588817775,-0.4851216407904401
1783170117994205400,6.763205322265625,9.745302674111723,1.2050818919599056,0.30509545637192204
1783170118004274700,6.773274658203125,10.39412723236084,1.1962686170376837,0.7779773001238703
1783170118014343400,6.783343505859375,10.631625490403176,1.2731914054594933,0.8249006716012954
1783170118024413700,6.79341357421875,10.316252550041675,1.5767308462947607,0.5246158121151849
1783170118034482400,6.803482421875,9.40591406739056,1.9057253386430442,0.04688958793883212
1783170118044551700,6.8135517578125,8.060656812021136,2.205630076237768,-0.46524011509343977
1783170118054621400,6.823621337890625,6.818634890198707,2.5236302963629362,-0.8785857192333787
1783170118064690700,6.833690673828125,6.390664329183101,2.576409992653131,-0.9445593166828155
1783170118074760400,6.843760498046875,6.806932177445292,2.3517815914474425,-0.6322524858936667
1783170118084829700,6.85382958984375,7.432965058171749,2.0771292224004863,-0.0008362316284328699
1783170118094898400,6.8638984375,7.407526081010698,1.5365049266293644,0.6704756874345242
1783170118104968400,6.873968505859375,6.759501148706674,0.9954280647851527,1.1178872273053972
1783170118115037400,6.884037353515625,4.6668923253625625,0.7039787285856902,1.2482456186428665
1783170118125106700,6.894106689453125,0.08668401171863079,0.7806845132559538,0.9028062605153768
1783170118135176700,6.9041767578125,-6.897962109413743,0.3782625272557139,-0.6082305724563076
1783170118145245400,6.914245361328125,-13.106226967442035,-0.24515666384100912,-2.391360883772373
1783170118155315700,6.924315673828125,-16.592240698730944,-0.5904518642574549,-2.9775702881544825
1783170118165384400,6.934384521484375,-18.256683146226404,-1.7884103340782225,-2.6427836222708225
1783170118175453700,6.94445361328125,-18.027715400642155,-2.758313789245486,-1.1958305178813635
1783170118185523500,6.9545234375,-17.440580698108672,-3.471067214308679,0.98610092205666
1783170118195592700,6.9645927734375,-18.80684917732477,-3.653818859902024,3.189012898442149
1783170118205661400,6.974661376953125,-22.261032184588906,-2.8203873835816977,4.770808042389154
1783170118215731700,6.984731689453125,-26.25284673554897,-1.7273558536566793,4.8128024330317976
1783170118225800400,6.994800537109375,-29.068984352731704,-0.859548645003885,3.7148090429157015
1783170118235869700,7.00486962890625,-29.419622667741773,-0.45613969379290936,1.5846908653885126
1783170118245939500,7.014939453125,-26.998518972134587,-0.3186721280373633,-0.14913363629300147
1783170118256008700,7.0250087890625,-23.18409278616905,-0.3446152553282678,-0.7742026038907468
1783170118266078700,7.03507861328125,-19.27017512935996,-0.4839145665556192,-0.7802794395864009
1783170118276147700,7.045147705078125,-16.43478453017473,-0.5257122655823826,-0.2694194368295371
1783170118286216400,7.055216552734375,-14.769482835501432,-0.4216111089862883,0.747022482150793
1783170118296286500,7.065286376953125,-13.345117556625604,-0.675604867016524,2.0874802282840013
1783170118306355500,7.07535546875,-10.884954939305782,-0.9198286339215934,2.947449875178933
1783170118316424700,7.0854248046875,-7.716423103356361,-0.9741872699663042,3.2315482640936968
1783170118326494700,7.09549462890625,-5.095239318475127,-1.2039904434613882,2.6769068411469457
1783170118336563700,7.105563720703125,-3.1708325141072273,-1.0039768435522913,1.7507491503342985
1783170118346633700,7.1156337890625,-1.384981362992525,-0.5847169008020311,0.8976112491555511
1783170118356702500,7.125702392578125,0.6301794790118932,-0.4737700430296361,0.34578203408531843
1783170118366771700,7.135771728515625,3.0384049883455035,-0.450355995824933,0.11903605620376766
1783170118376841500,7.145841552734375,5.891693647792935,-0.6092620709285139,-0.005340191984176635
1783170118386910700,7.15591064453125,8.160795933118463,-0.4487834858112037,0.20968911768384277
1783170118396979500,7.1659794921875,9.123983962425589,-0.2245851465858519,0.3761621209103614
1783170118407049700,7.1760498046875,9.768440973114966,-0.15181348649412393,0.002819514400139451
1783170118417118500,7.186118408203125,9.817772282516955,-0.053362172353267665,-0.6386631566535681
1783170118427187700,7.196187744140625,9.189244077843426,0.10497150968983769,-1.2662510848022996
1783170118437257500,7.206257568359375,8.414801089325547,0.33759061738848684,-1.739111465641111
1783170118447326700,7.21632666015625,8.103757702600955,0.523807308743894,-1.7335814501732587
1783170118457396500,7.226396484375,8.698523922926187,0.6366175492353737,-1.394150904006511
1783170118467465700,7.2364658203125,9.926860433745384,0.6924835211031138,-1.055083199802786
1783170118477534500,7.246534423828125,11.057026493191719,0.8261223223507403,-1.0044805552907288
1783170118487604700,7.256604736328125,11.460400373089312,0.8339547695420682,-0.9956814550243317
1783170118497673500,7.266673583984375,11.32737371239066,0.7542281757459044,-0.9234817496016621
1783170118507742700,7.27674267578125,10.995048468184471,0.8023337427452206,-0.7245424278605729
1783170118517812500,7.2868125,10.851782153022288,0.8774187943458557,-0.7525145767610519
1783170118527881700,7.2968818359375,10.75507885159254,0.9485406414039432,-0.7802318010523915
1783170118537951700,7.30695166015625,10.692796875202655,1.0991014974884687,-0.6635927960529923
1783170118548020500,7.3170205078125,10.73219832674265,1.1393575200311838,-0.4254961702587083
1783170118558089500,7.32708935546875,10.73814408340454,1.1191069052934646,-0.23847492105476556
1783170118568159500,7.337159423828125,10.812413434708118,1.1986515666514634,-0.04478438668735325
1783170118578228500,7.347228515625,10.959890645563602,1.3090497775651513,0.10630681341420858
1783170118588297700,7.357297607421875,11.099468627601862,1.4872222786746918,0.0891690700000152
1783170118598367700,7.36736767578125,11.174307303225994,1.5959316597186028,0.13473171105086804
1783170118608436500,7.3774365234375,11.120650531840324,1.6768825346127152,0.3810419288411736
1783170118618505500,7.38750537109375,10.812794542980193,1.8280524625062942,0.560649211994186
1783170118628575500,7.397575439453125,10.275125589883327,1.9659069817528128,0.4996741534844041
1783170118638644700,7.407644775390625,9.603594694307446,2.173359499491006,0.19063481832491233
1783170118648714500,7.417714599609375,8.956423748484253,2.3880149343453345,0.0213070010560099
1783170118658783700,7.42778369140625,8.669466170746087,2.549511464333534,-0.11330123887881637
1783170118668852500,7.4378525390625,8.595257609719038,2.642395791997015,-0.20870496548470108
1783170118678922800,7.4479228515625,8.489521691527962,2.5510510949909686,-0.32476690124850716
1783170118688991500,7.457991455078125,8.26027863613367,2.3785149923332036,-0.22261275053434074
1783170118699060700,7.468060791015625,7.733704493024945,2.1234980287350713,0.06451944398521445
1783170118709130500,7.478130615234375,7.165528757983446,1.8970304294034837,0.3364533569868654
1783170118719199700,7.48819970703125,6.0702767755299805,1.7226615583606064,0.37873635531254113
1783170118729269500,7.49826953125,4.282014471620321,1.3219056058764458,0.07118959679836406
1783170118739338800,7.5083388671875,2.5096184298843145,0.4315180243641138,-0.5614235208349302
1783170118749407500,7.518407470703125,0.7143395252108573,-0.6013359541043639,-1.5175937438018618
1783170118759477500,7.5284775390625,-1.4559768071919679,-1.2332698755681515,-2.226421373723447
1783170118769546500,7.53854638671875,-4.092222552126646,-1.5250906754285096,-1.982628107190132
1783170118779615700,7.54861572265625,-7.0909396732062095,-1.7705737947449087,-0.8776768607601523
1783170118789685500,7.558685546875,-10.652532669353484,-2.3247286032184955,0.291899746848084
1783170118799754500,7.56875439453125,-14.10037945933342,-3.041343379884958,1.318176210089773
1783170118809823500,7.578823486328125,-15.607426528549194,-2.66818928168416,2.252523344837874
1783170118819893500,7.5888935546875,-14.550260238862037,-1.9136187222413719,1.307552086353302
1783170118829962500,7.59896240234375,-13.068013264381884,-1.7981125206641853,-0.059853068742528555
1783170118840032500,7.609032470703125,-13.417718682456016,-1.7463827718183398,-0.8702024332262576
1783170118850101800,7.619101806640625,-16.964700384926793,-1.2911195685990153,-0.129540754811652
1783170118860170500,7.62917041015625,-22.81614794704914,0.07616597870513796,0.9068799396950751
1783170118870240800,7.63924072265625,-28.886938517320154,1.9919430480241775,0.7934680069833994
1783170118880309500,7.6493095703125,-33.02797215436697,3.83360347238332,0.4300755704708397
1783170118890378500,7.65937841796875,-31.982802591943738,4.649552191244066,0.8572557848263531
1783170118900448500,7.669448486328125,-26.25040343405008,3.712086924475431,1.6151704670652747
1783170118910517800,7.679517822265625,-18.896767348659036,1.8814836084425448,2.5161647827878593
1783170118920587500,7.68958740234375,-12.434333083772659,0.4801216770786792,2.9644559550374745
1783170118930656800,7.69965673828125,-7.590441100472211,-0.32474567579738794,2.7854671691089865
1783170118940725500,7.7097255859375,-5.359188945591449,-0.6081040599998087,1.994898098437488
1783170118950795800,7.719795654296875,-4.578571652352809,-0.7010172484315932,1.040030226773396
1783170118960864500,7.729864501953125,-3.5421588123589753,-0.7118562570277601,0.4230446489207446
1783170118970933800,7.739933837890625,-2.687701206883788,-0.994339977287501,-0.10146087122038006
1783170118981003500,7.75000341796875,-2.4926912604808806,-1.2618038961350917,-0.6393101493202149
1783170118991072800,7.76007275390625,-2.450706222188473,-1.314310620702803,-0.6858153684508055
1783170119001142500,7.770142578125,-1.2953010920673609,-1.5650313484117389,-0.040498599126935
1783170119011211500,7.78021142578125,0.8874392531007528,-1.9073373038843273,0.9562826338328421
1783170119021280500,7.790280517578125,3.351406523400545,-2.0576891933932897,1.806398995233327
1783170119031350500,7.8003505859375,5.701219591253995,-1.9200981473885474,2.196740228947997
1783170119041419500,7.81041943359375,7.685688942396641,-1.5271585677437483,1.7379620033450425
1783170119051488500,7.820488525390625,8.619078630289435,-1.0711075020823626,0.7118621753118932
1783170119061558500,7.83055859375,8.666565188607573,-0.7575820892836899,-0.4284612671419978
1783170119071627500,7.84062744140625,8.270252917659283,-0.6217671861059964,-1.3024836970478295
1783170119081696500,7.850696533203125,7.928222271996736,-0.5835707264415919,-1.6057690169915555
1783170119091766500,7.8607666015625,7.777643003472686,-0.6430198174931109,-1.647968720947951
1783170119101835500,7.87083544921875,8.08291715914607,-0.7268055504869669,-1.345600515849143
1783170119111905500,7.880905517578125,8.95700768585205,-0.8885998213127255,-0.47606622767541557
1783170119121974800,7.890974853515625,10.075703087735176,-1.1176607250731438,0.3259849352687597
1783170119132043500,7.90104345703125,10.954134273993969,-1.2404887209057807,0.6480030857983976
1783170119142113000,7.911113037109375,11.359514233016967,-1.110253882882744,0.4594749026302248
1783170119152182000,7.92118212890625,11.224954955923556,-0.857663634974882,-0.1025523745178245
1783170119162251000,7.9312509765625,10.865340722775459,-0.5490300128057599,-0.647675680474937
1783170119172321000,7.941321044921875,10.71485205514431,-0.24857450946047902,-0.992288963041827
1783170119182390000,7.95139013671875,10.75684995291829,-0.008230725793913006,-1.1041411721561103
1783170119192459000,7.961458984375,10.591535472077132,0.2494447164237499,-0.8800015773806721
1783170119202529000,7.971529052734375,10.351394006049633,0.40932219384275376,-0.5521094202511012
1783170119212598000,7.981597900390625,10.343577779340743,0.5265647907584905,-0.15038028448638505
1783170119222668000,7.99166796875,10.345863259929418,0.6608935470316558,0.3096077278982848
1783170119232737000,8.001737060546875,10.361405696976185,0.6092168435472994,0.8219540236901491
1783170119242806000,8.011805908203126,10.20441948401928,0.699262148392573,1.0220169426336885
1783170119252876000,8.0218759765625,9.775006322979927,0.8833769720979034,0.8639384774606674
1783170119262945000,8.031945068359375,9.683612233874202,1.0846182871710508,0.6128340841963887
1783170119273014000,8.042013916015625,9.885819982826709,1.4379770401209593,0.44508506968468425
1783170119283084000,8.052083984375,9.620068859246373,1.6135487110823392,0.2684338781245984
1783170119293153000,8.062153076171874,9.053381901457906,1.7345844897359608,0.13224710942720994
1783170119303223000,8.07222314453125,8.07321994099617,1.9427175370842218,0.08049755990235134
1783170119313292000,8.0822919921875,7.126573296645283,1.8591329526856541,0.009585437471652403
1783170119323361300,8.092361328125,6.927213922861218,1.6840785835966467,0.13021055296515113
1783170119333431000,8.10243115234375,6.831929256057739,1.5849213131435214,0.2872327414177358
1783170119343500000,8.1125,6.377412633422017,1.3882881494529544,0.03594715550080873
1783170119353569000,8.122569091796874,5.7080929841548205,1.0386093271248042,-0.44590774771180003
1783170119363639000,8.13263916015625,4.480456146037579,0.6836322522580623,-0.7726785361286252
1783170119373708000,8.1427080078125,3.1082828266918656,0.17118483417928218,-0.6547529253847897
1783170119383777000,8.152777099609375,1.8585189124405384,-0.1174593814715743,-0.19549743765890598
1783170119393847000,8.162846923828125,-0.554811226555705,-0.18561667963564396,0.07649886392131447
1783170119403916000,8.172916015625,-3.771493637689948,-0.5106986747153103,0.26969204322583973
1783170119413986000,8.182986083984375,-6.558849981546402,-0.8101870865941048,0.5803147933855652
1783170119424055000,8.193054931640624,-9.761456521055102,-0.8655665901191532,1.529010479220748
1783170119434124000,8.2031240234375,-13.42496441580057,-0.5375875584237277,3.0793115837514398
1783170119444194000,8.213194091796876,-16.36119088617563,-0.18298750017583368,4.209003595945239
1783170119454263000,8.223262939453125,-18.705306034648416,0.5914732431944459,4.33018959672451
1783170119464332000,8.23333203125,-20.76305689510107,1.3932809893041849,4.156661414289474
1783170119474402000,8.243402099609375,-22.54825922691822,1.956613083706796,4.043326127010584
1783170119484471000,8.253470947265624,-23.686870458626746,2.063527251897007,3.7640789775192736
1783170119494540000,8.2635400390625,-23.57040797923803,1.7654422770753502,3.329324455451965
1783170119504610000,8.273610107421876,-21.88228070477247,1.455819863064587,2.815826651537418
1783170119514679000,8.283678955078125,-19.624812743139266,0.6817837748471647,2.4252137612745166
1783170119524749000,8.2937490234375,-19.169006080693006,-0.3330059930119663,4.024290879411995
1783170119534818000,8.303818115234375,-17.705530442178247,-1.6556369174882768,4.3105519993186
1783170119544887000,8.313886962890624,-10.388210701793431,-1.7589178437426685,0.06061228961199522
1783170119554957000,8.32395703125,-7.053156762778759,-0.5928451891347766,0.5910587441094219
1783170119565026000,8.334026123046876,-5.478415044474602,-1.974167298967391,2.092713598892838
1783170119575095000,8.344094970703125,-3.6939766827672718,-2.3752513143621385,2.214734296930581
1783170119585165000,8.3541650390625,-2.2457541429638863,-1.6663796991683542,1.6720537992820144
1783170119595234000,8.364234130859375,-1.34776543879807,-1.3992052647866309,1.1796228949241339
1783170119605303000,8.374302978515624,-0.7096785476624965,-1.1888979421392083,0.4695912960402667
1783170119615373000,8.384373046875,-0.29757950951755047,-0.8695484993621706,-0.16351824507415294
1783170119625442000,8.394442138671875,0.29399405224621294,-0.6721583798244595,-0.7650592202313244
1783170119635512000,8.404511962890625,0.9527373624414205,-0.5191661684071645,-1.0382428318999708
1783170119645581000,8.4145810546875,1.154179387718439,-0.4262146937916055,-0.7206384792245925
1783170119655650000,8.424650146484375,1.5894477045267819,-0.6996421606861054,0.047345688542723655
1783170119665720000,8.434719970703124,1.9722353079915045,-1.0302970605272799,-0.5502390963345766
1783170119675789000,8.4447890625,3.153186382779479,-0.5596413501258939,-0.10536123965978622
1783170119685858000,8.454858154296875,4.379225138050318,-0.7953386962261051,-0.5721843861609697
1783170119695928000,8.464927978515625,5.646769623664021,-0.7042259082797915,-1.0517287748083473
1783170119705997000,8.4749970703125,6.544619796141982,-0.3656489102024585,-1.2221737504057586
1783170119716066000,8.485066162109375,6.251579683619737,-0.26175292078964413,-1.3097158402584492
1783170119726136000,8.495135986328124,5.514459002280235,-0.19686339224986732,-1.4893889551892876
1783170119736205000,8.505205078125,5.002447637531161,0.03650368427187204,-1.6713107258297502
1783170119746275000,8.515275146484376,4.877239541628956,0.24538660013936459,-1.6272865829251706
1783170119756344000,8.525343994140625,4.951095051434636,0.33035788965597745,-1.5049436671957372
1783170119766413000,8.5354130859375,5.312509612002969,0.4991550980463624,-1.4315744796022771
1783170119776483000,8.545483154296875,5.619053933742642,0.7727629264764487,-1.3642830044873058
1783170119786552000,8.555552001953124,5.8997892759650945,1.0155420475311576,-1.3606417253755032
1783170119796621000,8.56562109375,6.21647388344705,1.0897820266097784,-1.416708918903768
1783170119806691000,8.575691162109376,6.527140838074684,1.2296953780822455,-1.4396192543700337
1783170119816760000,8.585760009765625,6.649037617471814,1.3006208257853984,-1.4668912921771406
1783170119826829000,8.5958291015625,6.425041230559349,1.2900281201004982,-1.4397477030552923
1783170119836899000,8.605899169921875,6.067078856271505,1.3428275440044701,-1.5022934449478984
1783170119846967800,8.6159677734375,5.71559006191194,1.1998385844789445,-1.6454983853116631
1783170119857038000,8.6260380859375,5.332040241903067,0.9894739786863327,-1.652803739888966
1783170119867107000,8.636107177734376,4.6349254077374935,0.805668586256355,-1.3484578049764036
1783170119877176000,8.646176025390625,3.8597891762584444,0.3955535615354776,-0.7961634566124528
1783170119887246000,8.65624609375,3.0997084750920534,-0.12506927195340395,-0.021362010045722125
1783170119897315000,8.666315185546875,2.2064766100645063,-0.6024842473566532,0.5316949932537972
1783170119907384000,8.676384033203124,1.489425487807393,-0.9050614190310239,0.7400512548986822
1783170119917454000,8.6864541015625,1.0156482843846082,-0.85644790250957,0.851514756956324
1783170119927523000,8.696523193359376,0.4908604401707649,-0.3834942904293537,0.801042533890903
1783170119937592000,8.706592041015625,-0.27927228393256665,0.2878109796971082,0.7287785310603678
1783170119947662000,8.716662109375,-1.1757833167612552,0.7604287839516997,0.6603069793153554
1783170119957731000,8.72673095703125,-1.8999504085034131,1.1391948768153786,0.4803478870499879
1783170119967801000,8.736801025390625,-2.3476328012049197,1.3117878242269159,0.3068359981626272
1783170119977870000,8.7468701171875,-2.868578583037853,1.0820211833499371,0.4084943647164851
1783170119987939000,8.75693896484375,-3.172700061544776,1.1120669236540794,0.5094627762448042
1783170119998009000,8.767009033203125,-2.9073703782469034,1.1708541897960008,0.8876764228574932
1783170120008078000,8.777078125,-2.6562019067704674,1.219696546637267,1.0816619946487247
1783170120018147000,8.78714697265625,-1.9093816691935062,1.0393944861531257,1.0518564928412437
1783170120028217000,8.797217041015625,-0.6743909611821174,1.9340628137245772,1.1577582691185175
1783170120038286000,8.8072861328125,-1.4968249504089355,1.69801329318583,1.0227668842181563
1783170120048355000,8.81735498046875,-1.4673486805558205,1.2284255042769014,0.945092839037627
1783170120058424800,8.8274248046875,-2.4036165542334316,1.543785146765411,1.0804884208247065
1783170120068494000,8.837494140625,-3.240320476353168,0.8662259308107196,0.9418966733448206
