time,seconds_elapsed,z,y,x
1783170111308137700,0.0771376953125,0.3190779685974121,-0.010149224661290646,0.017056848853826523
1783170111318206500,0.08720654296875,0.29819098114967346,-0.003922867588698864,0.005021723452955484
1783170111328276700,0.09727685546875,0.266657292842865,-0.03323867917060852,-0.05867656320333481
1783170111338345500,0.107345458984375,0.2249615490436554,-0.07965759932994843,-0.11581724882125854
1783170111348415500,0.11741552734375,0.18392278254032135,-0.11079687625169754,-0.1362258493900299
1783170111358484500,0.127484375,0.15239080786705017,-0.14374613761901855,-0.12544645369052887
1783170111368553700,0.1375537109375,0.14103135466575623,-0.16458004713058472,-0.11766336113214493
1783170111378623500,0.14762353515625,0.1269868016242981,-0.16804993152618408,-0.11986483633518219
1783170111388692700,0.157692626953125,0.12069401890039444,-0.16078883409500122,-0.14372515678405762
1783170111398761500,0.167761474609375,0.1146060898900032,-0.15025892853736877,-0.15793587267398834
1783170111408831500,0.17783154296875,0.11230804771184921,-0.14326679706573486,-0.15906265377998352
1783170111418900500,0.187900390625,0.1049455925822258,-0.14785687625408173,-0.129428893327713
1783170111428970500,0.197970458984375,0.09393155574798584,-0.1419406533241272,-0.11366138607263565
1783170111439039500,0.20803955078125,0.07745011150836945,-0.124069944024086,-0.12850581109523773
1783170111449108500,0.2181083984375,0.06713063269853592,-0.08828157931566238,-0.1795564889907837
1783170111459178500,0.228178466796875,0.06698112934827805,-0.041140712797641754,-0.2582414746284485
1783170111469247500,0.23824755859375,0.08800812065601349,0.0013971617445349693,-0.33295750617980957
1783170111479317800,0.24831787109375,0.11502769589424133,0.02992483228445053,-0.37969470024108887
1783170111489386500,0.258386474609375,0.13175927102565765,0.0463394895195961,-0.4151421785354614
1783170111499455500,0.26845556640625,0.14048723876476288,0.07890965044498444,-0.4280257821083069
1783170111509525500,0.278525390625,0.14549584686756134,0.11806344985961914,-0.4106510579586029
1783170111519594800,0.2885947265625,0.1578076034784317,0.1520371437072754,-0.38845154643058777
1783170111529664500,0.29866455078125,0.16481304168701172,0.2150089293718338,-0.38379210233688354
1783170111539733800,0.308733642578125,0.17338250577449799,0.29009565711021423,-0.371454656124115
1783170111549802500,0.318802490234375,0.15625624358654022,0.41599950194358826,-0.33906450867652893
1783170111559872500,0.32887255859375,0.14452998340129852,0.5662618279457092,-0.26922017335891724
1783170111569941500,0.33894140625,0.13126185536384583,0.7406163215637207,-0.18397559225559235
1783170111580011500,0.349011474609375,0.13229531049728394,0.8900225758552551,-0.14511720836162567
1783170111590080500,0.35908056640625,0.10937828570604324,0.9460850358009338,-0.16598813235759735
1783170111600149500,0.3691494140625,0.05707621946930885,0.8798224925994873,-0.1677996814250946
1783170111610219500,0.379219482421875,0.058656539767980576,0.6433252692222595,-0.08679910749197006
1783170111620288500,0.38928857421875,0.10091406852006912,0.33411309123039246,0.04010213539004326
1783170111630358500,0.399358642578125,0.03435022383928299,0.18490684032440186,0.17828796803951263
1783170111640427500,0.409427490234375,-0.0343422032892704,0.1751953363418579,0.3259306848049164
1783170111650496500,0.41949658203125,-0.06410009413957596,0.23720836639404297,0.3744121789932251
1783170111660566500,0.42956640625,0.009890804998576641,0.32233354449272156,0.2615335285663605
1783170111670635500,0.439635498046875,0.09086261689662933,0.3537210524082184,0.03873268887400627
1783170111680705500,0.44970556640625,0.16093099117279053,0.31363749504089355,-0.1793437898159027
1783170111690774500,0.4597744140625,0.2614527940750122,0.2194787561893463,-0.2742505967617035
1783170111700843500,0.469843505859375,0.30188873410224915,0.11846452951431274,-0.39139053225517273
1783170111710913500,0.47991357421875,0.321064293384552,-0.04329507425427437,-0.38958171010017395
1783170111720982500,0.489982421875,0.20081982016563416,-0.16809320449829102,-0.18924303352832794
1783170111731052500,0.500052490234375,0.08109208941459656,-0.18910421431064606,-0.11209577322006226
1783170111741121500,0.51012158203125,0.05814213305711746,-0.1615614891052246,-0.1537124067544937
1783170111751190800,0.520190673828125,0.05254256725311279,-0.06962332129478455,-0.15952502191066742
1783170111761260500,0.530260498046875,0.09543966501951218,0.23895007371902466,-0.09723898768424988
1783170111771329500,0.54032958984375,0.21083709597587585,0.7460684180259705,0.06893720477819443
1783170111781399600,0.550399658203125,0.36126723885536194,1.2185025215148926,0.294946551322937
1783170111791468500,0.560468505859375,0.42547497153282166,1.3853106498718262,0.5395161509513855
1783170111801537500,0.57053759765625,0.35200566053390503,1.1336479187011719,0.7458457350730896
1783170111811607600,0.580607666015625,0.17106011509895325,0.578090488910675,0.8624727129936218
1783170111821676500,0.590676513671875,-0.037981677800416946,0.020256876945495605,0.7854553461074829
1783170111831746600,0.60074658203125,-0.18542999029159546,-0.38840147852897644,0.5365805625915527
1783170111841815600,0.610815673828125,-0.2476796656847,-0.5830248594284058,0.22762423753738403
1783170111851884500,0.620884521484375,-0.16186729073524475,-0.5138385891914368,-0.06517620384693146
1783170111861954600,0.63095458984375,0.029810220003128052,-0.3479888439178467,-0.21203941106796265
1783170111872023600,0.6410234375,0.190961554646492,-0.20599548518657684,-0.05571825057268143
1783170111882093600,0.651093505859375,0.1600019633769989,-0.12234777212142944,0.298810213804245
1783170111892162600,0.66116259765625,-0.05456998944282532,-0.16031353175640106,0.6248343586921692
1783170111902231600,0.6712314453125,-0.25274592638015747,-0.29870301485061646,0.7633023858070374
1783170111912301600,0.681301513671875,-0.2972249686717987,-0.3138990104198456,0.6853628754615784
1783170111922370600,0.69137060546875,-0.22164656221866608,-0.1621125340461731,0.5768618583679199
1783170111932440600,0.701440673828125,-0.12385661900043488,0.13770747184753418,0.5249803066253662
1783170111942509600,0.711509521484375,-0.10222825407981873,0.4565572738647461,0.5815442800521851
1783170111952578600,0.72157861328125,-0.20793284475803375,0.633493185043335,0.7119704484939575
1783170111962648600,0.731648681640625,-0.3737446665763855,0.5754619240760803,0.7584338784217834
1783170111972717600,0.741717529296875,-0.5346403121948242,0.3377252519130707,0.5970372557640076
1783170111982786600,0.75178662109375,-0.6089088916778564,0.12625877559185028,0.3325625956058502
1783170111992856600,0.761856689453125,-0.5406853556632996,-0.014537224546074867,0.05221323296427727
1783170112002925600,0.771925537109375,-0.3038274943828583,0.0069768899120390415,-0.22783233225345612
1783170112012995600,0.78199560546875,0.04689031094312668,0.11534038186073303,-0.5302697420120239
1783170112023064600,0.792064697265625,0.4007073640823364,0.20807336270809174,-0.8816168904304504
1783170112033133600,0.802133544921875,0.6630553603172302,0.20696228742599487,-1.2094871997833252
1783170112043203600,0.81220361328125,0.8024587631225586,0.11944032460451126,-1.4546244144439697
1783170112053272600,0.8222724609375,0.8483282327651978,0.023798223584890366,-1.5004987716674805
1783170112063342600,0.832342529296875,0.8573533892631531,-0.05029265582561493,-1.3203986883163452
1783170112073411600,0.84241162109375,0.8294029831886292,-0.05432814359664917,-0.9941463470458984
1783170112083480600,0.85248046875,0.751142680644989,-0.04212874919176102,-0.5826417803764343
1783170112093550300,0.86255029296875,0.6835529804229736,-0.017567478120326996,-0.17653368413448334
1783170112103619600,0.87261962890625,0.7036677002906799,0.013969959691166878,0.18803657591342926
1783170112113689600,0.882689697265625,0.7894979119300842,0.040301162749528885,0.4657893776893616
1783170112123758600,0.892758544921875,0.8627630472183228,0.011303195729851723,0.5467299222946167
1783170112133828000,0.902828125,0.8576422929763794,-0.14006954431533813,0.3873317837715149
1783170112143898400,0.9128984375,0.7887486219406128,-0.3697793185710907,0.08163994550704956
1783170112153967000,0.922967041015625,0.6864163875579834,-0.610315203666687,-0.2251780480146408
1783170112164037000,0.933037109375,0.5783121585845947,-0.7409652471542358,-0.38976630568504333
1783170112174106000,0.943106201171875,0.48890745639801025,-0.7149882316589355,-0.3489275276660919
1783170112184175400,0.95317529296875,0.4232979714870453,-0.5216256976127625,-0.17308881878852844
1783170112194245000,0.9632451171875,0.3616234362125397,-0.2182636857032776,0.06594933569431305
1783170112204314000,0.973314208984375,0.31826716661453247,0.06802891939878464,0.28827059268951416
1783170112214384000,0.983384033203125,0.3114878237247467,0.2805366516113281,0.42149123549461365
1783170112224453000,0.993453125,0.3223003149032593,0.3773999512195587,0.4843565821647644
1783170112234522000,1.003522216796875,0.3014240860939026,0.34901946783065796,0.4814782440662384
1783170112244592000,1.013592041015625,0.26734796166419983,0.23650726675987244,0.4211236536502838
1783170112254661000,1.0236611328125,0.22694197297096252,0.14167742431163788,0.3037818372249603
1783170112264731100,1.033731201171875,0.20922695100307465,0.11903484165668488,0.1594838798046112
1783170112274800000,1.043800048828125,0.23489423096179962,0.14237025380134583,0.02068152092397213
1783170112284869000,1.053869140625,0.30011042952537537,0.1809217780828476,-0.026765968650579453
1783170112294939400,1.063939453125,0.3633136451244354,0.20933078229427338,0.004202334210276604
1783170112305008000,1.074008056640625,0.406040757894516,0.2110918164253235,0.0656822994351387
1783170112315077000,1.0840771484375,0.42597559094429016,0.18998412787914276,0.12746471166610718
1783170112325147100,1.094147216796875,0.4331182539463043,0.12260083109140396,0.1727665513753891
1783170112335216400,1.10421630859375,0.4471472501754761,-0.0016372296959161758,0.1850498467683792
1783170112345286100,1.1142861328125,0.4733082354068756,-0.27271148562431335,0.13570979237556458
1783170112355355100,1.124355224609375,0.5133715271949768,-0.5824525356292725,-0.009301459416747093
1783170112365424000,1.134424072265625,0.5407004952430725,-0.8451653718948364,-0.18305657804012299
1783170112375494100,1.144494140625,0.5540224313735962,-0.9943426251411438,-0.26581430435180664
1783170112385563100,1.154563232421875,0.5140426754951477,-1.0009608268737793,-0.2646682560443878
1783170112395633200,1.164633056640625,0.44920822978019714,-0.9330675601959229,-0.21177013218402863
1783170112405702100,1.1747021484375,0.3503141701221466,-0.843054473400116,-0.0953320637345314
1783170112415771100,1.184771240234375,0.2548733949661255,-0.7504430413246155,0.048418182879686356
1783170112425841200,1.194841064453125,0.2165500819683075,-0.6858368515968323,0.13138237595558167
1783170112435910100,1.20491015625,0.22845759987831116,-0.5419744849205017,0.11607959121465683
1783170112445980200,1.214980224609375,0.25718942284584045,-0.2931519150733948,0.02652742527425289
1783170112456049200,1.225049072265625,0.3215402066707611,-0.00020206626504659653,-0.04904695972800255
1783170112466118100,1.2351181640625,0.3465844690799713,0.31590980291366577,-0.002120214281603694
1783170112476188200,1.245188232421875,0.28773126006126404,0.5856243968009949,0.022280734032392502
1783170112486257200,1.255257080078125,0.18031898140907288,0.7523037791252136,-0.19408173859119415
1783170112496327200,1.2653271484375,0.051469117403030396,0.6691995859146118,-0.5541224479675293
1783170112506396400,1.275396484375,-0.07824429124593735,0.42638733983039856,-0.7249413728713989
1783170112516465200,1.285465087890625,-0.11113832145929337,0.21300314366817474,-0.5794119238853455
1783170112526535200,1.29553515625,-0.009724786505103111,0.5153299570083618,-0.5922062397003174
1783170112536604200,1.305604248046875,0.18375493586063385,1.3971694707870483,-1.000805139541626
1783170112546673200,1.315673095703125,0.30522358417510986,2.1369824409484863,-1.329632043838501
1783170112556743200,1.3257431640625,0.37378162145614624,2.3902359008789062,-1.3871890306472778
1783170112566812200,1.335812255859375,0.3389689028263092,1.9079790115356445,-1.0350267887115479
1783170112576882200,1.345882080078125,0.1116715669631958,0.8558456301689148,-0.4481116235256195
1783170112586951200,1.355951171875,-0.18489716947078705,-0.11955692619085312,0.02073642611503601
1783170112597020200,1.366020263671875,-0.3971194326877594,-0.6495392918586731,0.314373642206192
1783170112607090200,1.376090087890625,-0.4884127378463745,-0.7785000801086426,0.5303553938865662
1783170112617159200,1.3861591796875,-0.4551146924495697,-0.6114085912704468,0.6629384160041809
1783170112627229200,1.396229248046875,-0.389992892742157,-0.326686292886734,0.5898719429969788
1783170112637298200,1.406298095703125,-0.28456154465675354,-0.12458755075931549,0.2888825237751007
1783170112647367200,1.4163671875,-0.11360080540180206,-0.1092449203133583,-0.1655338704586029
1783170112657437200,1.426437255859375,0.07114268094301224,-0.3293780982494354,-0.6720346212387085
1783170112667506200,1.436506103515625,0.20922476053237915,-0.6663112640380859,-1.0708439350128174
1783170112677575200,1.4465751953125,0.24343305826187134,-1.0141645669937134,-1.185815691947937
1783170112687645200,1.456645263671875,0.20435087382793427,-1.2875059843063354,-1.038577914237976
1783170112697714200,1.466714111328125,0.15340405702590942,-1.368227243423462,-0.7704095840454102
1783170112707784200,1.4767841796875,0.11072291433811188,-1.2950431108474731,-0.4574061334133148
1783170112717853200,1.486853271484375,0.11530061811208725,-1.091913104057312,-0.1405126005411148
1783170112727922200,1.496922119140625,0.16641008853912354,-0.8117954730987549,0.1509595364332199
1783170112737992200,1.5069921875,0.22024375200271606,-0.6048345565795898,0.34211644530296326
1783170112748061200,1.517061279296875,0.23880527913570404,-0.614901065826416,0.3637053668498993
1783170112758131200,1.527131103515625,0.23493224382400513,-0.7653917670249939,0.2163068652153015
1783170112768200200,1.5372001953125,0.20278316736221313,-0.9553383588790894,-0.006088574882596731
1783170112778269200,1.547269287109375,0.1481526792049408,-1.0762629508972168,-0.18542157113552094
1783170112788339200,1.557339111328125,0.06717724353075027,-1.0661958456039429,-0.1984594464302063
1783170112798408200,1.567408203125,-0.02269565686583519,-0.9395579695701599,-0.020729664713144302
1783170112808478200,1.577478271484375,-0.10811974108219147,-0.7295839786529541,0.2549282908439636
1783170112818547200,1.587547119140625,-0.15686598420143127,-0.45462992787361145,0.5112628936767578
1783170112828616200,1.5976162109375,-0.15226759016513824,-0.18910659849643707,0.676446259021759
1783170112838686200,1.607686279296875,-0.05942578613758087,0.021763555705547333,0.6946777701377869
1783170112848755200,1.617755126953125,0.08169685304164886,0.14886479079723358,0.5781539082527161
1783170112858824200,1.62782421875,0.17492321133613586,0.17170006036758423,0.37097224593162537
1783170112868894200,1.637894287109375,0.20923596620559692,0.11981621384620667,0.15033525228500366
1783170112878963200,1.647963134765625,0.20018254220485687,0.03485897555947304,-0.03389957547187805
1783170112889033000,1.658032958984375,0.16923868656158447,-0.04139052331447601,-0.12346556037664413
1783170112899102200,1.668102294921875,0.11915289610624313,-0.09042944014072418,-0.0951010212302208
1783170112909171200,1.678171142578125,0.07028468698263168,-0.07260703295469284,0.0326223187148571
1783170112919241200,1.6882412109375,0.015455793589353561,-0.004777120426297188,0.2045850306749344
1783170112929310200,1.698310302734375,-0.03855930641293526,0.11207053065299988,0.39100250601768494
1783170112939380200,1.708380126953125,-0.04969504848122597,0.2648366391658783,0.5605577230453491
1783170112949449000,1.718448974609375,-0.011162547394633293,0.3659716546535492,0.6655697822570801
1783170112959518200,1.728518310546875,0.052183400839567184,0.3705557584762573,0.6606583595275879
1783170112969588200,1.738588134765625,0.12625010311603546,0.2610871493816376,0.5340362191200256
1783170112979657200,1.7486572265625,0.2066032588481903,0.06687881052494049,0.3430694341659546
1783170112989727200,1.758727294921875,0.27015742659568787,-0.15503042936325073,0.1748528778553009
1783170112999796200,1.768796142578125,0.30616655945777893,-0.3219730854034424,0.09239287674427032
1783170113009865200,1.778865234375,0.2970261573791504,-0.43653491139411926,0.14712612330913544
1783170113019935200,1.788935302734375,0.23113343119621277,-0.4745368957519531,0.27426624298095703
1783170113030004200,1.799004150390625,0.16453588008880615,-0.4318179786205292,0.3871541917324066
1783170113040073200,1.8090732421875,0.14163190126419067,-0.31200581789016724,0.4794228672981262
1783170113050143200,1.819143310546875,0.12049122154712677,-0.11634358763694763,0.4834512770175934
1783170113060212200,1.829212158203125,0.08340617269277573,0.1834564507007599,0.2652718126773834
1783170113070282200,1.8392822265625,0.031377896666526794,0.5399399995803833,-0.1096889078617096
1783170113080351200,1.849351318359375,-0.061348576098680496,0.8679887056350708,-0.34220391511917114
1783170113090420200,1.859420166015625,-0.2480096071958542,1.0176912546157837,-0.0909041166305542
1783170113100490000,1.869489990234375,-0.5214808583259583,1.000868797302246,0.6446886658668518
1783170113110559200,1.879559326171875,-0.6683275103569031,1.0885463953018188,1.3541301488876343
1783170113120628200,1.889628173828125,-0.5638288259506226,1.1076812744140625,1.5998163223266602
1783170113130698200,1.8996982421875,-0.2959369719028473,0.9116708040237427,1.4055180549621582
1783170113140767000,1.90976708984375,-0.0401666983962059,0.6479821801185608,0.8845192790031433
1783170113150836700,1.919836669921875,0.06551995873451233,0.6065415143966675,0.29228442907333374
1783170113160905700,1.92990576171875,-0.13666510581970215,0.8665507435798645,-0.12951074540615082
1783170113170974700,1.939974609375,-0.5868066549301147,1.2705408334732056,-0.19565604627132416
1783170113181044700,1.950044677734375,-0.9184160232543945,1.508238673210144,0.08189592510461807
1783170113191113700,1.96011376953125,-0.852620542049408,1.563137412071228,0.6170675158500671
1783170113201183700,1.970183837890625,-0.5419662594795227,1.4587066173553467,1.0421844720840454
1783170113211252700,1.980252685546875,-0.23618558049201965,1.155449628829956,1.0257853269577026
1783170113221321700,1.99032177734375,-0.02332630567252636,0.5953356623649597,0.6714484691619873
1783170113231392000,2.00039208984375,0.10968858003616333,-0.13111895322799683,0.17589445412158966
1783170113241460700,2.010460693359375,0.1834176629781723,-0.7888736724853516,-0.3050391376018524
1783170113251529700,2.02052978515625,0.1516246348619461,-1.0639959573745728,-0.7061295509338379
1783170113261599700,2.030599853515625,-0.00872669368982315,-0.9100226163864136,-0.9592406153678894
1783170113271669000,2.0406689453125,-0.17041948437690735,-0.5403706431388855,-1.0594440698623657
1783170113281738800,2.05073876953125,-0.2170727401971817,-0.18295367062091827,-1.028095006942749
1783170113291808000,2.06080810546875,-0.16187816858291626,-0.012723853811621666,-1.01405930519104
1783170113301876700,2.070876708984375,-0.006904036737978458,-0.0989580750465393,-1.0978535413742065
1783170113311946800,2.08094677734375,0.2007608711719513,-0.43500110507011414,-1.175016164779663
1783170113322015700,2.091015625,0.32071739435195923,-0.8481566905975342,-1.141710877418518
1783170113332085800,2.101085693359375,0.3367973268032074,-1.1289252042770386,-1.0619999170303345
1783170113342154800,2.11115478515625,0.3050106167793274,-1.23735773563385,-0.95294588804245
1783170113352224000,2.12122412109375,0.28482285141944885,-1.2205150127410889,-0.8602521419525146
1783170113362293800,2.131293701171875,0.28488993644714355,-1.093862771987915,-0.772736132144928
1783170113372362800,2.14136279296875,0.2772963047027588,-0.978638231754303,-0.6529590487480164
1783170113382431700,2.151431640625,0.28800168633461,-0.7968820333480835,-0.5102823376655579
1783170113392501800,2.161501708984375,0.24308599531650543,-0.5733251571655273,-0.3305318355560303
1783170113402570800,2.17157080078125,0.1077265813946724,-0.48106497526168823,-0.13819517195224762
1783170113412640800,2.181640869140625,-0.0610700361430645,-0.5540861487388611,0.021105915307998657
1783170113422709800,2.191709716796875,-0.2016226202249527,-0.767095148563385,0.16839444637298584
1783170113432778800,2.20177880859375,-0.3326929211616516,-0.8762879371643066,0.2854028344154358
1783170113442848800,2.211848876953125,-0.4491114020347595,-0.7143123149871826,0.3350942134857178
1783170113452917800,2.221917724609375,-0.5241386294364929,-0.3379066288471222,0.32654765248298645
1783170113462987800,2.23198779296875,-0.5038003325462341,0.015187513083219528,0.35131797194480896
1783170113473056800,2.242056884765625,-0.3908900022506714,0.2036021649837494,0.44056493043899536
1783170113483125800,2.252125732421875,-0.2487160712480545,0.30139610171318054,0.5308077335357666
1783170113493195800,2.26219580078125,-0.15853258967399597,0.26860567927360535,0.5222200155258179
1783170113503265000,2.27226513671875,-0.11690791696310043,0.051353275775909424,0.3809494376182556
1783170113513333800,2.282333740234375,-0.07002897560596466,-0.2372055947780609,0.15201325714588165
1783170113523403800,2.29240380859375,0.0014324202202260494,-0.49727070331573486,-0.03961370512843132
1783170113533472800,2.30247265625,0.07842283695936203,-0.6649501323699951,-0.1373317986726761
1783170113543542800,2.312542724609375,0.1457536667585373,-0.6651549339294434,-0.12063431739807129
1783170113553611800,2.32261181640625,0.19897601008415222,-0.5829417705535889,-0.02817000448703766
1783170113563680800,2.3326806640625,0.233061283826828,-0.4907764792442322,0.0915239080786705
1783170113573750800,2.342750732421875,0.2558390498161316,-0.43210822343826294,0.20877458155155182
1783170113583819800,2.35281982421875,0.2617954909801483,-0.3707559108734131,0.3084034323692322
1783170113593889800,2.362889892578125,0.22734013199806213,-0.3318560719490051,0.36121299862861633
1783170113603958800,2.372958740234375,0.1946708709001541,-0.3077999949455261,0.36195123195648193
1783170113614027800,2.38302783203125,0.16519632935523987,-0.3132886290550232,0.3403531312942505
1783170113624097800,2.393097900390625,0.15544143319129944,-0.33622536063194275,0.3426288068294525
1783170113634166800,2.403166748046875,0.14093483984470367,-0.329071581363678,0.36180752515792847
1783170113644235800,2.41323583984375,0.09553300589323044,-0.34133702516555786,0.388179212808609
1783170113654305800,2.423305908203125,0.03893021121621132,-0.3463701903820038,0.41675955057144165
1783170113664374800,2.433374755859375,-0.012673592194914818,-0.3014565110206604,0.4501281678676605
1783170113674444800,2.44344482421875,-0.03974774852395058,-0.18661898374557495,0.46166184544563293
1783170113684513800,2.453513671875,-0.042630884796381,-0.009776560589671135,0.4751659333705902
1783170113694582800,2.463582763671875,-0.03579705208539963,0.19904950261116028,0.4650023579597473
1783170113704652800,2.47365283203125,-0.006789369974285364,0.39785236120224,0.34732791781425476
1783170113714721800,2.4837216796875,-0.0026658019050955772,0.5855712294578552,0.08484402298927307
1783170113724790800,2.493790771484375,-0.06916839629411697,0.7374987006187439,-0.30433863401412964
1783170113734860800,2.50386083984375,-0.2501397430896759,0.8730919361114502,-0.6112492084503174
1783170113744929800,2.5139296875,-0.4586428701877594,1.0723563432693481,-0.6825761198997498
1783170113754999800,2.523999755859375,-0.5418745279312134,1.3828823566436768,-0.4746541380882263
1783170113765068800,2.53406884765625,-0.45590558648109436,1.5827233791351318,0.027308601886034012
1783170113775137800,2.5441376953125,-0.31126606464385986,1.616737961769104,0.5208548307418823
1783170113785207800,2.554207763671875,-0.20881743729114532,1.4625039100646973,0.5938102602958679
1783170113795276800,2.56427685546875,-0.19468988478183746,1.2417134046554565,0.08845032751560211
1783170113805346800,2.574346923828125,-0.2013440579175949,1.0356653928756714,-0.7396886348724365
1783170113815415800,2.584415771484375,-0.11733774095773697,1.028264045715332,-1.5310850143432617
1783170113825484800,2.59448486328125,-0.0022218062076717615,1.0420781373977661,-1.9114373922348022
1783170113835554800,2.604554931640625,0.07357996702194214,0.9549492597579956,-1.7143313884735107
1783170113845623800,2.614623779296875,0.031849831342697144,0.812215268611908,-1.1146507263183594
1783170113855692800,2.62469287109375,-0.11731267720460892,0.5913090109825134,-0.38225769996643066
1783170113865762800,2.6347626953125,-0.3444606065750122,0.4061143696308136,0.23435518145561218
1783170113875831800,2.644831787109375,-0.5219667553901672,0.3695601224899292,0.63774174451828
1783170113885901600,2.654901611328125,-0.5718618631362915,0.43541795015335083,0.912857711315155
1783170113895970800,2.664970703125,-0.5371869802474976,0.37407761812210083,1.0755795240402222
1783170113906039800,2.675039794921875,-0.45089924335479736,0.17215730249881744,1.008946180343628
1783170113916109800,2.68510986328125,-0.3655549883842468,-0.20471860468387604,0.6775847673416138
1783170113926178800,2.6951787109375,-0.30054163932800293,-0.662425696849823,0.14484572410583496
1783170113936247800,2.705247802734375,-0.23963488638401031,-1.1321617364883423,-0.46707823872566223
1783170113946317800,2.71531787109375,-0.2169886976480484,-1.5004411935806274,-0.951758861541748
1783170113956386800,2.72538671875,-0.19141656160354614,-1.6228704452514648,-1.2363765239715576
1783170113966456800,2.735456787109375,-0.14032328128814697,-1.4648385047912598,-1.3395881652832031
1783170113976525800,2.74552587890625,-0.08241897821426392,-1.0984610319137573,-1.2740083932876587
1783170113986594800,2.7555947265625,-0.04196369647979736,-0.6493455767631531,-1.0943981409072876
1783170113996664800,2.765664794921875,-0.02917921543121338,-0.24736115336418152,-0.8549970984458923
1783170114006733800,2.77573388671875,-0.044858574867248535,0.07140671461820602,-0.5726360082626343
1783170114016803800,2.785803955078125,-0.08771540224552155,0.2556348741054535,-0.2742634117603302
1783170114026872800,2.795872802734375,-0.18301182985305786,0.30802857875823975,0.02610841393470764
1783170114036941800,2.80594189453125,-0.33721187710762024,0.18951576948165894,0.2878585159778595
1783170114047011800,2.81601171875,-0.5435956716537476,-0.1329786479473114,0.4821222722530365
1783170114057080800,2.826080810546875,-0.7675707340240479,-0.6250201463699341,0.5649262070655823
1783170114067149800,2.83614990234375,-0.8846638202667236,-1.0847997665405273,0.5688564777374268
1783170114077219800,2.8462197265625,-0.7234048843383789,-1.3220322132110596,0.5248150825500488
1783170114087288800,2.856288818359375,-0.3752000629901886,-1.3375482559204102,0.43324151635169983
1783170114097358600,2.866358642578125,-0.007285241968929768,-1.138051152229309,0.27021196484565735
1783170114107427800,2.876427734375,0.2622591257095337,-0.8474778532981873,0.061128806322813034
1783170114117496800,2.886496826171875,0.389049232006073,-0.5634607076644897,-0.15932349860668182
1783170114127566800,2.89656689453125,0.3751014769077301,-0.30832985043525696,-0.34815332293510437
1783170114137635800,2.9066357421875,0.26040273904800415,-0.1300441175699234,-0.464280366897583
1783170114147705000,2.916705078125,0.08472680300474167,-0.026024505496025085,-0.4996383786201477
1783170114157775000,2.926775146484375,-0.10435719788074493,-0.01729307696223259,-0.4238424301147461
1783170114167844000,2.936843994140625,-0.2621968984603882,-0.0716836154460907,-0.24962827563285828
1783170114177914000,2.9469140625,-0.3270886540412903,-0.13027158379554749,-0.06778764724731445
1783170114187983000,2.956983154296875,-0.27689364552497864,-0.14760316908359528,0.031545594334602356
1783170114198052000,2.967052001953125,-0.1401853710412979,-0.11923064291477203,0.035077597945928574
1783170114208122000,2.9771220703125,0.047297701239585876,-0.07293558120727539,-0.03132832422852516
1783170114218191000,2.987191162109375,0.21370579302310944,-0.027494708076119423,-0.1320304572582245
1783170114228260000,2.997260009765625,0.3172537386417389,-0.009153516963124275,-0.19975703954696655
1783170114238330000,3.007330078125,0.35864320397377014,0.0012316047213971615,-0.20348207652568817
1783170114248399000,3.017399169921875,0.35369637608528137,-0.010091357864439487,-0.14584381878376007
1783170114258469000,3.02746923828125,0.32235047221183777,-0.03886720910668373,-0.01697671227157116
1783170114268538000,3.0375380859375,0.26941242814064026,-0.08693087100982666,0.15968328714370728
1783170114278607000,3.047607177734375,0.2724505662918091,-0.07586880028247833,0.3255608081817627
1783170114288676900,3.0576767578125,0.32405170798301697,-0.06108478829264641,0.4419603943824768
1783170114298746000,3.06774609375,0.3643912672996521,-0.06787700951099396,0.5155355930328369
1783170114308816000,3.07781591796875,0.4008249044418335,-0.11870130151510239,0.5713170766830444
1783170114318885000,3.087885009765625,0.3908672332763672,-0.248040109872818,0.6342671513557434
1783170114328953900,3.097953857421875,0.33409610390663147,-0.40581774711608887,0.7119036316871643
1783170114339024100,3.108024169921875,0.2621728181838989,-0.5388745069503784,0.7215574383735657
1783170114349092900,3.1180927734375,0.1738346964120865,-0.6481485366821289,0.6501392126083374
1783170114359162000,3.128162109375,0.04730001837015152,-0.6291441917419434,0.4677864611148834
1783170114369232000,3.13823193359375,-0.07856389880180359,-0.4819137454032898,0.08913235366344452
1783170114379301000,3.148301025390625,-0.18727745115756989,-0.003757702186703682,-0.3256421387195587
1783170114389371100,3.15837109375,-0.20708151161670685,1.1355050802230835,-0.473740816116333
1783170114399440100,3.168440185546875,-0.034503061324357986,2.6320886611938477,-0.2731846272945404
1783170114409508900,3.1785087890625,0.07374484837055206,3.5083529949188232,0.41314074397087097
1783170114419579100,3.1885791015625,-0.14148904383182526,3.1172072887420654,1.3618199825286865
1783170114429648100,3.198648193359375,-0.43707385659217834,1.6953548192977905,2.045753002166748
1783170114439717000,3.208717041015625,-0.6198790073394775,0.34547820687294006,2.1261496543884277
1783170114449787100,3.218787109375,-0.6191805005073547,-0.38430410623550415,1.5079684257507324
1783170114459856100,3.228856201171875,-0.35488465428352356,-0.4358762502670288,0.5388628244400024
1783170114469926100,3.238926025390625,0.054787527769804,-0.11242999881505966,-0.1608225405216217
1783170114479995100,3.2489951171875,0.40777215361595154,0.2525739371776581,-0.47230347990989685
1783170114490064100,3.259064208984375,0.5273331999778748,0.471347838640213,-0.5052348375320435
1783170114500134000,3.2691337890625,0.3884304165840149,0.4948933720588684,-0.3752211332321167
1783170114510203100,3.279203125,0.10531961917877197,0.3866795599460602,-0.31865161657333374
1783170114520272100,3.289272216796875,-0.1156226322054863,0.2884720265865326,-0.3953475058078766
1783170114530342100,3.299342041015625,-0.1359420120716095,0.2128848433494568,-0.5632888078689575
1783170114540411000,3.309410888671875,0.03463809937238693,0.1220829039812088,-0.74269700050354
1783170114550481200,3.319481201171875,0.26910120248794556,-0.004957330413162708,-0.8887146711349487
1783170114560550000,3.3295498046875,0.44229868054389954,-0.19162119925022125,-0.9941492676734924
1783170114570619100,3.339619140625,0.4836096465587616,-0.37044259905815125,-1.0455541610717773
1783170114580689000,3.34968896484375,0.38297584652900696,-0.5553998351097107,-1.0163565874099731
1783170114590758100,3.359758056640625,0.1745091825723648,-0.7410445213317871,-0.9040753841400146
1783170114600827000,3.369826904296875,-0.0377652607858181,-0.863915205001831,-0.7934150099754333
1783170114610897200,3.379897216796875,-0.1742330938577652,-0.9000324606895447,-0.6910271644592285
1783170114620966000,3.3899658203125,-0.23044806718826294,-0.8128201961517334,-0.5849947929382324
1783170114631036200,3.4000361328125,-0.22471322119235992,-0.6592753529548645,-0.4234547019004822
1783170114641105000,3.41010498046875,-0.1994452327489853,-0.5491503477096558,-0.22652097046375275
1783170114651174100,3.420174072265625,-0.19654212892055511,-0.5068492293357849,-0.04058706760406494
1783170114661244200,3.430244140625,-0.23223353922367096,-0.5143550634384155,0.11673171818256378
1783170114671313200,3.440313232421875,-0.3138522505760193,-0.5316360592842102,0.23446767032146454
1783170114681383200,3.450383056640625,-0.3969341516494751,-0.5398695468902588,0.29812145233154297
1783170114691452000,3.460451904296875,-0.47634586691856384,-0.4439060389995575,0.3222219944000244
1783170114701521200,3.470521240234375,-0.568317711353302,-0.3023659884929657,0.3573799133300781
1783170114711591000,3.4805908203125,-0.6184123158454895,-0.1792139708995819,0.48807427287101746
1783170114721660200,3.49066015625,-0.635887861251831,-0.09456589072942734,0.7405853867530823
1783170114731729200,3.500729248046875,-0.6215944290161133,-0.022890634834766388,1.071280837059021
1783170114741799200,3.510799072265625,-0.5831893682479858,0.00406293710693717,1.3370702266693115
1783170114751868000,3.520867919921875,-0.520783543586731,-0.04600182920694351,1.4958173036575317
1783170114761938200,3.530938232421875,-0.45549526810646057,-0.17170478403568268,1.5236960649490356
1783170114772007000,3.5410068359375,-0.39990124106407166,-0.3568706512451172,1.4365028142929077
1783170114782076200,3.551076171875,-0.34235554933547974,-0.5137201547622681,1.2234148979187012
1783170114792146000,3.56114599609375,-0.30169016122817993,-0.5729251503944397,0.9013944864273071
1783170114802215200,3.571215087890625,-0.2503700852394104,-0.5526282787322998,0.4959346354007721
1783170114812284000,3.581283935546875,-0.17670919001102448,-0.5013520121574402,0.09634038060903549
1783170114822354200,3.591354248046875,-0.08870618790388107,-0.48242560029029846,-0.17026351392269135
1783170114832423000,3.6014228515625,0.0018756401259452105,-0.4758571684360504,-0.2788800001144409
1783170114842493200,3.6114931640625,0.08396673947572708,-0.46885785460472107,-0.28693780303001404
1783170114852562000,3.62156201171875,0.1347247213125229,-0.47921568155288696,-0.2364882081747055
1783170114862631200,3.631631103515625,0.12304847687482834,-0.5045738220214844,-0.1478695571422577
1783170114872701200,3.641701171875,0.07708205282688141,-0.5266173481941223,-0.033887866884469986
1783170114882770200,3.651770263671875,0.023582471534609795,-0.5381759405136108,0.07362032681703568
1783170114892839000,3.6618388671875,-0.02620958723127842,-0.5097182393074036,0.14626362919807434
1783170114902909000,3.671908935546875,-0.06010620668530464,-0.46352410316467285,0.14116422832012177
1783170114912978000,3.68197802734375,-0.08799615502357483,-0.44332748651504517,0.07308638095855713
1783170114923048000,3.6920478515625,-0.08936528861522675,-0.4212504029273987,0.013312526047229767
1783170114933117200,3.7021171875,-0.08793703466653824,-0.41550782322883606,0.00821603462100029
1783170114943186000,3.71218603515625,-0.08351962268352509,-0.3770853877067566,0.04162094369530678
1783170114953256200,3.722256103515625,-0.05991336330771446,-0.3279476463794708,0.061576541513204575
1783170114963325000,3.732324951171875,-0.05870690941810608,-0.3578718304634094,0.013919807970523834
1783170114973395200,3.742395263671875,-0.09882397204637527,-0.28632602095603943,-0.020430177450180054
1783170114983464000,3.7524638671875,-0.17203663289546967,0.03970629349350929,4.6868808567523956e-7
1783170114993533200,3.762533203125,-0.28575363755226135,0.7470362782478333,0.045724283903837204
1783170115003603000,3.77260302734375,-0.46986621618270874,1.7558643817901611,0.2235836237668991
1783170115013672200,3.782672119140625,-0.6813457012176514,2.5576980113983154,0.621103048324585
1783170115023741000,3.792740966796875,-0.8444967865943909,2.626209259033203,1.0548280477523804
1783170115033811200,3.802811279296875,-0.9165688753128052,1.9324227571487427,1.1276359558105469
1783170115043880000,3.8128798828125,-0.9099483489990234,0.9992215633392334,0.7299031615257263
1783170115053949200,3.82294921875,-0.8074297308921814,0.4079557955265045,-0.09605518728494644
1783170115064019000,3.83301904296875,-0.6414737701416016,0.16203205287456512,-0.8588435053825378
1783170115074088200,3.843088134765625,-0.41952383518218994,0.1716737598180771,-1.1715697050094604
1783170115084158000,3.853157958984375,-0.28110578656196594,0.2787834405899048,-1.0689098834991455
1783170115094227200,3.863227294921875,-0.2955686151981354,0.40205955505371094,-0.7662835121154785
1783170115104296000,3.8732958984375,-0.43231573700904846,0.5226274132728577,-0.5123220086097717
1783170115114366000,3.883365966796875,-0.5897330641746521,0.6397401690483093,-0.432008296251297
1783170115124435000,3.89343505859375,-0.6257720589637756,0.6896582245826721,-0.5799686908721924
1783170115134504200,3.903504150390625,-0.4869033992290497,0.6624705195426941,-0.7756633758544922
1783170115144573000,3.913572998046875,-0.24459189176559448,0.5856258273124695,-0.8924400210380554
1783170115154642200,3.92364208984375,0.006062693893909454,0.4984637498855591,-0.9923197031021118
1783170115164712000,3.9337119140625,0.1886785477399826,0.477578729391098,-1.1523188352584839
1783170115174781200,3.94378125,0.2624598443508148,0.5153815150260925,-1.2389874458312988
1783170115184850000,3.953849853515625,0.2268553227186203,0.4463663101196289,-1.1846914291381836
1783170115194920000,3.963919921875,0.11179238557815552,0.24117296934127808,-1.0269572734832764
1783170115204989000,3.973989013671875,-0.03469623252749443,0.01052815280854702,-0.8141930103302002
1783170115215059000,3.984058837890625,-0.2067287117242813,-0.18018054962158203,-0.5483198165893555
1783170115225128000,3.9941279296875,-0.3530944287776947,-0.3116315007209778,-0.3002435266971588
1783170115235197200,4.004197265625,-0.43542391061782837,-0.44518929719924927,-0.07474622130393982
1783170115245267200,4.01426708984375,-0.45003753900527954,-0.6168935298919678,0.1680903136730194
1783170115255336000,4.0243359375,-0.40119224786758423,-0.8213979601860046,0.40513667464256287
1783170115265405000,4.034405029296875,-0.30945494771003723,-0.9534561634063721,0.5972000956535339
1783170115275475000,4.044474853515625,-0.19680003821849823,-1.106874704360962,0.7228073477745056
1783170115285544200,4.054544189453125,-0.08328083902597427,-1.2157467603683472,0.7025678157806396
1783170115295614000,4.064614013671875,-0.03552423417568207,-1.1544597148895264,0.4853457510471344
1783170115305683200,4.07468310546875,-0.04811796173453331,-0.9354276061058044,0.16890710592269897
1783170115315752000,4.084751953125,-0.07284460961818695,-0.6924993395805359,0.07296141237020493
1783170115325822200,4.094822265625,-0.13301129639148712,-0.5453742146492004,0.3718824088573456
1783170115335891000,4.104890869140625,-0.22701476514339447,-0.40685176849365234,0.8451844453811646
1783170115345960200,4.114960205078125,-0.32283297181129456,-0.23843839764595032,1.198893427848816
1783170115356030000,4.125030029296875,-0.4248424470424652,-0.07201053947210312,1.3339334726333618
1783170115366099200,4.13509912109375,-0.45626240968704224,-0.010615221224725246,1.2408909797668457
1783170115376169000,4.1451689453125,-0.3510558307170868,-0.1655595302581787,0.9924628138542175
1783170115386238200,4.15523828125,-0.1575683057308197,-0.4790038764476776,0.6613905429840088
1783170115396307000,4.165306884765625,0.021552711725234985,-0.8093293309211731,0.3252663016319275
1783170115406377000,4.175376953125,0.14671020209789276,-1.0734342336654663,0.08423693478107452
1783170115416446000,4.185446044921875,0.22398847341537476,-1.2261968851089478,-0.003546450287103653
1783170115426515200,4.19551513671875,0.2696409821510315,-1.2732744216918945,0.044027600437402725
1783170115436585000,4.2055849609375,0.29038089513778687,-1.1992732286453247,0.1697722226381302
1783170115446654200,4.215654296875,0.27928900718688965,-0.9366710186004639,0.27383267879486084
1783170115456724200,4.22572412109375,0.2630631625652313,-0.5154915452003479,0.26832446455955505
1783170115466793000,4.23579296875,0.22918841242790222,-0.0924600139260292,0.19938798248767853
1783170115476862000,4.245862060546875,0.21437856554985046,0.1846402883529663,0.11219022423028946
1783170115486932000,4.255931884765625,0.2128739058971405,0.2879822552204132,0.06037357449531555
1783170115497001000,4.2660009765625,0.16286985576152802,0.2675848603248596,0.07519805431365967
1783170115507070000,4.276070068359375,0.06715808063745499,0.18601767718791962,0.15636205673217773
1783170115517140200,4.28614013671875,-0.022630658000707626,0.057397905737161636,0.2097986489534378
1783170115527209000,4.296208984375,-0.07446208596229553,-0.08932951092720032,0.20395377278327942
1783170115537279200,4.306279296875,-0.0828997790813446,-0.20541855692863464,0.10493370145559311
1783170115547348000,4.316347900390625,-0.044636741280555725,-0.20296858251094818,-0.07577713578939438
1783170115557417200,4.326417236328125,0.06170487776398659,-0.08218889683485031,-0.32758861780166626
1783170115567487000,4.336487060546875,0.177993506193161,0.12675130367279053,-0.6079093813896179
1783170115577556200,4.34655615234375,0.22053112089633942,0.3632892668247223,-0.7898299098014832
1783170115587625000,4.356625,0.18858149647712708,0.5117962956428528,-0.6443360447883606
1783170115597695200,4.3666953125,0.02638087421655655,0.5550732016563416,-0.1819431483745575
1783170115607764000,4.376763916015625,-0.2519012689590454,0.7409125566482544,0.23880375921726227
1783170115617834000,4.386833984375,-0.47680550813674927,1.288691520690918,0.19608719646930695
1783170115627903000,4.396903076171875,-0.41008347272872925,2.05928635597229,-0.4033806622028351
1783170115637972200,4.40697216796875,-0.13281509280204773,2.429534673690796,-1.0996018648147583
1783170115648042000,4.4170419921875,0.22655560076236725,2.2623274326324463,-1.588119626045227
1783170115658111000,4.427111083984375,0.5350369811058044,1.8372029066085815,-1.8377089500427246
1783170115668180000,4.437179931640625,0.5684531927108765,1.3187021017074585,-1.781857967376709
1783170115678250000,4.44725,0.3712248206138611,0.5787465572357178,-1.372351884841919
1783170115688319000,4.457319091796875,0.20000113546848297,-0.20929422974586487,-0.8930023312568665
1783170115698389000,4.467388916015625,0.2101469784975052,-0.6294949650764465,-0.6417232155799866
1783170115708458000,4.4774580078125,0.3146763741970062,-0.7150761485099792,-0.6157637238502502
1783170115718527000,4.48752685546875,0.3959970772266388,-0.36011332273483276,-0.737656831741333
1783170115728597200,4.49759716796875,0.39751869440078735,0.06805042177438736,-0.6639366149902344
1783170115738666000,4.507666015625,0.35964587330818176,0.37899312376976013,-0.40638020634651184
1783170115748735000,4.51773486328125,0.31457874178886414,0.5811474323272705,-0.15491899847984314
1783170115758805000,4.527804931640625,0.28059840202331543,0.6408605575561523,0.04338875040411949
1783170115768874200,4.537874267578125,0.31682005524635315,0.5917758345603943,0.1302160620689392
1783170115778944000,4.547944091796875,0.371226042509079,0.5205072164535522,0.0691114217042923
1783170115789013200,4.55801318359375,0.39933496713638306,0.5929682850837708,-0.2118494063615799
1783170115799082000,4.56808203125,0.4296151101589203,0.6784786581993103,-0.6171787977218628
1783170115809152000,4.578152099609375,0.4917941689491272,0.4753846526145935,-0.9255168437957764
1783170115819221000,4.588220947265625,0.5710493326187134,0.06616304814815521,-1.0927788019180298
1783170115829290200,4.598290283203125,0.6244952082633972,-0.26755619049072266,-1.1392555236816406
1783170115839360000,4.608360107421875,0.5206724405288696,-0.4358019232749939,-0.8966652750968933
1783170115849429200,4.61842919921875,0.2643822431564331,-0.4572080671787262,-0.33276182413101196
1783170115859499000,4.6284990234375,-0.03499140217900276,-0.31759825348854065,0.3049962818622589
1783170115869568000,4.638568115234375,-0.325886070728302,-0.10029195249080658,0.8208123445510864
1783170115879637000,4.648636962890625,-0.538763701915741,0.09884991496801376,1.1631500720977783
1783170115889707000,4.65870703125,-0.6084761619567871,0.14150094985961914,1.3256304264068604
1783170115899776000,4.66877587890625,-0.5562819242477417,-0.04354160651564598,1.292015552520752
1783170115909845000,4.678844970703125,-0.464496374130249,-0.3993526101112366,1.082535743713379
1783170115919915000,4.6889150390625,-0.3630951941013336,-0.8355581164360046,0.7847372889518738
1783170115929984000,4.69898388671875,-0.25097012519836426,-1.1738661527633667,0.5321698784828186
1783170115940054000,4.709053955078125,-0.16950510442256927,-1.3172658681869507,0.43465879559516907
1783170115950123000,4.719123046875,-0.15879499912261963,-1.253248929977417,0.48596882820129395
1783170115960192000,4.72919189453125,-0.1847296506166458,-1.0765197277069092,0.6234151124954224
1783170115970262000,4.739261962890625,-0.18984843790531158,-0.8599650859832764,0.7617308497428894
1783170115980331000,4.7493310546875,-0.19589486718177795,-0.6505876183509827,0.8244349956512451
1783170115990400000,4.75939990234375,-0.20176798105239868,-0.46100834012031555,0.7698574066162109
1783170116000470300,4.76947021484375,-0.2019789069890976,-0.34734010696411133,0.6309160590171814
1783170116010539000,4.7795390625,-0.21201807260513306,-0.2972898781299591,0.4728425443172455
1783170116020609000,4.789609130859375,-0.2446974515914917,-0.2938480079174042,0.3544434607028961
1783170116030678000,4.799677978515625,-0.28905823826789856,-0.29866406321525574,0.3020889163017273
1783170116040747300,4.809747314453125,-0.30624309182167053,-0.31763988733291626,0.2856942415237427
1783170116050817000,4.819817138671875,-0.3066132068634033,-0.3478795886039734,0.2885575294494629
1783170116060886300,4.82988623046875,-0.29491928219795227,-0.37040087580680847,0.2608036696910858
1783170116070955000,4.839955078125,-0.25123122334480286,-0.39176473021507263,0.18377532064914703
1783170116081025000,4.85002490234375,-0.17361634969711304,-0.4056456387042999,0.11195546388626099
1783170116091094000,4.860093994140625,-0.052169010043144226,-0.37969890236854553,0.07187103480100632
1783170116101164000,4.8701640625,0.06437224894762039,-0.3205743134021759,0.043318215757608414
1783170116111233000,4.88023291015625,0.1140843853354454,-0.25140586495399475,0.02215452864766121
1783170116121302000,4.890302001953125,0.06181691586971283,-0.2000899463891983,0.05160696059465408
1783170116131372000,4.9003720703125,-0.0783473551273346,-0.19354216754436493,0.1472274214029312
1783170116141441800,4.91044189453125,-0.2335723638534546,-0.19885064661502838,0.2535834312438965
1783170116151511000,4.920510986328125,-0.34753262996673584,-0.1568114459514618,0.32401949167251587
1783170116161580800,4.930580810546875,-0.40457087755203247,-0.09843148291110992,0.25654909014701843
1783170116171650000,4.940650146484375,-0.35836249589920044,-0.0043482705950737,0.0740424320101738
1783170116181719800,4.9507197265625,-0.22819703817367554,0.16574916243553162,-0.10588818043470383
1783170116191788800,4.960788818359375,-0.0703006461262703,0.4214227795600891,-0.23617596924304962
1783170116201857800,4.97085791015625,0.07479822635650635,0.6861745119094849,-0.2678241729736328
1783170116211927800,4.980927734375,0.12199778854846954,0.9145833849906921,-0.11505968868732452
1783170116221996800,4.990996826171875,0.08877085894346237,1.1079683303833008,0.21434855461120605
1783170116232065800,5.001065673828125,0.04526028782129288,1.0872819423675537,0.5155885815620422
1783170116242135800,5.0111357421875,-0.012747087515890598,0.8513932824134827,0.5965414643287659
1783170116252204800,5.021204833984375,-0.05822361260652542,0.610662579536438,0.3461204469203949
1783170116262273800,5.031273681640625,-0.023811573162674904,0.4304496645927429,-0.17616218328475952
1783170116272343800,5.04134375,0.05103030055761337,0.30950430035591125,-0.7736350297927856
1783170116282412800,5.051412841796875,0.08145318925380707,0.39065054059028625,-1.148437738418579
1783170116292482800,5.06148291015625,0.04766463860869408,0.6466146111488342,-1.0609134435653687
1783170116302551800,5.0715517578125,-0.06254708766937256,0.9870078563690186,-0.5272977352142334
1783170116312620800,5.081620849609375,-0.2177330106496811,1.389127492904663,-0.008592735975980759
1783170116322690800,5.09169091796875,-0.3170737326145172,1.6499189138412476,0.27464669942855835
1783170116332759800,5.101759765625,-0.3410069942474365,1.5445504188537598,0.4343740940093994
1783170116342828800,5.111828857421875,-0.3584911823272705,1.2186591625213623,0.45003828406333923
1783170116352898800,5.12189892578125,-0.3844112455844879,0.8219862580299377,0.309717059135437
1783170116362967800,5.1319677734375,-0.3942721486091614,0.5464300513267517,0.1536528766155243
1783170116373037800,5.142037841796875,-0.3609634339809418,0.4572959244251251,0.042166177183389664
1783170116383107000,5.152107177734375,-0.2721909284591675,0.4726754128932953,-0.01513785868883133
1783170116393175800,5.16217578125,-0.12349703907966614,0.5274295806884766,-0.10424622893333435
1783170116403245800,5.172245849609375,0.04553806036710739,0.6370269060134888,-0.2955370843410492
1783170116413314800,5.182314697265625,0.17754113674163818,0.7732326984405518,-0.6232144236564636
1783170116423384000,5.192384033203125,0.20811715722084045,0.7756255865097046,-1.049755334854126
1783170116433453800,5.202453857421875,0.1858588457107544,0.5850669145584106,-1.415931224822998
1783170116443522800,5.212522705078125,0.11218249797821045,0.319972425699234,-1.6091963052749634
1783170116453592800,5.2225927734375,-0.04113687202334404,0.07542618364095688,-1.4662913084030151
1783170116463661800,5.232661865234375,-0.22373171150684357,-0.1038500964641571,-0.9416123628616333
1783170116473730800,5.242730712890625,-0.3094027638435364,-0.24352021515369415,-0.3081514537334442
1783170116483800800,5.25280078125,-0.26981407403945923,-0.3957294821739197,0.19365762174129486
1783170116493869800,5.262869873046875,-0.15093010663986206,-0.5490500926971436,0.43963176012039185
1783170116503938800,5.272938720703125,-0.04690251499414444,-0.5773283243179321,0.4439588785171509
1783170116514008800,5.2830087890625,-0.030859138816595078,-0.4612990915775299,0.24121692776679993
1783170116524077800,5.293077880859375,-0.10539435595273972,-0.37144404649734497,-0.1047721654176712
1783170116534147800,5.30314794921875,-0.18800586462020874,-0.41897812485694885,-0.4179871380329132
1783170116544216800,5.313216796875,-0.18714486062526703,-0.5878390073776245,-0.5292609333992004
1783170116554285800,5.323285888671875,-0.1294974982738495,-0.7128271460533142,-0.3648000657558441
1783170116564355800,5.33335595703125,-0.09061534702777863,-0.7263096570968628,-0.03233876824378967
1783170116574423800,5.343423828125,-0.09195496141910553,-0.6164942383766174,0.3026156425476074
1783170116584493800,5.353493896484375,-0.07293014228343964,-0.42917415499687195,0.591208279132843
1783170116594562800,5.363562744140625,-0.010765429586172104,-0.2200014740228653,0.7936460375785828
1783170116604631800,5.3736318359375,0.09563877433538437,-0.011352922767400742,0.8531855344772339
1783170116614701800,5.383701904296875,0.19020020961761475,0.15712954103946686,0.7926239371299744
1783170116624770800,5.393770751953125,0.2360774129629135,0.25219079852104187,0.6411105394363403
1783170116634840800,5.4038408203125,0.2304697036743164,0.29432472586631775,0.4294508993625641
1783170116644909800,5.413909912109375,0.19909286499023438,0.23567605018615723,0.1840405911207199
1783170116654978800,5.423978759765625,0.1491042971611023,0.09076607972383499,-0.0023876542691141367
1783170116665048800,5.434048828125,0.08903510868549347,-0.082103431224823,-0.09810671955347061
1783170116675117800,5.444117919921875,0.07103720307350159,-0.2099722921848297,-0.13499243557453156
1783170116685186800,5.454186767578125,0.09082448482513428,-0.2687426507472992,-0.14456170797348022
1783170116695256800,5.4642568359375,0.1593649536371231,-0.24546220898628235,-0.15472599864006042
1783170116705325800,5.474325927734375,0.2620657682418823,-0.16896691918373108,-0.16545426845550537
1783170116715395800,5.484395751953125,0.3579615354537964,-0.09648245573043823,-0.18210439383983612
1783170116725464800,5.49446484375,0.4456258714199066,-0.043181419372558594,-0.2051149159669876
1783170116735534000,5.5045341796875,0.5142961144447327,-0.02600974589586258,-0.23887105286121368
1783170116745603800,5.514603759765625,0.5359545350074768,-0.06492145359516144,-0.220598042011261
1783170116755672800,5.5246728515625,0.48335975408554077,-0.12090766429901123,-0.07671463489532471
1783170116765741800,5.534741943359375,0.3774937689304352,-0.182754784822464,0.17357909679412842
1783170116775811800,5.544811767578125,0.2597740590572357,-0.2420463263988495,0.43375396728515625
1783170116785880800,5.554880859375,0.1926109790802002,-0.2485356628894806,0.6229252219200134
1783170116795950800,5.564950927734375,0.18435542285442352,-0.2353455275297165,0.6592061519622803
1783170116806019800,5.575019775390625,0.22247403860092163,-0.20667767524719238,0.5628881454467773
1783170116816088800,5.5850888671875,0.3070986270904541,-0.1700861006975174,0.31949880719184875
1783170116826158800,5.595158935546875,0.4136839210987091,-0.16499067842960358,-0.07106149196624756
1783170116836227800,5.605227783203125,0.5010347366333008,-0.23175306618213654,-0.49207407236099243
1783170116846296800,5.615296875,0.5172789096832275,-0.33914637565612793,-0.79405277967453
1783170116856366800,5.625366943359375,0.4086422622203827,-0.3527957499027252,-0.8361784219741821
1783170116866435800,5.635435791015625,0.14187395572662354,-0.17185260355472565,-0.5838388800621033
1783170116876504800,5.6455048828125,-0.19437946379184723,0.27920258045196533,-0.18680407106876373
1783170116886574800,5.655574951171875,-0.4905298948287964,0.7663703560829163,0.2975809872150421
1783170116896643800,5.665643798828125,-0.5750229358673096,1.1660025119781494,0.7232338786125183
1783170116906713600,5.675713623046875,-0.3944757580757141,1.468722939491272,0.8239879012107849
1783170116916782800,5.685782958984375,-0.09094817191362381,1.5920907258987427,0.4431127905845642
1783170116926851800,5.695851806640625,0.1562190055847168,1.5566320419311523,-0.2654411792755127
1783170116936921900,5.705921875,0.26777443289756775,1.2874716520309448,-0.9198439717292786
1783170116946990800,5.715990966796875,0.2952808737754822,0.7772331237792969,-1.2945317029953003
1783170116957059800,5.726059814453125,0.2710857391357422,0.21115832030773163,-1.3575587272644043
1783170116967129900,5.7361298828125,0.20114658772945404,-0.23675395548343658,-1.0114811658859253
1783170116977198800,5.74619873046875,0.10350722819566727,-0.3984236419200897,-0.4160638749599457
1783170116987268900,5.756268798828125,-0.053381990641355515,-0.2532632648944855,0.18573756515979767
1783170116997337900,5.766337890625,-0.20345118641853333,0.12028791010379791,0.661185622215271
1783170117007406800,5.77640673828125,-0.2664027214050293,0.5146464109420776,0.9389053583145142
1783170117017476900,5.786476806640625,-0.26859650015830994,0.6821399331092834,1.0750749111175537
1783170117027545900,5.7965458984375,-0.22025693953037262,0.5463506579399109,1.0517841577529907
1783170117037614800,5.80661474609375,-0.10341539233922958,0.19388996064662933,0.808227002620697
1783170117047684900,5.816684814453125,0.04551363363862038,-0.21899855136871338,0.3581162989139557
1783170117057753900,5.82675390625,0.17993783950805664,-0.5791516304016113,-0.17083404958248138
1783170117067823900,5.836823974609375,0.2448265552520752,-0.7899845242500305,-0.6153092384338379
1783170117077892900,5.846892822265625,0.25549817085266113,-0.7984388470649719,-0.9395775198936462
1783170117087961900,5.8569619140625,0.25595277547836304,-0.6220563650131226,-1.1404759883880615
1783170117098031900,5.867031982421875,0.23195643723011017,-0.3159094750881195,-1.1497828960418701
1783170117108100900,5.877100830078125,0.1791938841342926,-0.059422045946121216,-0.9184638857841492
1783170117118169900,5.887169921875,0.12468454241752625,0.08535268902778625,-0.5681394338607788
1783170117128239900,5.897239990234375,0.0739169716835022,0.13944709300994873,-0.2152538299560547
1783170117138308600,5.90730859375,0.04945961385965347,0.057743705809116364,0.02573123387992382
1783170117148378600,5.917378662109375,0.06607081741094589,-0.15167823433876038,0.14825475215911865
1783170117158447600,5.927447509765625,0.10744037479162216,-0.41792693734169006,0.19064462184906006
1783170117168516600,5.9375166015625,0.1575312316417694,-0.66490638256073,0.22747640311717987
1783170117178586400,5.94758642578125,0.18474015593528748,-0.8498043417930603,0.2779383063316345
1783170117188655600,5.957655517578125,0.17173275351524353,-0.9166097640991211,0.3563377559185028
1783170117198724600,5.967724609375,0.10993444919586182,-0.8461654782295227,0.47492527961730957
1783170117208794600,5.977794677734375,0.03563598543405533,-0.6877732276916504,0.573007345199585
1783170117218863400,5.98786328125,-0.0309307798743248,-0.5038766860961914,0.6342861652374268
1783170117228932600,5.9979326171875,-0.07297543436288834,-0.35581767559051514,0.6770895719528198
1783170117239002400,6.00800244140625,-0.1042625904083252,-0.28184542059898376,0.6955064535140991
1783170117249071600,6.018071533203125,-0.10234618186950684,-0.28073036670684814,0.6874948143959045
1783170117259141400,6.028141357421875,-0.05296863242983818,-0.3573280870914459,0.6016862392425537
1783170117269210600,6.038210693359375,0.01319307740777731,-0.49402838945388794,0.4419706463813782
1783170117279279400,6.048279296875,0.06777679175138474,-0.6220300197601318,0.24479766190052032
1783170117289349600,6.058349609375,0.10183116048574448,-0.7084789276123047,0.0890813022851944
1783170117299418400,6.06841845703125,0.12037278711795807,-0.7176731824874878,-0.011346261017024517
1783170117309487600,6.078487548828125,0.13657891750335693,-0.6480576395988464,-0.06855868548154831
1783170117319557600,6.0885576171875,0.15517516434192657,-0.523497462272644,-0.09350967407226562
1783170117329626600,6.098626708984375,0.16539184749126434,-0.36614081263542175,-0.10416418313980103
1783170117339696600,6.108696533203125,0.167115718126297,-0.2019212692975998,-0.12226515263319016
1783170117349765600,6.118765625,0.16631384193897247,-0.03718743845820427,-0.15483321249485016
1783170117359834400,6.12883447265625,0.16108356416225433,0.07843422889709473,-0.17875854671001434
1783170117369904600,6.138904541015625,0.17872114479541779,0.1604824960231781,-0.17693214118480682
1783170117379973600,6.1489736328125,0.20604035258293152,0.21785499155521393,-0.13532885909080505
1783170117390042600,6.159042724609375,0.23826247453689575,0.2234385758638382,-0.08811634033918381
1783170117400112600,6.169112548828125,0.27198469638824463,0.23695331811904907,-0.10072655230760574
1783170117410181600,6.179181640625,0.2973411977291107,0.24475371837615967,-0.1665569692850113
1783170117420251600,6.189251708984375,0.2947740852832794,0.25419577956199646,-0.2788964509963989
1783170117430320400,6.1993203125,0.2616922855377197,0.2671358287334442,-0.490195631980896
1783170117440389600,6.2093896484375,0.21412599086761475,0.22477303445339203,-0.7390418648719788
1783170117450459400,6.21945947265625,0.0976952463388443,0.13640375435352325,-0.865964949131012
1783170117460528600,6.229528564453125,-0.10333208739757538,0.0038845958188176155,-0.7243914604187012
1783170117470597600,6.23959765625,-0.37695828080177307,-0.09755493700504303,-0.313920795917511
1783170117480667600,6.249667724609375,-0.6094292402267456,-0.051777854561805725,0.0305686816573143
1783170117490736400,6.259736328125,-0.6375826001167297,0.15978792309761047,0.04205622896552086
1783170117500806700,6.269806640625,-0.41274699568748474,0.37753984332084656,-0.2039555162191391
1783170117510875400,6.27987548828125,-0.04530082270503044,0.49488911032676697,-0.555533766746521
1783170117520944600,6.289944580078125,0.20957688987255096,0.5513390302658081,-0.81029212474823
1783170117531014400,6.300014404296875,0.19449461996555328,0.6012354493141174,-0.7767898440361023
1783170117541083600,6.310083740234375,-0.0565207302570343,0.6471207737922668,-0.46059441566467285
1783170117551152400,6.32015234375,-0.4117342233657837,0.7063404321670532,-0.020707599818706512
1783170117561222700,6.33022265625,-0.6788889169692993,0.901114284992218,0.24216702580451965
1783170117571291400,6.34029150390625,-0.644166886806488,1.2980929613113403,0.08796680718660355
1783170117581360600,6.350360595703125,-0.3550984859466553,1.7796493768692017,-0.3108668923377991
1783170117591430700,6.3604306640625,-0.06634443253278732,2.1432840824127197,-0.7733922004699707
1783170117601499600,6.370499755859375,0.11965523660182953,2.1164612770080566,-1.05410897731781
1783170117611569700,6.380569580078125,0.13534072041511536,1.5896297693252563,-0.9524622559547424
1783170117621638700,6.390638671875,0.001522259321063757,0.7447787523269653,-0.6088407039642334
1783170117631707600,6.400707763671875,-0.15582555532455444,-0.03366026654839516,-0.24910596013069153
1783170117641777400,6.41077734375,-0.2659197151660919,-0.5070586800575256,-0.037138763815164566
1783170117651846700,6.4208466796875,-0.2888152003288269,-0.6941739916801453,0.0931345522403717
1783170117661915600,6.43091552734375,-0.20458780229091644,-0.48012784123420715,0.15896759927272797
1783170117671985700,6.440985595703125,-0.0433666855096817,0.045880552381277084,0.16399218142032623
1783170117682054400,6.451054443359375,0.09045878797769547,0.7049620747566223,0.09301581978797913
1783170117692124700,6.461124755859375,0.201050266623497,1.1123210191726685,-0.06564520299434662
1783170117702193400,6.471193359375,0.2546750605106354,1.0858076810836792,-0.24715590476989746
1783170117712262700,6.4812626953125,0.19861365854740143,0.7031971216201782,-0.36673396825790405
1783170117722332400,6.49133251953125,0.030222920700907707,0.18842461705207825,-0.42138397693634033
1783170117732401700,6.501401611328125,-0.18724468350410461,-0.26340383291244507,-0.4162749648094177
1783170117742470400,6.511470458984375,-0.3742932677268982,-0.602241575717926,-0.3295021653175354
1783170117752540700,6.521540771484375,-0.46815237402915955,-0.8163993954658508,-0.17311841249465942
1783170117762609400,6.531609375,-0.4293432831764221,-0.9241153001785278,0.019217651337385178
1783170117772679700,6.5416796875,-0.2622714638710022,-0.8889243006706238,0.17982304096221924
1783170117782748400,6.55174853515625,-0.0034314156509935856,-0.6995774507522583,0.2655816972255707
1783170117792817700,6.561817626953125,0.24987249076366425,-0.45919305086135864,0.2446657419204712
1783170117802887400,6.571887451171875,0.40047502517700195,-0.2714451253414154,0.19589906930923462
1783170117812956700,6.581956787109375,0.4256296455860138,-0.15238451957702637,0.1804008036851883
1783170117823025400,6.592025390625,0.3332281708717346,-0.11198941618204117,0.20649661123752594
1783170117833095400,6.602095458984375,0.14966580271720886,-0.1504441201686859,0.26585501432418823
1783170117843164400,6.612164306640625,-0.053547799587249756,-0.24916258454322815,0.3833702504634857
1783170117853233700,6.622233642578125,-0.21020664274692535,-0.3879084587097168,0.5074980854988098
1783170117863303700,6.6323037109375,-0.3108873963356018,-0.49361011385917664,0.5662840008735657
1783170117873372700,6.64237255859375,-0.2876143157482147,-0.5331913828849792,0.5547170639038086
1783170117883442700,6.652442626953125,-0.11980313062667847,-0.519128680229187,0.4640759527683258
1783170117893511400,6.662511474609375,0.10909396409988403,-0.4355727732181549,0.3036743104457855
1783170117903580700,6.67258056640625,0.28167596459388733,-0.28298529982566833,0.1272212117910385
1783170117913650400,6.682650390625,0.3442589342594147,-0.12055110931396484,-0.0461239367723465
1783170117923719700,6.6927197265625,0.2944311201572418,-0.0017055300995707512,-0.14923503994941711
1783170117933788400,6.702788330078125,0.1478824019432068,0.06309850513935089,-0.1264873743057251
1783170117943858700,6.712858642578125,-0.02563907951116562,0.06900791823863983,0.01939105987548828
1783170117953927400,6.722927490234375,-0.16508139669895172,-0.006511606276035309,0.21682317554950714
1783170117963996700,6.73299658203125,-0.2243991196155548,-0.13708743453025818,0.34692850708961487
1783170117974066400,6.74306640625,-0.17725929617881775,-0.27523306012153625,0.3764355182647705
1783170117984135700,6.7531357421875,-0.04451474919915199,-0.40070363879203796,0.30869272351264954
1783170117994205400,6.763205322265625,0.13644997775554657,-0.4741767644882202,0.1487262099981308
1783170118004274700,6.773274658203125,0.2767280638217926,-0.4819132685661316,-0.04742762818932533
1783170118014343400,6.783343505859375,0.3415379524230957,-0.4776705801486969,-0.19640299677848816
1783170118024413700,6.79341357421875,0.3248961567878723,-0.49220824241638184,-0.1966625154018402
1783170118034482400,6.803482421875,0.21971677243709564,-0.5101499557495117,-0.03025009296834469
1783170118044551700,6.8135517578125,0.06141699105501175,-0.5175835490226746,0.26869529485702515
1783170118054621400,6.823621337890625,-0.08816397935152054,-0.4886000454425812,0.5606930255889893
1783170118064690700,6.833690673828125,-0.17401602864265442,-0.35337111353874207,0.6726046800613403
1783170118074760400,6.843760498046875,-0.178566575050354,-0.13484065234661102,0.560630202293396
1783170118084829700,6.85382958984375,-0.09957947582006454,0.06802762299776077,0.2633141279220581
1783170118094898400,6.8638984375,0.013004064559936523,0.2311670184135437,-0.17357929050922394
1783170118104968400,6.873968505859375,0.13590271770954132,0.3779188096523285,-0.5819070339202881
1783170118115037400,6.884037353515625,0.21270109713077545,0.5689289569854736,-0.6373673677444458
1783170118125106700,6.894106689453125,0.09227307885885239,0.7157087922096252,-0.10983792692422867
1783170118135176700,6.9041767578125,-0.1473482996225357,0.9244393706321716,0.650377631187439
1783170118145245400,6.914245361328125,-0.40845006704330444,1.2174973487854004,1.3257391452789307
1783170118155315700,6.924315673828125,-0.6442546248435974,1.5513187646865845,1.7227061986923218
1783170118165384400,6.934384521484375,-0.7156846523284912,1.8550007343292236,1.5781221389770508
1783170118175453700,6.94445361328125,-0.5652128458023071,1.9938161373138428,0.900635838508606
1783170118185523500,6.9545234375,-0.2457769364118576,1.795503854751587,-0.005098546855151653
1783170118195592700,6.9645927734375,0.008811934851109982,1.0941619873046875,-0.7902716398239136
1783170118205661400,6.974661376953125,0.125687837600708,-0.005104794166982174,-1.2666668891906738
1783170118215731700,6.984731689453125,0.10885319858789444,-1.130725622177124,-1.3030587434768677
1783170118225800400,6.994800537109375,-0.05206502601504326,-1.8001954555511475,-1.0050514936447144
1783170118235869700,7.00486962890625,-0.23747164011001587,-1.8144314289093018,-0.6012547016143799
1783170118245939500,7.014939453125,-0.36773931980133057,-1.2524662017822266,-0.22481626272201538
1783170118256008700,7.0250087890625,-0.40315669775009155,-0.2704300582408905,0.06648243218660355
1783170118266078700,7.03507861328125,-0.3652123212814331,0.8384293913841248,0.22787290811538696
1783170118276147700,7.045147705078125,-0.2745239734649658,1.5326815843582153,0.2644612789154053
1783170118286216400,7.055216552734375,-0.13089948892593384,1.512158751487732,0.11895658820867538
1783170118296286500,7.065286376953125,-0.05168934538960457,0.7560263872146606,-0.28399938344955444
1783170118306355500,7.07535546875,0.026554198935627937,-0.24648980796337128,-0.7895796895027161
1783170118316424700,7.0854248046875,0.08154767006635666,-1.069181203842163,-1.0770094394683838
1783170118326494700,7.09549462890625,0.07712849974632263,-1.4888136386871338,-0.9601534008979797
1783170118336563700,7.105563720703125,0.06932038068771362,-1.2430694103240967,-0.4844467341899872
1783170118346633700,7.1156337890625,0.08283982425928116,-0.5150921940803528,0.17306627333164215
1783170118356702500,7.125702392578125,0.12234222888946533,0.4581203758716583,0.7378005385398865
1783170118366771700,7.135771728515625,0.1665302962064743,1.2589194774627686,0.9322324395179749
1783170118376841500,7.145841552734375,0.20425103604793549,1.4165685176849365,0.7946276664733887
1783170118386910700,7.15591064453125,0.21251817047595978,0.8473536372184753,0.43662700057029724
1783170118396979500,7.1659794921875,0.17234091460704803,-0.08638100326061249,-0.029940718784928322
1783170118407049700,7.1760498046875,0.09810253977775574,-0.9129394888877869,-0.35928815603256226
1783170118417118500,7.186118408203125,-0.008530693128705025,-1.365625262260437,-0.37431079149246216
1783170118427187700,7.196187744140625,-0.12501995265483856,-1.4682255983352661,-0.09386186301708221
1783170118437257500,7.206257568359375,-0.19840708374977112,-1.3171777725219727,0.3430188000202179
1783170118447326700,7.21632666015625,-0.21400240063667297,-0.9006884694099426,0.7301443219184875
1783170118457396500,7.226396484375,-0.1987597942352295,-0.3335227370262146,0.9582546949386597
1783170118467465700,7.2364658203125,-0.19827140867710114,0.12232871353626251,1.0115526914596558
1783170118477534500,7.246534423828125,-0.21636758744716644,0.3489525318145752,0.9704756736755371
1783170118487604700,7.256604736328125,-0.23467443883419037,0.3375031650066376,0.8766524791717529
1783170118497673500,7.266673583984375,-0.24969148635864258,0.1605190485715866,0.7630926370620728
1783170118507742700,7.27674267578125,-0.28142470121383667,-0.06900890171527863,0.622629702091217
1783170118517812500,7.2868125,-0.32514873147010803,-0.24303263425827026,0.4925744831562042
1783170118527881700,7.2968818359375,-0.3467930555343628,-0.33598408102989197,0.40879467129707336
1783170118537951700,7.30695166015625,-0.3320138454437256,-0.32335856556892395,0.3698459565639496
1783170118548020500,7.3170205078125,-0.28243470191955566,-0.2413357049226761,0.3604007661342621
1783170118558089500,7.32708935546875,-0.21488870680332184,-0.1347898244857788,0.3412017822265625
1783170118568159500,7.337159423828125,-0.1374967098236084,-0.07971538603305817,0.29288405179977417
1783170118578228500,7.347228515625,-0.07737770676612854,-0.065989188849926,0.20093519985675812
1783170118588297700,7.357297607421875,-0.01997894048690796,-0.11661975085735321,0.06370855122804642
1783170118598367700,7.36736767578125,0.06399265676736832,-0.19093605875968933,-0.0927489697933197
1783170118608436500,7.3774365234375,0.1596476286649704,-0.28237563371658325,-0.2140282392501831
1783170118618505500,7.38750537109375,0.2335953563451767,-0.3472640812397003,-0.25590696930885315
1783170118628575500,7.397575439453125,0.27169448137283325,-0.35947418212890625,-0.209829181432724
1783170118638644700,7.407644775390625,0.2905573844909668,-0.33648788928985596,-0.09914979338645935
1783170118648714500,7.417714599609375,0.2825010418891907,-0.3069985508918762,-0.009172644466161728
1783170118658783700,7.42778369140625,0.26638251543045044,-0.2555159330368042,0.039715271443128586
1783170118668852500,7.4378525390625,0.21411456167697906,-0.19408667087554932,0.037799734622240067
1783170118678922800,7.4479228515625,0.17973901331424713,-0.1568564772605896,0.006478298455476761
1783170118688991500,7.457991455078125,0.15976212918758392,-0.14112623035907745,-0.04963390529155731
1783170118699060700,7.468060791015625,0.1646152138710022,-0.12407773733139038,-0.1473120003938675
1783170118709130500,7.478130615234375,0.1559358388185501,-0.10538824647665024,-0.23817728459835052
1783170118719199700,7.48819970703125,0.1359272450208664,-0.08868756145238876,-0.28880128264427185
1783170118729269500,7.49826953125,0.09389111399650574,0.005651351995766163,-0.34132617712020874
1783170118739338800,7.5083388671875,-0.009035001508891582,0.24359120428562164,-0.42129236459732056
1783170118749407500,7.518407470703125,-0.1626666933298111,0.5863046646118164,-0.5038630366325378
1783170118759477500,7.5284775390625,-0.29064515233039856,0.9603397846221924,-0.5214782357215881
1783170118769546500,7.53854638671875,-0.2968408465385437,1.3082331418991089,-0.4471757411956787
1783170118779615700,7.54861572265625,-0.1546269953250885,1.3411810398101807,-0.18050223588943481
1783170118789685500,7.558685546875,0.11046195775270462,0.8851701021194458,0.18372173607349396
1783170118799754500,7.56875439453125,0.3659115731716156,0.2084750235080719,0.3522936999797821
1783170118809823500,7.578823486328125,0.4213848412036896,-0.21927912533283234,-0.01392047293484211
1783170118819893500,7.5888935546875,0.2765618562698364,-0.27838000655174255,-0.8680606484413147
1783170118829962500,7.59896240234375,0.10171337425708771,0.01913304626941681,-1.8557286262512207
1783170118840032500,7.609032470703125,0.0785880833864212,0.45875731110572815,-2.5663769245147705
1783170118850101800,7.619101806640625,0.10105867683887482,0.9016003608703613,-2.6955268383026123
1783170118860170500,7.62917041015625,-0.026163194328546524,1.0525059700012207,-2.067502975463867
1783170118870240800,7.63924072265625,-0.3380797505378723,0.7988120913505554,-0.8316735029220581
1783170118880309500,7.6493095703125,-0.6198692917823792,0.5440647602081299,0.3952120542526245
1783170118890378500,7.65937841796875,-0.7055319547653198,0.6450720429420471,1.0802839994430542
1783170118900448500,7.669448486328125,-0.6122869849205017,0.7548624277114868,1.178916573524475
1783170118910517800,7.679517822265625,-0.4359928071498871,0.819547712802887,0.7144091725349426
1783170118920587500,7.68958740234375,-0.26532280445098877,0.7451608180999756,-0.09270572662353516
1783170118930656800,7.69965673828125,-0.18795223534107208,0.3667723834514618,-0.8225526809692383
1783170118940725500,7.7097255859375,-0.20606732368469238,-0.14188580214977264,-1.3498106002807617
1783170118950795800,7.719795654296875,-0.2414185106754303,-0.5264229774475098,-1.6524664163589478
1783170118960864500,7.729864501953125,-0.2648247480392456,-0.6124745011329651,-1.6853691339492798
1783170118970933800,7.739933837890625,-0.3277602195739746,-0.4691181182861328,-1.3811203241348267
1783170118981003500,7.75000341796875,-0.37076812982559204,-0.2899848520755768,-0.7901923060417175
1783170118991072800,7.76007275390625,-0.32896700501441956,-0.12594090402126312,-0.1777586191892624
1783170119001142500,7.770142578125,-0.17822623252868652,-0.02320200949907303,0.26957041025161743
1783170119011211500,7.78021142578125,0.04012247920036316,0.01580077037215233,0.49905961751937866
1783170119021280500,7.790280517578125,0.24830789864063263,-0.07229074090719223,0.4579577147960663
1783170119031350500,7.8003505859375,0.35468241572380066,-0.3383289575576782,0.19257934391498566
1783170119041419500,7.81041943359375,0.3201846480369568,-0.6771935820579529,-0.09212428331375122
1783170119051488500,7.820488525390625,0.17385970056056976,-0.9424976706504822,-0.24220497906208038
1783170119061558500,7.83055859375,-0.020876232534646988,-1.0308669805526733,-0.20520541071891785
1783170119071627500,7.84062744140625,-0.2089233100414276,-0.9813547134399414,-0.004201794043183327
1783170119081696500,7.850696533203125,-0.3752952218055725,-0.8752738237380981,0.2936924695968628
1783170119091766500,7.8607666015625,-0.4674053490161896,-0.7439181804656982,0.5644311308860779
1783170119101835500,7.87083544921875,-0.41899096965789795,-0.5963585376739502,0.716259777545929
1783170119111905500,7.880905517578125,-0.24967828392982483,-0.4225325286388397,0.7346351742744446
1783170119121974800,7.890974853515625,-0.0591011643409729,-0.29247066378593445,0.645995557308197
1783170119132043500,7.90104345703125,0.08562742918729782,-0.20390181243419647,0.5312272906303406
1783170119142113000,7.911113037109375,0.13293583691120148,-0.17486537992954254,0.443366140127182
1783170119152182000,7.92118212890625,0.08963068574666977,-0.23143111169338226,0.3779980540275574
1783170119162251000,7.9312509765625,-0.005412469618022442,-0.3513844311237335,0.2982640862464905
1783170119172321000,7.941321044921875,-0.12282201647758484,-0.4648071229457855,0.2051309049129486
1783170119182390000,7.95139013671875,-0.21608565747737885,-0.5311616659164429,0.1657683253288269
1783170119192459000,7.961458984375,-0.2688058316707611,-0.5100131034851074,0.15590764582157135
1783170119202529000,7.971529052734375,-0.2771628201007843,-0.39626920223236084,0.17059898376464844
1783170119212598000,7.981597900390625,-0.21717198193073273,-0.21068641543388367,0.18997399508953094
1783170119222668000,7.99166796875,-0.097343310713768,0.010927204042673111,0.2017582207918167
1783170119232737000,8.001737060546875,0.02362942509353161,0.17343086004257202,0.22644777595996857
1783170119242806000,8.011805908203126,0.11065514385700226,0.2233709990978241,0.26596614718437195
1783170119252876000,8.0218759765625,0.1377573013305664,0.12741610407829285,0.21408304572105408
1783170119262945000,8.031945068359375,0.13013480603694916,-0.056857869029045105,0.08458764106035233
1783170119273014000,8.042013916015625,0.0990896075963974,-0.233947291970253,-0.02365885302424431
1783170119283084000,8.052083984375,0.0419863760471344,-0.3348075747489929,-0.07222825288772583
1783170119293153000,8.062153076171874,-0.027647659182548523,-0.35050079226493835,0.023098506033420563
1783170119303223000,8.07222314453125,-0.09623470902442932,-0.2651081383228302,0.20514261722564697
1783170119313292000,8.0822919921875,-0.12137898802757263,-0.08265098929405212,0.3467896282672882
1783170119323361300,8.092361328125,-0.12941694259643555,0.12996220588684082,0.45969247817993164
1783170119333431000,8.10243115234375,-0.16082410514354706,0.34893277287483215,0.5326470136642456
1783170119343500000,8.1125,-0.24392005801200867,0.5287123918533325,0.5863147974014282
1783170119353569000,8.122569091796874,-0.32270658016204834,0.6637952923774719,0.6607587933540344
1783170119363639000,8.13263916015625,-0.36593392491340637,0.8082323670387268,0.6478549838066101
1783170119373708000,8.1427080078125,-0.34985822439193726,1.05197274684906,0.47856709361076355
1783170119383777000,8.152777099609375,-0.3082234263420105,1.3348121643066406,0.3280811905860901
1783170119393847000,8.162846923828125,-0.23312358558177948,1.7025060653686523,0.21842938661575317
1783170119403916000,8.172916015625,-0.13609345257282257,2.201909303665161,0.021659601479768753
1783170119413986000,8.182986083984375,0.026678064838051796,2.5565385818481445,-0.20516465604305267
1783170119424055000,8.193054931640624,0.25901809334754944,2.4008378982543945,-0.47384458780288696
1783170119434124000,8.2031240234375,0.4165870249271393,1.8134839534759521,-0.8920524716377258
1783170119444194000,8.213194091796876,0.35693755745887756,0.9408704042434692,-1.3815553188323975
1783170119454263000,8.223262939453125,0.15250298380851746,0.09879587590694427,-1.7262455224990845
1783170119464332000,8.23333203125,-0.024039290845394135,-0.4302583634853363,-1.765140414237976
1783170119474402000,8.243402099609375,-0.07742548733949661,-0.5706617832183838,-1.4184101819992065
1783170119484471000,8.253470947265624,-0.02878550812602043,-0.3257947564125061,-0.8510708212852478
1783170119494540000,8.2635400390625,0.0478973388671875,0.20342282950878143,-0.2757164537906647
1783170119504610000,8.273610107421876,0.05211631953716278,0.6475014686584473,0.055544041097164154
1783170119514679000,8.283678955078125,0.2175547033548355,0.5849305391311646,0.5252864956855774
1783170119524749000,8.2937490234375,0.38075801730155945,0.7895070910453796,0.9348050355911255
1783170119534818000,8.303818115234375,0.01702931337058544,0.5601404905319214,0.511295735836029
1783170119544887000,8.313886962890624,-0.046497732400894165,0.06611239910125732,0.059456128627061844
1783170119554957000,8.32395703125,0.011652125045657158,-0.3250575065612793,-0.3436090350151062
1783170119565026000,8.334026123046876,0.14282798767089844,-0.4457716643810272,-0.6292780637741089
1783170119575095000,8.344094970703125,0.27374714612960815,-0.32337358593940735,-0.7273201942443848
1783170119585165000,8.3541650390625,0.37893906235694885,-0.0871458649635315,-0.7040055990219116
1783170119595234000,8.364234130859375,0.4334554076194763,0.03537939861416817,-0.6325598955154419
1783170119605303000,8.374302978515624,0.42141231894493103,0.023165078833699226,-0.5349792838096619
1783170119615373000,8.384373046875,0.35044586658477783,-0.019357630982995033,-0.41794899106025696
1783170119625442000,8.394442138671875,0.2513858675956726,-0.052041538059711456,-0.25120314955711365
1783170119635512000,8.404511962890625,0.212478905916214,-0.02795138955116272,0.028362572193145752
1783170119645581000,8.4145810546875,0.2139497697353363,-0.047254778444767,0.3589863181114197
1783170119655650000,8.424650146484375,0.22453780472278595,-0.05196842923760414,0.664707601070404
1783170119665720000,8.434719970703124,0.28506720066070557,-0.10653261095285416,0.8155143857002258
1783170119675789000,8.4447890625,0.28545597195625305,-0.16638875007629395,0.8626556396484375
1783170119685858000,8.454858154296875,0.2466563731431961,-0.19357456266880035,0.7203165888786316
1783170119695928000,8.464927978515625,0.21261510252952576,-0.24052023887634277,0.5334962606430054
1783170119705997000,8.4749970703125,0.18239009380340576,-0.2419586181640625,0.4578009843826294
1783170119716066000,8.485066162109375,0.14108876883983612,-0.16674481332302094,0.522045373916626
1783170119726136000,8.495135986328124,0.08131331950426102,-0.11146184056997299,0.6838697195053101
1783170119736205000,8.505205078125,0.03475414961576462,-0.09971264004707336,0.8719291090965271
1783170119746275000,8.515275146484376,-0.004866231698542833,-0.15467920899391174,1.0330504179000854
1783170119756344000,8.525343994140625,-0.037599168717861176,-0.26774200797080994,1.135818362236023
1783170119766413000,8.5354130859375,-0.043501533567905426,-0.41788142919540405,1.207892656326294
1783170119776483000,8.545483154296875,-0.03533557429909706,-0.5709298253059387,1.2382537126541138
1783170119786552000,8.555552001953124,-0.029829224571585655,-0.6484294533729553,1.2131723165512085
1783170119796621000,8.56562109375,-0.01597294583916664,-0.6552392840385437,1.1449159383773804
1783170119806691000,8.575691162109376,0.002273703459650278,-0.6095865368843079,1.0774275064468384
1783170119816760000,8.585760009765625,0.020945491269230843,-0.4930339753627777,1.0229872465133667
1783170119826829000,8.5958291015625,0.041176993399858475,-0.373654842376709,0.9877302050590515
1783170119836899000,8.605899169921875,0.05245567485690117,-0.2116309404373169,0.9476487636566162
1783170119846967800,8.6159677734375,0.0669454038143158,-0.03304175287485123,0.9027372002601624
1783170119857038000,8.6260380859375,0.07181613147258759,0.07397325336933136,0.8708658814430237
1783170119867107000,8.636107177734376,0.071962870657444,0.08454999327659607,0.781631350517273
1783170119877176000,8.646176025390625,0.09493865817785263,0.030990514904260635,0.6531451344490051
1783170119887246000,8.65624609375,0.11645353585481644,-0.07018430531024933,0.5114657282829285
1783170119897315000,8.666315185546875,0.1389818787574768,-0.11760216951370239,0.35440221428871155
1783170119907384000,8.676384033203124,0.1465417891740799,-0.10022851079702377,0.17261618375778198
1783170119917454000,8.6864541015625,0.12961256504058838,-0.008478350937366486,-0.029452377930283546
1783170119927523000,8.696523193359376,0.1167130097746849,0.09772132337093353,-0.20104117691516876
1783170119937592000,8.706592041015625,0.11367452889680862,0.20391356945037842,-0.3322193920612335
1783170119947662000,8.716662109375,0.1093282476067543,0.3134978413581848,-0.4425046145915985
1783170119957731000,8.72673095703125,0.1326732635498047,0.44490912556648254,-0.5439327359199524
1783170119967801000,8.736801025390625,0.15073402225971222,0.5994874835014343,-0.5643285512924194
1783170119977870000,8.7468701171875,0.17823176085948944,0.7988794445991516,-0.5383281111717224
1783170119987939000,8.75693896484375,0.22843767702579498,0.9833803176879883,-0.4829903244972229
1783170119998009000,8.767009033203125,0.2281617820262909,1.2027521133422852,0.15400034189224243
1783170120008078000,8.777078125,0.23591424524784088,1.1801543235778809,-0.3201824128627777
1783170120018147000,8.78714697265625,0.17409056425094604,0.42920032143592834,-0.5316769480705261
1783170120028217000,8.797217041015625,0.09054560959339142,-0.3116644620895386,-0.8568116426467896
1783170120038286000,8.8072861328125,0.05678844451904297,-0.8023673295974731,-0.997460126876831
1783170120048355000,8.81735498046875,0.040999095886945724,-0.9808782339096069,-0.768765389919281
1783170120058424800,8.8274248046875,0.0914350375533104,-0.8588102459907532,-0.30485373735427856
1783170120068494000,8.837494140625,0.06773263216018677,-0.6434542536735535,0.07969313859939575
