time,seconds_elapsed,z,y,x
1783169837524971500,0.068971435546875,0.15306173298954961,0.0950011736869812,-0.31407672653850166
1783169837535041500,0.07904150390625,0.10256430241763591,0.009443535649776458,-0.29599096168447286
1783169837545110500,0.089110595703125,0.10287643710672854,-0.021473580661416053,-0.22468528249207884
1783169837555180500,0.0991806640625,0.1108604215979576,-0.03004091799855232,-0.24512725508343428
1783169837565250300,0.109250244140625,0.08700842136740684,-0.024228432327508924,-0.22725900543760508
1783169837575319600,0.119319580078125,0.02990063274502754,0.012895137408375739,-0.24735881352778522
1783169837585389300,0.129389404296875,-0.02773030296862125,0.0822305394411087,-0.19939912127256393
1783169837595458600,0.13945849609375,-0.04204290595948696,0.09372925405502319,-0.14699063291493802
1783169837605528600,0.149528564453125,0.025348668529093264,0.05381868394911289,-0.07647493505645543
1783169837615598300,0.159598388671875,0.04422258808612823,0.031905542826652526,-0.06112677847277373
1783169837625667600,0.16966748046875,0.03457797690629959,0.022806875091791152,-0.07930621295962482
1783169837635737300,0.1797373046875,0.04806055881381035,0.016484686332941055,-0.09505706859268248
1783169837645806600,0.189806640625,0.06541033754348755,-0.04155541470348835,-0.13249606095328925
1783169837655876400,0.19987646484375,0.05159107102751732,-0.05549333916306495,-0.17183467639014124
1783169837665946400,0.2099462890625,0.02694704363644123,-0.015243161839246748,-0.17741861400231718
1783169837676015400,0.220015380859375,0.02897387328892946,0.01613280415534973,-0.1913823304902762
1783169837686085400,0.23008544921875,0.0621162644341588,0.033040099814534186,-0.20294490412063895
1783169837696154600,0.240154541015625,0.06981120285093784,0.04113397442102432,-0.1574395827475935
1783169837706224400,0.250224365234375,-0.00537877042889595,0.07454349206984043,-0.14581683989521116
1783169837716294400,0.26029443359375,-0.03605214111208915,0.09291969123780727,-0.09626107408758253
1783169837726363400,0.27036328125,-0.05028115747272968,0.11923778932094574,-0.07533672480676323
1783169837736433400,0.280433349609375,-0.06525836185216903,0.16599252623319624,-0.1001439799355343
1783169837746502400,0.29050244140625,-0.12615502136349677,0.14723521879315377,-0.11278327941931783
1783169837756572400,0.300572509765625,-0.09196955090612173,0.1597457407981157,-0.11945139553900808
1783169837766642700,0.310642578125,-0.026799159598350525,0.20087971521914005,-0.13438373786341398
1783169837776711400,0.32071142578125,-0.04613543597012758,0.22070085249841212,-0.19402236013766377
1783169837786781400,0.330781494140625,-0.03584901975542307,0.1838806496232748,-0.18861604411471633
1783169837796850400,0.340850341796875,-0.0828442874252796,0.11060147840082644,-0.22351276811398565
1783169837806920400,0.35092041015625,-0.05858604448139667,0.0720832394361496,-0.247809626035206
1783169837816990500,0.360990478515625,-0.021864333544671533,0.011485855132341384,-0.2429570349048823
1783169837827059500,0.3710595703125,-0.03772971893548965,0.02263794826567173,-0.2307102784026414
1783169837837129500,0.38112939453125,-0.05032441209256649,0.050265375381708145,-0.1865047145165503
1783169837847198500,0.391198486328125,-0.0744616590052843,0.06906710648536682,-0.19115389202926306
1783169837857268500,0.4012685546875,-0.006525017854571342,0.12009937458634376,-0.14825042371768504
1783169837867339500,0.411339599609375,0.050206630931794644,0.06401917544603347,-0.10148417903073131
1783169837877408500,0.421408447265625,0.09690320791602135,0.022273791128396985,-0.08685352306663989
1783169837887478500,0.431478515625,0.04700198967158794,0.00407645565867424,-0.16200166649874298
1783169837897547800,0.4415478515625,0.04865794018507003,-0.053096799415349956,-0.15865951646398752
1783169837907617500,0.451617431640625,0.04353285225629806,-0.13355156135559082,-0.09342091875821351
1783169837917687600,0.4616875,-0.04057195662409067,-0.12221651287078857,-0.18121902919858693
1783169837927756500,0.471756591796875,-0.07690671406984328,-0.039270518636703486,-0.17494137370120733
1783169837937826600,0.48182666015625,-0.05547346541881561,0.028074001839756963,-0.14028448633980006
1783169837947895600,0.4918955078125,-0.056119362106919285,0.07450374458134174,-0.11510982267074286
1783169837957965600,0.501965576171875,-0.05732639980912208,0.07421499076783657,-0.10209120501317083
1783169837968035600,0.51203564453125,-0.0589224368289113,0.04721417111754417,-0.04534289735294878
1783169837978104600,0.5221044921875,-0.03779693895280361,0.04020107748508453,-0.04705726352278143
1783169837988174600,0.532174560546875,0.012848667918145656,0.08412848201692104,-0.059776788635924456
1783169837998243600,0.54224365234375,-0.020552666424214838,0.13295242641866206,-0.0719793041376397
1783169838008313600,0.552313720703125,-0.03625584699064493,0.13081950604319573,-0.09470931460093707
1783169838018383600,0.562383544921875,-0.019511340677738187,0.09690437695980071,-0.1388792957169935
1783169838028452600,0.57245263671875,0.004204465952515602,0.1447808113783598,-0.1495126987384632
1783169838038522600,0.582522705078125,-0.03837269301414489,0.15754150875210762,-0.22899229550361633
1783169838048591600,0.592591552734375,-0.026102117244899272,0.120184714782238,-0.23787922018393873
1783169838058661600,0.60266162109375,-0.011623510037362575,0.06231470961570739,-0.23277849951144305
1783169838068731600,0.612731689453125,-0.05477788437008858,-0.031657121023535725,-0.19878676152788102
1783169838078800600,0.622800537109375,-0.08031096955537796,-0.009624152913689612,-0.18076799749545752
1783169838088870400,0.632870361328125,-0.07318447867631912,0.04197977759540081,-0.20848339515589176
1783169838098939600,0.642939697265625,-0.11352934854626655,0.10080606057345867,-0.20733689200188962
1783169838109009400,0.653009521484375,-0.11872048744857311,0.1075666407495737,-0.2121520737312734
1783169838119079700,0.66307958984375,-0.07971008105278014,0.048374447068572045,-0.16757248890101908
1783169838129148700,0.673148681640625,-0.004997662156820297,-0.012744915282726288,-0.10497739144135267
1783169838139218700,0.68321875,0.01944938135743141,-0.007829670712351798,-0.04013130018450319
1783169838149287700,0.69328759765625,0.02540975106656551,0.06189443837702274,-0.047474904412962496
1783169838159357400,0.703357421875,0.01852875938117504,0.1136187803953886,-0.06850388311203569
1783169838169427700,0.713427734375,0.030659926679730415,0.13077917403280734,-0.07340524528753012
1783169838179496400,0.723496337890625,0.044427170747518535,0.07039338665306567,-0.057311859827116125
1783169838189566700,0.733566650390625,-0.02316372570544481,0.06441372772157192,-0.11835030242931097
1783169838199635500,0.743635498046875,-0.04527180487811565,0.061278936827182766,-0.15851188815422354
1783169838209705500,0.75370556640625,-0.06476677894294261,0.05237842201292515,-0.19967870539892463
1783169838219774500,0.7637744140625,-0.11634995892494916,0.06944879927933216,-0.17140753701925276
1783169838229844500,0.773844482421875,-0.18715338768363,0.05956278055906295,-0.09750844380017369
1783169838239914800,0.783914794921875,0.062486266790330404,0.07571545845866202,-0.04858260992653668
1783169838249983500,0.7939833984375,-0.052045244535803795,0.12528466826975346,-0.10338895320612937
1783169838260053800,0.8040537109375,-0.07527414443194866,0.08554360951185226,-0.1313413744928315
1783169838270122500,0.81412255859375,-0.04673486316800117,0.06012158348560333,-0.1077604097560048
1783169838280192500,0.824192626953125,-0.04416998111605644,0.06172083537578582,-0.1573456939190626
1783169838290262800,0.8342626953125,-0.19401859727799892,0.07892331458926201,-0.21664456284493205
1783169838300331500,0.84433154296875,-0.17044482946693895,0.10831833589971065,-0.19987711404785513
1783169838310401800,0.85440185546875,-0.12196633750200271,0.11493863082230091,-0.21553371552620082
1783169838320470500,0.864470458984375,-0.15665011287033556,0.09754267486333847,-0.18856354674249887
1783169838330540500,0.87454052734375,-0.15049918902516365,0.0979419033139944,-0.1850439577816054
1783169838340610600,0.884610595703125,-0.08365326572060584,0.10190203911662102,-0.2095529606161639
1783169838350679600,0.894679443359375,0.00019406126737594602,0.10008885221481323,-0.14945651157181708
1783169838360749800,0.904749755859375,-0.029178748211264607,0.11510288147330283,-0.14258520103022454
1783169838370818600,0.914818603515625,-0.05493453623652458,0.13202888183295727,-0.12859185658898203
1783169838380888600,0.924888671875,-0.02660597511380911,0.11512684687077998,-0.09590257950611412
1783169838390958600,0.93495849609375,-0.012853051832318305,0.0916547858685255,-0.11825473310034722
1783169838401027600,0.945027587890625,-0.002220014137029648,0.07771686140894889,-0.06469736696854234
1783169838411097600,0.95509765625,-0.0377536843329668,0.03953413800895214,-0.060787865374609826
1783169838421166600,0.96516650390625,-0.08552958098649978,0.05924830778241157,-0.11169036961607634
1783169838431236600,0.975236572265625,-0.07576222020983696,0.077690557923913,-0.1235561274440959
1783169838441306600,0.985306640625,-0.0785337307497859,0.052611061725020405,-0.15254399272575975
1783169838451375400,0.995375244140625,-0.11217091967463493,0.032335166415572165,-0.18648779991436748
1783169838461445600,1.005445556640625,-0.14782032520473,0.021147417446970938,-0.2088050648583099
1783169838471514600,1.0155146484375,-0.15274258403778077,0.005336684852838516,-0.1932347168913111
1783169838481584600,1.025584716796875,-0.12805442524403332,0.021469489008188247,-0.20252642298024146
1783169838491654700,1.035654541015625,-0.14599720143079756,0.04862871409058571,-0.2004130110228434
1783169838501723600,1.0457236328125,-0.1278901745930314,0.059085226175189014,-0.1607346787702292
1783169838511793700,1.055793701171875,-0.03094458884000778,0.05981120236217975,-0.13765253040101377
1783169838521862400,1.0658623046875,-0.03172843269407749,0.08960019142627716,-0.11574099671375006
1783169838531932700,1.0759326171875,0.022648177398741243,0.07924713971614837,-0.15762297649048268
1783169838542002700,1.086002685546875,0.03613426643759012,0.0798205556899309,-0.13768471563756465
1783169838552071700,1.09607177734375,-0.030035072779655454,0.08510404905080794,-0.1606171533377841
1783169838562141700,1.1061416015625,-0.06148176592290401,0.10751637186706066,-0.1194387552531436
1783169838572210400,1.11621044921875,-0.02555588153898716,0.10654372744262218,-0.08029770821500569
1783169838582280700,1.12628076171875,-0.04844458969533443,0.11086860490441322,-0.046662309388443825
1783169838592350700,1.136350830078125,-0.043589258618652815,0.11495090578198432,-0.03030278380513191
1783169838602419700,1.146419677734375,-0.06384498792290687,0.06568798544108867,0.025447050869651138
1783169838612489700,1.15648974609375,-0.10158142886012791,0.012406477108597755,0.09173555948715656
1783169838622558700,1.166558837890625,-0.10908581314086914,0.005372925209999084,0.10734039424564688
1783169838632628700,1.176628662109375,-0.052775020115077495,-0.010339023184776306,0.08033840555157512
1783169838642697500,1.186697509765625,-0.04176496580094099,-0.04707037873268127,0.049709056673198936
1783169838652767700,1.196767822265625,-0.047624797745049,-0.009319617009162902,-0.015748663675971327
1783169838662837500,1.20683740234375,-0.07356266433894634,-0.07226327217817306,-0.0415544283227995
1783169838672906800,1.21690673828125,-0.0836947667747736,-0.06988368356525898,-0.08956793312449007
1783169838682976500,1.2269765625,-0.04759674069434404,0.02074877351820469,-0.14872520162258296
1783169838693045500,1.23704541015625,-0.10056377625018358,0.008817512705922126,-0.14410539633482694
1783169838703115800,1.24711572265625,-0.014075579364597796,0.10103753124177456,-0.24552940614353863
1783169838713185500,1.257185546875,0.0221665313616395,0.08624912743270396,-0.22084351237211375
1783169838723254800,1.2672548828125,0.07691548189818859,0.1608411348193884,-0.32360348349232226
1783169838733324500,1.277324462890625,0.11006605634987354,0.16117781942784784,-0.33654161979220804
1783169838743393500,1.2873935546875,0.09989216059893369,0.1330804367125034,-0.32309308628477157
1783169838753463600,1.297463623046875,0.04304068482518196,0.12281389424204826,-0.3249411983694881
1783169838763533600,1.307533447265625,-0.010952478908002376,0.13864040892720222,-0.3025985797885805
1783169838773602600,1.3176025390625,-0.04670096089839935,0.14804302804470063,-0.27753092015795405
1783169838783672600,1.327672607421875,-0.05751607716232538,0.12155658765733242,-0.24058372990228236
1783169838793741800,1.337741943359375,-0.044866438947618006,0.10405015706121921,-0.16023315898887813
1783169838803811600,1.3478115234375,0.0024660978525876997,0.07127075400948524,-0.10132149928230792
1783169838813881600,1.357881591796875,0.015214228005707263,0.07808452567756176,-0.09627802522238343
1783169838823950600,1.36795068359375,-0.018461539363861083,0.060550038030743596,-0.06221015326268971
1783169838834020600,1.3780205078125,-0.06583382365256547,0.025626608687639236,-0.026996143475174903
1783169838844089600,1.388089599609375,-0.12251695712208747,0.06466448761224747,-0.05862845885101706
1783169838854159600,1.39815966796875,-0.034409926863014695,0.07212707857787609,-0.10562434757538139
1783169838864228400,1.408228271484375,-0.014374562311172484,0.028938509714603423,-0.13058675673324613
1783169838874297000,1.418297119140625,-0.00954933411180973,-0.028041268613934515,-0.16588526646643875
1783169838884367000,1.4283671875,-0.023635142609477043,-0.004216156390309334,-0.16879008452985433
1783169838894436000,1.43843603515625,-0.09178747233748435,0.03594517360627651,-0.15589326662104577
1783169838904506000,1.448506103515625,-0.056332712596654885,0.06535013178884982,-0.11901000844705849
1783169838914576400,1.458576416015625,-0.07202624855190515,0.07837152592539787,-0.14378405542597175
1783169838924645000,1.46864501953125,-0.08652063785046339,0.059494391497969625,-0.18166604231372474
1783169838934715400,1.47871533203125,-0.0835462982147932,0.0527636219382286,-0.23081888987626878
1783169838944784100,1.4887841796875,-0.045835868501663206,0.021270167043805122,-0.26922311053983866
1783169838954854100,1.498854248046875,-0.01885784520506859,-0.023702362626791,-0.30955230791661886
1783169838964923100,1.508923095703125,0.003545125260949135,-0.022647885137796402,-0.2977802562540397
1783169838974993200,1.5189931640625,0.07181202127933502,0.022795769175887107,-0.2533089541038498
1783169838985063400,1.5290634765625,0.13324468736350537,0.034064182165265085,-0.19416377790234982
1783169838995132200,1.539132080078125,0.14709025736451148,0.06547171234190463,-0.18936408600304275
1783169839005202200,1.5492021484375,0.0969116834834218,0.09161094672679901,-0.17166962202154099
1783169839015271200,1.559271240234375,0.06682780312597751,0.09600830490291118,-0.1695862398762256
1783169839025341200,1.569341064453125,0.044559564955532545,0.10797229894101619,-0.14369732699058949
1783169839035411200,1.5794111328125,0.008615268132090568,0.11339724659919738,-0.16618231318425386
1783169839045480200,1.589480224609375,-0.08097732450962067,0.10408347480893135,-0.12746646928824484
1783169839055550500,1.599550537109375,-0.08765197996795177,0.11361644230782986,-0.12147398740779608
1783169839065619200,1.609619140625,-0.05845481931716203,0.09975275212824344,-0.1481212078474462
1783169839075689200,1.619689208984375,-0.0633820465862751,0.07936579765975475,-0.19716569966468958
1783169839085759200,1.62975927734375,-0.05662701936811208,0.04141220684051514,-0.19308599260300396
1783169839095828200,1.639828125,-0.06919599356204272,-0.0014098667979240416,-0.21108513861950487
1783169839105898200,1.649898193359375,-0.08608984521776437,0.007204232290387153,-0.23022939955051988
1783169839115967200,1.65996728515625,-0.08887743010967969,0.056744216006994246,-0.2784079587208107
1783169839126037200,1.670037353515625,-0.05283697943538427,0.06723579940497874,-0.31852965082675216
1783169839136106200,1.680106201171875,0.06366670874655246,0.06965513550639152,-0.32261991581507027
1783169839146176300,1.69017626953125,0.07044657814502715,0.10252747753858565,-0.32189156500790267
1783169839156246300,1.700246337890625,0.05496113198250532,0.1201496434688568,-0.2983318257221952
1783169839166315300,1.710315185546875,0.06196224291622638,0.11199205597639084,-0.3166682408690452
1783169839176385300,1.72038525390625,0.12845336143374442,0.08242284714281559,-0.2594633120151236
1783169839186454300,1.730454345703125,0.14574673380106687,0.07951134361028671,-0.24457835249640045
1783169839196524000,1.74052392578125,0.11826952881067991,0.0783697723597288,-0.2556273505814373
1783169839206594300,1.75059423828125,0.10767302373349666,0.07979775933623313,-0.2534434672037139
1783169839216663000,1.7606630859375,0.08129910380989312,0.08928805673718451,-0.25585560637935995
1783169839226733300,1.7707333984375,0.028685703997313974,0.09599602994322776,-0.251578586647287
1783169839236802300,1.78080224609375,0.04819733693599701,0.05689093100130558,-0.19492336409799754
1783169839246872000,1.7908720703125,-0.005026888251304626,-0.01963935097157955,-0.11913129673916846
1783169839256942300,1.8009423828125,-0.06960106723159551,-0.04283317955434322,-0.05908135371766984
1783169839267011000,1.811010986328125,-0.07050853746533393,-0.03604454232752323,0.0008636310920119285
1783169839277081300,1.821081298828125,-0.048798225438594814,-0.05386310761272907,0.015610533846914767
1783169839287150000,1.831150146484375,-0.05659545518606901,-0.018823358413577077,-0.019752930881269275
1783169839297220400,1.841220458984375,-0.06178454826176166,0.020922376519441604,-0.07882909696716815
1783169839307289000,1.8512890625,-0.05151712900847196,0.03348901262581348,-0.12803846048992126
1783169839317359000,1.861359130859375,-0.08482990828454494,0.06101707102060318,-0.2252393361782655
1783169839327429400,1.871429443359375,-0.08650339445471764,0.0752116005897522,-0.25268804572653025
1783169839337498000,1.881498046875,-0.04095686428844929,0.047560792598128315,-0.27273173971530046
1783169839347568400,1.891568359375,0.01580430285334587,0.07066343576610087,-0.30666159144379196
1783169839357637000,1.90163720703125,0.0235889653801918,0.05826514196395874,-0.3043327466374263
1783169839367707100,1.91170703125,0.04126256923675537,0.03902092778980732,-0.29880470393095165
1783169839377777400,1.92177734375,0.08555529994964599,0.023762568381428716,-0.24198464620877055
1783169839387846100,1.93184619140625,0.06202215640991926,0.05133680400550365,-0.21285642260834572
1783169839397916400,1.94191650390625,0.033654140059649944,0.07304419342279433,-0.18354422074314206
1783169839407985200,1.951985107421875,0.06139613346606493,0.06534194848239422,-0.14545973355323075
1783169839418055200,1.96205517578125,0.054765609410405154,0.09979717579185962,-0.09680657914113253
1783169839428125200,1.972125244140625,0.042430151711404324,0.11511281834542751,-0.09192739226482809
1783169839438194200,1.982194091796875,0.0502259201541543,0.08750994114875793,-0.1028186790375039
1783169839448264200,1.99226416015625,0.08591828804314136,0.014648703077435493,-0.1132468418104574
1783169839458333200,2.002333251953125,0.07606266446113585,-0.018545125994086264,-0.16726988922525196
1783169839468403500,2.012403564453125,0.06447276443243026,-0.048796471872925753,-0.16988821849748492
1783169839478472200,2.02247216796875,0.05646013836860656,-0.04190028261840343,-0.24057028589881954
1783169839488542200,2.032542236328125,0.043863983906805515,-0.027897476229071617,-0.24599461250249294
1783169839498612200,2.0426123046875,0.02317980005741119,-0.015140870508551597,-0.2002224934194237
1783169839508681200,2.05268115234375,-0.037950083687901495,0.0459013349533081,-0.1973650581616908
1783169839518751200,2.062751220703125,-0.039542321315407754,0.10494915172755717,-0.18492197536975144
1783169839528820200,2.0728203125,-0.029048984351754188,0.08145078724026679,-0.17011135972887276
1783169839538890200,2.08289013671875,-0.01308247667402029,0.03663374039232731,-0.1488693228010088
1783169839548960300,2.092960205078125,-0.025483108563721178,-0.0058317748934030526,-0.1226103344939649
1783169839559029200,2.103029296875,-0.008725742769241332,0.03039864539504051,-0.1030975325115025
1783169839569099300,2.113099365234375,-0.029999709205329416,0.09725509009361266,-0.08029770821500569
1783169839579168300,2.123168212890625,-0.07865677260756491,0.1449234347194433,-0.11953578588683157
1783169839589238300,2.13323828125,-0.03118891898989677,0.1461743115633726,-0.1614818438757211
1783169839599308300,2.143308349609375,-0.01406798058003187,0.08562427353262901,-0.17768424266856161
1783169839609377000,2.153376953125,-0.042055765441060065,0.06882219181358813,-0.2383453763909638
1783169839619447300,2.163447265625,-0.026972470338642595,0.04825052842795849,-0.28099728109426797
1783169839629516000,2.17351611328125,0.023417700466513633,0.028573768055438993,-0.29869886893630027
1783169839639586300,2.18358642578125,0.06501724657267331,0.024591420421004293,-0.2868725663358345
1783169839649655300,2.1936552734375,0.07518091319054365,0.030683892077207564,-0.23024803118575363
1783169839659725300,2.203725341796875,0.10623889927715062,0.07833411652445793,-0.2065210821069777
1783169839669795300,2.21379541015625,0.08089198431372642,0.100756960734725,-0.1607541871882975
1783169839679864000,2.223864013671875,0.06453297018706798,0.07972937027513981,-0.12371957437749952
1783169839689934300,2.233934326171875,0.08576485104709863,0.050042672541737554,-0.08758629432059824
1783169839700003000,2.244003173828125,0.025951895119249817,0.04329027567207813,-0.1234710429765284
1783169839710073300,2.2540732421875,-0.03015899142026901,0.00000526069700717926,-0.09291567264981568
1783169839720143400,2.264143310546875,-0.03213438314646482,0.008288520395755767,-0.09170870801284908
1783169839730212000,2.274212158203125,-0.06160510004162788,0.04690729712545871,-0.10343114838004111
1783169839740282400,2.284282470703125,-0.08372165478169917,0.08462824823260306,-0.10244747110493481
1783169839750351000,2.29435107421875,-0.07927578128874302,0.09120879566669464,-0.09774316587150096
1783169839760421400,2.30442138671875,-0.11450491558015345,0.06120587159097194,-0.11373747487161308
1783169839770491100,2.3144912109375,-0.1363558051213622,0.0059784898877143855,-0.158429908959195
1783169839780560100,2.32456005859375,-0.15644757603555917,-0.009886018720269202,-0.14916176640894263
1783169839790630400,2.33463037109375,-0.09413403546363115,0.026911387801170347,-0.18089524060431866
1783169839800699100,2.34469921875,-0.06156242994368076,0.04079845885634422,-0.17790658018235117
1783169839810769400,2.354769287109375,-0.06890110226869582,0.057204234734177586,-0.15580007191225886
1783169839820838100,2.364838134765625,-0.05385755465477705,0.11782558443546294,-0.19758560557719318
1783169839830908400,2.374908447265625,0.014978373423218725,0.12057459088265896,-0.19146478460934013
1783169839840978200,2.384978271484375,0.01708966648876667,0.07864332860410213,-0.17787220298871398
1783169839851047200,2.395047119140625,0.039458442424237725,0.06782850460112094,-0.16403404910918323
1783169839861117200,2.4051171875,0.03995616281330585,0.06838496944010257,-0.1475257992375642
1783169839871186000,2.41518603515625,0.028680443300306797,0.049853871971368785,-0.1583805899247527
1783169839881256000,2.425255859375,0.006013561201095581,0.005282324317097664,-0.1799153261888772
1783169839891326000,2.435325927734375,0.049881344500184055,0.00916588775217533,-0.1750188593842089
1783169839901395200,2.445395263671875,0.05507394470721483,0.02510053898692131,-0.15102562405206263
1783169839911465000,2.45546484375,0.05391805267035961,0.024995909568667412,-0.11866612691283225
1783169839921534000,2.465533935546875,0.07841799541562795,0.012160393393039703,-0.08984316986929625
1783169839931604000,2.47560400390625,0.09120762662291526,0.032065117302536965,-0.019061149224825203
1783169839941674000,2.485674072265625,0.05692074161767959,0.02645896785855293,-0.12272705620881169
1783169839951743000,2.495742919921875,0.024506372486054896,0.046266076612472534,-0.10551997388545423
1783169839961813000,2.50581298828125,-0.04857172320634126,0.07757365354597567,-0.09923826326746493
1783169839971882000,2.515882080078125,0.01044774425625801,0.060927054649591444,-0.09149974143728613
1783169839981952000,2.525951904296875,0.013217793491482733,0.07799860095977783,-0.11683781550712882
1783169839992021000,2.53602099609375,-0.009992693965137004,0.07555237685143947,-0.1459826249161735
1783169840002091000,2.546091064453125,-0.05761018518656492,0.08078034063279628,-0.14870795822683722
1783169840012161000,2.5561611328125,-0.04843786769360304,0.08506196347475051,-0.15295991658288985
1783169840022230000,2.56622998046875,-0.06254238089174032,0.033243513432145114,-0.188725788099505
1783169840032300000,2.576300048828125,-0.09937924264073371,0.038490766435861586,-0.16666173073165116
1783169840042368800,2.58636865234375,-0.085521689940989,0.050996027743816376,-0.18716281309910118
1783169840052439000,2.59643896484375,-0.027350363740324974,0.058198506468534465,-0.15775230195857584
1783169840062509000,2.606509033203125,-0.0931251506820321,0.04198270020484924,-0.15409403517935424
1783169840072578000,2.616578125,-0.13764876754134892,0.060192310634255404,-0.13173647475764155
1783169840082648000,2.62664794921875,-0.04917611884027719,0.10035364063084125,-0.10622472462132572
1783169840092717000,2.636717041015625,-0.05789163247644901,0.09877543152868747,-0.09009268765095621
1783169840102787000,2.646787109375,-0.03399637762606144,0.09068564857542515,-0.11056830678358673
1783169840112855800,2.656855712890625,-0.045075697784125804,0.13092647354900835,-0.12002528643682599
1783169840122926000,2.666926025390625,-0.05996756196767091,0.13689035038948058,-0.13382599438279866
1783169840132996000,2.67699609375,-0.06564706890881061,0.10119301406443118,-0.14931502074189484
1783169840143065000,2.687065185546875,-0.06164192492067813,0.1028916346758604,-0.16497783276531844
1783169840153135000,2.697135009765625,-0.06802373491227627,0.08662146787643432,-0.165105916124396
1783169840163203800,2.707203857421875,-0.06842354788482188,0.0838514186412096,-0.18190511176660656
1783169840173274000,2.717274169921875,-0.09858341608792542,0.0863040724903345,-0.1904783673878759
1783169840183343900,2.72734375,-0.061575581686198706,0.07060615262091159,-0.21462533197700975
1783169840193413000,2.7374130859375,-0.07448299405425786,0.06815116068422794,-0.19641057044845073
1783169840203483000,2.74748291015625,-0.03609948738515377,0.07733224600553512,-0.18006131053082644
1783169840213551900,2.7575517578125,-0.04344838884323835,0.02930675850510597,-0.09827687088940291
1783169840223622100,2.7676220703125,-0.08098141616284847,0.024067688807845114,-0.06133351655863225
1783169840233692000,2.77769189453125,-0.06857698488086461,0.04737725272476673,0.002831095240078866
1783169840243761200,2.78776123046875,-0.1072249877050519,0.08766542397141457,-0.0023282602844759822
1783169840253831000,2.797830810546875,-0.08282996663898229,0.13431670050919056,-0.053727535066939884
1783169840263900200,2.807900146484375,-0.08447977967262267,0.12964695513248442,-0.08893719747290015
1783169840273970000,2.817969970703125,-0.07148878067433834,0.1128647471576929,-0.1542179538199678
1783169840284039000,2.828038818359375,-0.04295125297605991,0.08073240983784198,-0.2128898864865303
1783169840294109000,2.83810888671875,-0.016087795969843863,0.05947334870994091,-0.23852803948149084
1783169840304179000,2.848178955078125,-0.03119388742595911,0.04588087668716907,-0.250897582113184
1783169840314248200,2.858248291015625,-0.04330284289270639,-0.021267244434356687,-0.21962748764585702
1783169840324318000,2.86831787109375,-0.058305766235291955,-0.007869418200850487,-0.2063158418584615
1783169840334387000,2.878386962890625,-0.013788871377706527,0.003428220883011818,-0.1681896344186738
1783169840344457000,2.88845703125,-0.031234219436347483,0.05318564674258232,-0.12684121352937072
1783169840354527000,2.89852685546875,0.0019815292060375213,0.11191548360884189,-0.08171473540607839
1783169840364596000,2.908595947265625,0.025926760677993297,0.10662380694150925,-0.06625924599040299
1783169840374666000,2.918666015625,0.03630933074355125,0.096599841055274,-0.054300658779777584
1783169840384735000,2.92873486328125,0.01828296792656183,0.08595862005352974,-0.024567308893054723
1783169840394805000,2.938804931640625,-0.0379608973428607,0.1006435634881258,-0.07964961956981569
1783169840404874000,2.9488740234375,-0.05773059669584035,0.08863631483018397,-0.13475490926336497
1783169840414944000,2.958944091796875,-0.04845832595974207,0.05715396585166454,-0.1829376696847379
1783169840425014000,2.969013916015625,-0.04959668233990669,0.02574059045612812,-0.19986856541521847
1783169840435083000,2.9790830078125,-0.06952946330010891,0.026435586982965466,-0.2245087934140116
1783169840445153000,2.989153076171875,-0.0944914705991745,0.03683189331293106,-0.20808836795631794
1783169840455222000,2.999221923828125,-0.07612520830333233,0.030237317353487014,-0.1883437665119767
1783169840465292000,3.0092919921875,-0.0668108519911766,0.007682371196150779,-0.14624408886395393
1783169840475362000,3.019362060546875,-0.1058195048213005,0.028628713113069533,-0.10653547107093035
1783169840485431000,3.02943115234375,-0.06188128663450479,0.058897010126709934,-0.07347790866494178
1783169840495501000,3.0395009765625,-0.03207096252143383,0.08629472014009952,-0.08445055357813834
1783169840505570000,3.049570068359375,-0.04048047894835472,0.10928513510525226,-0.11740052742380648
1783169840515640000,3.05964013671875,-0.02669043852686882,0.10533668974041938,-0.12519622280132026
1783169840525708800,3.069708740234375,0.022213293112814426,0.08767419179975985,-0.1602175595609471
1783169840535779000,3.079779052734375,0.004584112919867039,0.0837906283646822,-0.1859147857993841
1783169840545849000,3.08984912109375,0.011353753185272215,0.048671384188532826,-0.17908194410465655
1783169840555918000,3.09991796875,0.0005918284133076667,0.055700259912014,-0.1652730893848464
1783169840565988000,3.109988037109375,-0.04935527479946613,0.05723521439433098,-0.16287026602681726
1783169840576056800,3.120056884765625,-0.10591156701892614,0.09296703751087187,-0.19840967184379696
1783169840586127000,3.130127197265625,-0.07830810530036687,0.10740472818613052,-0.24748916190918532
1783169840596196900,3.14019677734375,-0.017456746235489845,0.08717501010596751,-0.2387330605342984
1783169840606266000,3.15026611328125,-0.038652386738359926,0.06133972710371017,-0.2361284675264731
1783169840616336000,3.1603359375,-0.08297229771912097,0.09410510163009166,-0.22418723330944776
1783169840626405000,3.170405029296875,-0.05645253958404064,0.08470598964393139,-0.20855233220625669
1783169840636475100,3.18047509765625,-0.024026187753677368,0.06660685385167599,-0.18263598332442343
1783169840646544000,3.1905439453125,-0.044049569606781004,0.08169161025881767,-0.1659585143657401
1783169840656614100,3.2006142578125,-0.11060381648838519,0.09870528890192508,-0.15764734374675898
1783169840666684000,3.210683837890625,-0.0905652370661497,0.10743395428061485,-0.14967782617229966
1783169840676753200,3.220753173828125,-0.05529664754718542,0.06123217507600784,-0.15806016233135015
1783169840686823000,3.230822998046875,-0.057171501508355135,0.03318506124317646,-0.16527714450545608
1783169840696892000,3.240891845703125,-0.034526831240952016,0.00022679449319839477,-0.12766637577451764
1783169840706962000,3.2509619140625,0.02887538135051727,0.011978022563457489,-0.12357070395871995
1783169840717032000,3.261031982421875,0.05284545500278472,0.025492753174901007,-0.11476966746356337
1783169840727101200,3.27110107421875,0.01851005468070507,0.03646948974132538,-0.14271660885754972
1783169840737171000,3.2811708984375,0.04785042319446802,0.03828267664313316,-0.12904109819382428
1783169840747240200,3.291240234375,0.05843260748535394,0.03064823624193668,-0.1428347188118845
1783169840757310000,3.30131005859375,0.046508653196692465,0.06158756438493728,-0.1763859099537134
1783169840767379000,3.31137890625,0.02902238860577345,0.013717559707164763,-0.1965710582397878
1783169840777449000,3.321448974609375,0.05027268190532923,0.010262450817227363,-0.2016564717452973
1783169840787519000,3.33151904296875,0.039894203492999075,0.035927637949585915,-0.18892065308447925
1783169840797588000,3.341587890625,0.017672434812784195,0.05346387916207313,-0.1908569914419204
1783169840807658000,3.351657958984375,-0.007705752071738243,0.05308393993377685,-0.19389263281077146
1783169840817727000,3.36172705078125,0.04610679439753294,0.05583002377152443,-0.15852511296197772
1783169840827797000,3.371796875,0.03623714229017496,0.06972820074260234,-0.17067951500564812
1783169840837867000,3.381866943359375,-0.015141455030441283,0.07677636568844318,-0.16673377305455506
1783169840847936000,3.39193603515625,-0.04219605069458485,0.0593126051902771,-0.13262761491108685
1783169840858006000,3.402006103515625,-0.040950434547662735,0.048070495685935015,-0.12135700996462255
1783169840868075500,3.412075439453125,-0.06067015727907419,0.07625964833796024,-0.12306322936061768
1783169840878145800,3.422145751953125,-0.04154723139703274,0.06285597688555718,-0.11396697277855128
1783169840888215800,3.4322158203125,-0.029718261915445326,0.04744856439530849,-0.09712649527788161
1783169840898284800,3.442284912109375,-0.033900516036152836,0.03904021701216698,-0.09032003013342618
1783169840908354800,3.452354736328125,-0.008175415410101413,0.05550561412274837,-0.10941376645360142
1783169840918423600,3.462423583984375,0.0034299744486808773,0.06375730963945389,-0.146893931074813
1783169840928493800,3.472493896484375,-0.02607961315214634,0.07898527390956878,-0.1843876858299598
1783169840938562600,3.4825625,-0.003924479967355728,0.09240940362811088,-0.22599873971082268
1783169840948632800,3.4926328125,-0.05408990210592746,0.08227730119228363,-0.24501897240336984
1783169840958702800,3.502702880859375,-0.09607873979061841,0.031472412106394766,-0.21322306396365165
1783169840968771600,3.512771484375,-0.09203764770627021,-0.004816460371017456,-0.19452935981173067
1783169840978841900,3.522841796875,-0.025490999609231946,0.043460371541976926,-0.16495828781463204
1783169840988910600,3.53291064453125,-0.005287585014104843,0.04773731820881366,-0.13810348903890698
1783169840998980900,3.54298095703125,0.028299627289175986,0.04282908790111541,-0.1068381803445518
1783169841009051000,3.55305078125,0.016909049224853513,0.10275485655367374,-0.09316069691944867
1783169841019119600,3.56311962890625,0.05144143342375755,0.17077216172516346,-0.0931169673755765
1783169841029190000,3.57318994140625,-0.027146365600824354,0.09906886151731013,-0.12593746962267904
1783169841039258600,3.583258544921875,-0.04167874882221222,0.08077274184823036,-0.1597226521834731
1783169841049329000,3.593328857421875,0.03267038971930742,0.05300152234733104,-0.17389990182425827
1783169841059397600,3.603397705078125,0.022553192591667173,-0.0009866729497909545,-0.18401677015833556
1783169841069468000,3.613468017578125,-0.03424070777595043,-0.013135375905036925,-0.19451021671984345
1783169841079537700,3.62353759765625,-0.008068740165233611,0.00542670122385025,-0.17105423006955534
1783169841089606700,3.633606689453125,0.05818769281357526,0.019469255101680755,-0.17415438804198055
1783169841099676700,3.6436767578125,0.0664820584282279,0.04286766634583473,-0.1612889151195064
1783169841109745700,3.65374560546875,0.010067220506072044,0.060872109591960905,-0.13042429618053136
1783169841119816000,3.66381591796875,-0.007533610375225544,0.07462006443738937,-0.1442564952433109
1783169841129885700,3.6738857421875,0.04138327300697565,0.0523497804403305,-0.12132277890145778
1783169841139954700,3.68395458984375,0.05873246721476316,0.018232991304993628,-0.11560516843963414
1783169841150024700,3.694024658203125,0.02759410936832428,0.0004161795854568481,-0.08991064561493695
1783169841160093700,3.70409375,0.024034955582022666,0.029409049835801122,-0.10955164055433124
1783169841170163700,3.714163818359375,0.018656185153126715,0.019653964018821714,-0.13943185156583784
1783169841180232700,3.724232666015625,0.035899288637936115,-0.0044447044491767885,-0.12805241595003752
1783169841190302700,3.734302734375,0.07172375847399234,-0.011568272718787192,-0.16421620074305682
1783169841200372700,3.744372802734375,0.09500614212304354,0.03898994812965393,-0.17353585428483784
1783169841210441700,3.754441650390625,0.10977467218786477,0.06728373019993304,-0.1500655833808705
1783169841220511700,3.76451171875,0.06784662477970123,0.09834873054921627,-0.16922036570589988
1783169841230580700,3.774580810546875,0.06400573144257068,0.09497779281139374,-0.15393011332191525
1783169841240650800,3.784650634765625,0.03136719816625118,0.09008300650715828,-0.16572507093604652
1783169841250719700,3.7947197265625,-0.012981062126159668,0.10130290417969226,-0.17261526884119957
1783169841260789800,3.804789794921875,-0.04081540999114513,0.05448211629390716,-0.2081886865256354
1783169841270859800,3.81485986328125,-0.051072307850420474,0.04136486056745052,-0.20250760868191717
1783169841280928500,3.824928466796875,-0.05048895500451326,0.056369537475705146,-0.1714652950884774
1783169841290998800,3.834998779296875,-0.04755582416206598,0.05602525408267975,-0.19221023268178103
1783169841301067800,3.84506787109375,-0.06045242287516594,0.0464940401494503,-0.17638631181251258
1783169841311137800,3.8551376953125,-0.06534311752617358,0.016080781707167625,-0.13974511876609175
1783169841321207800,3.865207763671875,-0.027692309045791626,0.02694002937376499,-0.1631776149429381
1783169841331276500,3.875276611328125,-0.03226794639825821,0.055582186490297315,-0.15248670958057045
1783169841341346800,3.885346923828125,-0.018738018217682836,0.028513562300801275,-0.12220018279049545
1783169841351415600,3.89541552734375,-0.0179532975807786,0.023299627044796944,-0.11865476526860147
1783169841361485800,3.90548583984375,-0.08447334993183613,0.0533826306194067,-0.14182908543329686
1783169841371554600,3.915554443359375,-0.06299684666097163,0.060274143698811525,-0.12656462507769464
1783169841381624600,3.92562451171875,-0.009817045137286186,0.09028992725610732,-0.1379442433565855
1783169841391694800,3.93569482421875,-0.009814999310672283,0.08911737634539604,-0.1360155768489465
1783169841401763600,3.945763671875,-0.02836041756570339,0.0694336017102003,-0.1638332658400759
1783169841411833900,3.955833740234375,-0.002294248417019844,0.07752747631669044,-0.1646662460654974
1783169841421902600,3.965902587890625,0.043162849900126456,0.06668401074111462,-0.1402294682169333
1783169841431972900,3.975972900390625,0.00918634601831436,0.07832476417422295,-0.15813034149073063
1783169841442043000,3.98604296875,-0.016302607764303683,0.0692810414969921,-0.16730517973434178
1783169841452111600,3.996111572265625,-0.0356406377017498,0.07963000155389309,-0.1703741753835231
1783169841462182000,4.006181884765625,-0.046451370051503175,0.06643032824099064,-0.16576109209749848
1783169841472250600,4.016250732421875,-0.061924833515286444,0.05143149655163288,-0.15678542968779802
1783169841482321000,4.02632080078125,-0.059013037721812725,0.05046294378042221,-0.1294442356346175
1783169841492389600,4.0363896484375,-0.0071545479297637935,0.056392918351292606,-0.12358363650552928
1783169841502459600,4.046459716796875,0.003651508244872093,0.07735328879356383,-0.1260135305335745
1783169841512529700,4.05652978515625,0.012642916212975978,0.04460018922686577,-0.09456501075942068
1783169841522598700,4.0665986328125,0.07728022355735302,0.05488835900723934,-0.0765685316240415
1783169841532669000,4.0766689453125,0.029154198291897773,0.08314765428602695,-0.1281784534825012
1783169841542737700,4.086737548828125,-0.11731383552104234,0.05528524937033653,-0.12696761638801543
1783169841552807700,4.0968076171875,-0.014600187760591505,0.04486848477423191,-0.1431829111950472
1783169841562876700,4.106876708984375,0.04376198483705521,0.018674889853596686,-0.15928027871083467
1783169841572946700,4.11694677734375,0.006887713687121867,0.02547872464954853,-0.14539854141790418
1783169841583016700,4.1270166015625,-0.06215571966171264,0.05472703096568584,-0.140463642298989
1783169841593085700,4.137085693359375,-0.03914192382097244,0.08043722628355025,-0.1246518137263134
1783169841603155700,4.14715576171875,0.024560440760850906,0.061065586337447166,-0.0693552392443642
1783169841613224700,4.157224609375,0.019627952794730664,0.048613516521453855,-0.02738327962923795
1783169841623294700,4.167294677734375,-0.001719371138513088,0.060034489724040026,-0.027500658931210637
1783169841633364700,4.17736474609375,0.017779986840486525,0.062035892674326895,0.016451478183083235
1783169841643433700,4.187433837890625,0.02319733571410179,0.06469254466295242,-0.028045068006217477
1783169841653503700,4.197503662109375,-0.0459735234066844,0.10628010807037352,-0.0935930604547262
1783169841663572700,4.20757275390625,-0.05002513688504696,0.11320727698504925,-0.1134925967324525
1783169841673642800,4.217642822265625,-0.045782677009701726,0.10930442432761192,-0.15831245659198612
1783169841683711700,4.227711669921875,-0.07618278370946645,0.09529694176316261,-0.21378303593397138
1783169841693781500,4.237781494140625,-0.04238718935251236,0.07029810958504676,-0.24418179092686623
1783169841703851800,4.247851806640625,-0.048584874948859214,0.025139117431640625,-0.25491269950605927
1783169841713920800,4.257920654296875,-0.06568593961447478,0.015254267755150794,-0.26509755504243077
1783169841723990800,4.26799072265625,-0.05812164184004068,0.03239128051698208,-0.26614319163784383
1783169841734059800,4.278059814453125,-0.021975977225601673,0.02888239561319351,-0.2185026483343914
1783169841744129500,4.288129638671875,0.012886077319085597,0.05256254640817642,-0.15557309475596992
1783169841754198800,4.29819873046875,-0.016703882041573522,0.04143675675988197,-0.11012428934313356
1783169841764268500,4.3082685546875,-0.05746083984375,0.04461830940544605,-0.0639477541776374
1783169841774338800,4.3183388671875,-0.029397943919897078,0.06631634647250174,-0.05566566352266818
1783169841784407600,4.328407470703125,0.025077742633223533,0.08224398344457148,-0.06382708694003522
1783169841794477800,4.338477783203125,0.007453238615393638,0.06867021612226963,-0.04893047351613641
1783169841804546800,4.348546875,-0.021880992418527603,0.05010521638393402,-0.08633830355349928
1783169841814616600,4.358616455078125,-0.03966857804358005,0.06764379568397999,-0.08964684357959776
1783169841824686800,4.368686767578125,-0.016065584138035775,0.08660802387297153,-0.07763100975640118
1783169841834755600,4.378755615234375,-0.040190556091070175,0.10062485878765583,-0.11748765771798789
1783169841844825900,4.388825927734375,-0.026167875957489012,0.08117021673321724,-0.13630254056416452
1783169841854894600,4.39889453125,-0.04967880766540766,0.05214402873516082,-0.11859583815559745
1783169841864964900,4.40896484375,-0.07818886283487081,0.0934761560767889,-0.14177213108167053
1783169841875033900,4.419033935546875,-0.0599222615212202,0.08674947817027569,-0.15974822501614688
1783169841885103900,4.429103759765625,-0.023630758695304392,0.100669282451272,-0.16267178431265056
1783169841895174000,4.439173828125,-0.027564591012895105,0.1176268469929695,-0.19989512462858108
1783169841905243000,4.449242919921875,-0.04522241277843714,0.12308043622374534,-0.2327455836225301
1783169841915312600,4.459312744140625,-0.056098903840780256,0.09514321250617504,-0.20709471727646886
1783169841925382000,4.4693818359375,-0.00282031811773777,0.06547697303891181,-0.17821363683752714
1783169841935451600,4.47945166015625,0.0043932665228843685,0.03217734550535679,-0.16036800088230518
1783169841945521000,4.48952099609375,-0.019243629652261732,0.030519641426205633,-0.15676548287831246
1783169841955591000,4.4995908203125,-0.0012216507494449615,0.06566285099983216,-0.10960041159950196
1783169841965661000,4.509660888671875,0.02157294938266277,0.08665069397091865,-0.0977380147723481
1783169841975730000,4.51972998046875,0.05292056606560945,0.07926058371961116,-0.07905380910113453
1783169841985799700,4.529799560546875,0.01931990975886583,0.064005146920681,-0.05544449505265802
1783169841995869000,4.539868896484375,0.03904693901389837,0.05510813923776149,-0.06982888463810086
1783169842005938700,4.549938720703125,0.018063187696039675,0.03962941507697105,-0.0653795770790428
1783169842016008000,4.560008056640625,0.0010319733962416647,0.027425182542204857,-0.11216383234672248
1783169842026077700,4.57007763671875,0.008619359785318375,0.021067337948083877,-0.1250034036429599
1783169842036147700,4.580147705078125,0.02957914570569992,0.037484219741821284,-0.16606953699216245
1783169842046217000,4.590217041015625,0.037761575378477574,0.01960194157063961,-0.1696782655412331
1783169842056286700,4.60028662109375,0.01596738446056843,-0.012570727759599686,-0.13628851203881204
1783169842066356000,4.61035595703125,0.03617138357758522,0.0028770167410373687,-0.12200301625058055
1783169842076425700,4.62042578125,0.015337854385375976,0.044937458357214924,-0.10808207945842295
1783169842086496000,4.63049609375,-0.0032207156121730803,0.1151701014906168,-0.08249496253095567
1783169842096564700,4.640564697265625,0.0012076222240924835,0.12236498143076896,-0.10665314263384788
1783169842106634800,4.650634765625,-0.020192016418278218,0.10297288321852684,-0.15747965902965516
1783169842116703700,4.660703857421875,-0.02830021181106567,0.068906362965703,-0.17952687486056237
1783169842126773800,4.670773681640625,-0.0076692194536328315,0.03288227890431881,-0.203621780468896
1783169842136843000,4.680843017578125,-0.041001287952065466,0.023711714977025983,-0.20544592715613544
1783169842146912800,4.690912841796875,-0.04986673145294189,0.01102817449271679,-0.1625977326957509
1783169842156982800,4.700982666015625,-0.015191431652009486,0.03872165258228778,-0.1307080450253561
1783169842167051800,4.7110517578125,0.03021393647789955,0.09130465725660324,-0.09282759250756352
1783169842177121800,4.721121826171875,0.055654374943673604,0.09473989240229129,-0.1157366127995774
1783169842187190800,4.731190673828125,0.07154781738519668,0.08377952244877815,-0.11627682062350213
1783169842197260800,4.7412607421875,0.039978374645113945,0.03368658102452755,-0.10565247769132256
1783169842207329800,4.751329833984375,-0.030895196740329263,0.007381926944851875,-0.12219616420250386
1783169842217399800,4.76139990234375,-0.048396366639435286,-0.025660510957241058,-0.08862696247994899
1783169842227469800,4.7714697265625,-0.010844050097465514,-0.021835984233021737,-0.09282507175691425
1783169842237538800,4.781538818359375,0.018315116630494593,0.004898877957463264,-0.06547507334277033
1783169842247608800,4.79160888671875,0.032389526951313016,0.03629237960875034,-0.07668474188223481
1783169842257677800,4.801677734375,0.06559943037480115,0.08486381055414677,-0.09627879240736364
1783169842267747800,4.811747802734375,0.07444529239237307,0.11624503724575042,-0.07292527975086123
1783169842277816800,4.82181689453125,0.09187398157715797,0.0945125133872032,-0.0615140607573092
1783169842287886800,4.831886962890625,0.03445551957041025,0.04261398384571075,-0.08908124558608979
1783169842297956900,4.841956787109375,-0.03410948261171579,0.06968377707898617,-0.12807360486853867
1783169842308025900,4.85202587890625,-0.030131811152398585,0.07955342918634414,-0.1471376401701942
1783169842318096000,4.862095947265625,-0.04223521366119384,0.09329553881287574,-0.16482808556370437
1783169842328164900,4.872164794921875,-0.09104775988608599,0.09143617468178272,-0.1869158160680905
1783169842338235000,4.88223486328125,-0.10555705449283122,0.080322075471282,-0.2227760513372719
1783169842348304000,4.892303955078125,-0.08059037101864815,0.059302083796262735,-0.22247922381516544
1783169842358374000,4.902373779296875,-0.07905132488310336,0.0008656769186258316,-0.1897093192441389
1783169842368444000,4.91244384765625,-0.05573913061767816,-0.01056932480931282,-0.1425781137023121
1783169842378513000,4.922512939453125,-0.0618874241143465,0.041540801656246185,-0.09694463590495288
1783169842388583000,4.9325830078125,-0.06742459997534751,0.10462357303500175,-0.08625241536833346
1783169842398652000,4.94265185546875,-0.04916618196815252,0.11513970635235309,-0.08264127566646784
1783169842408722000,4.952721923828125,-0.03864654151946306,0.10054887094199656,-0.10434300252795219
1783169842418791700,4.962791748046875,-0.041160862427949904,0.06307341902852058,-0.08374532791823149
1783169842428861000,4.97286083984375,-0.06030453883707523,0.09075403763651847,-0.10205218817703425
1783169842438930700,4.9829306640625,-0.07064180845618248,0.0632949528247118,-0.11382365531772375
1783169842449000000,4.993,-0.03537643380761146,0.0592646743953228,-0.08573803610540925
1783169842459070000,5.003070068359375,-0.04239595718085765,0.06374795728921889,-0.10121643147263676
1783169842469139000,5.013138916015625,-0.052634442600607866,0.04734101236760616,-0.09146649675481021
1783169842479209000,5.023208984375,-0.0492673042550683,0.08463584701716899,-0.12430771299637854
1783169842489278700,5.03327880859375,-0.06726414871662854,0.07437105811238288,-0.1268369757456705
1783169842499348000,5.043347900390625,-0.035980244919657706,0.07736205662190913,-0.13040058651138095
1783169842509417700,5.053417724609375,-0.025396891584992407,0.06258709681630134,-0.13918430654555558
1783169842519487000,5.063487060546875,-0.027137597772479056,0.05877835218310356,-0.14735479005221278
1783169842529556700,5.073556640625,-0.01773790126442909,0.06369301223158837,-0.1720708780325018
1783169842539626000,5.0836259765625,-0.00015080664753913878,0.07092705513834953,-0.16863343266341835
1783169842549696000,5.093696044921875,-0.020846096412837505,0.04149403990507126,-0.14796541449753567
1783169842559765800,5.103765869140625,-0.011969839257001876,0.04818798458576202,-0.12597864188328384
1783169842569835000,5.1138349609375,-0.032280221357941626,0.042133506852388376,-0.13657609680853783
1783169842579904800,5.12390478515625,-0.05305559062212705,0.05181435838937759,-0.1282742785397917
1783169842589974000,5.13397412109375,-0.04863485157042741,0.040111061114072796,-0.13431715716691686
1783169842600043800,5.144043701171875,-0.043294075064361094,0.032338673546910286,-0.07866718440372496
1783169842610113000,5.154113037109375,0.002935176669061184,0.04505494725704193,-0.07149844355182722
1783169842620182800,5.164182861328125,0.015400690488517284,0.04164543107450008,-0.08010072433818131
1783169842630252800,5.174252685546875,0.014649872121214866,0.007232873862981796,-0.04514483576389029
1783169842640322000,5.184322021484375,0.026505729609727857,0.03073065382838249,-0.048248683530744164
1783169842650391800,5.194391845703125,0.03806815710961819,0.03916588921844959,-0.0748777472591959
1783169842660461000,5.2044609375,0.0825140325576067,0.050939329120516776,-0.1028684181970544
1783169842670530800,5.21453076171875,0.08195055345594883,0.0392483068048954,-0.0890817022438161
1783169842680599800,5.224599853515625,0.052396834452450275,0.051774610900878905,-0.11057016994711011
1783169842690669800,5.234669921875,0.05504997930973768,0.0769014533728361,-0.13761073708590119
1783169842700739800,5.24473974609375,0.03305646642744541,0.08950140722692013,-0.12449320736480876
1783169842710808800,5.254808837890625,0.020118366660177706,0.08059913884699345,-0.10471994608156382
1783169842720878800,5.26487890625,0.009884265154600143,0.05315115995109081,-0.12001578795611857
1783169842730948000,5.274947998046875,-0.01035275944918394,0.045133857712149617,-0.1649068681546487
1783169842741017900,5.285017822265625,0.05361731615811586,0.01685994938611984,-0.13874001511046663
1783169842751086800,5.2950869140625,0.059360243724286554,-0.00561491727232933,-0.08924799872143194
1783169842761156900,5.305156982421875,-0.005656710587441921,-0.010281155517697333,-0.07266332261273636
1783169842771227000,5.315226806640625,-0.022793723349273202,0.045508536243438716,-0.06565152588821947
1783169842781293800,5.3252939453125,-0.02420680501759052,0.04595686453282833,-0.06618837271127849
1783169842791363800,5.33536376953125,0.0027019524350762364,0.06768471221625805,-0.08840714571680873
1783169842801432800,5.345432861328125,0.0064610127076506615,0.04370294812619686,-0.08853957645744084
1783169842811502800,5.3555029296875,-0.025162206046283244,0.03918400939702987,-0.09687668523527682
1783169842821571800,5.36557177734375,-0.05662585032433271,0.05310322915613651,-0.12355768008036538
1783169842831641900,5.375641845703125,-0.051638125039637085,0.0471346761405468,-0.11153368121702223
1783169842841711900,5.3857119140625,-0.0676762366488576,0.0035819501399993892,-0.08640271055921912
1783169842851780900,5.39578076171875,-0.05661737475693226,0.006312251886725425,-0.07253397887833415
1783169842861850600,5.4058505859375,-0.02618453483134508,0.05520984604656696,-0.10985263279490172
1783169842871918800,5.4159189453125,0.03501636832356453,0.08617197054326534,-0.06427289447877556
1783169842881989000,5.425989013671875,0.02770166139602661,0.0773334150493145,-0.06143314100820571
1783169842892058000,5.43605810546875,-0.005175649072229862,0.09614508302509785,-0.06049282795079052
1783169842902127900,5.4461279296875,0.011724924585223197,0.13962415926754473,-0.07947495712265372
1783169842912198100,5.4561982421875,0.01984539493769407,0.13205986149311064,-0.10512059930432588
1783169842922267000,5.466266845703125,0.0001283025547862053,0.10993570796847343,-0.15298234761040658
1783169842932337200,5.476337158203125,-0.035334640492498876,0.08911971443295479,-0.19346615102700887
1783169842942406000,5.486406005859375,-0.023067864115536213,0.06605506518781185,-0.21590843059010803
1783169842952476000,5.496475830078125,-0.022604045996069907,0.03942717050313949,-0.24966011274009942
1783169842962545000,5.506544921875,-0.01575344944894314,-0.0025531916141510007,-0.23687292921822517
1783169842972615000,5.516614990234375,-0.027824703253805635,-0.039219665232300756,-0.16612404365837574
1783169842982685200,5.526685302734375,0.001434124456346035,-0.02222001511454582,-0.10225651511009783
1783169842992754000,5.53675390625,0.06270487797707319,0.01832183863222599,0.000952624549716711
1783169843002824200,5.54682421875,-0.012027122402191162,0.08408405835330486,-0.013040135369636118
1783169843012893000,5.556892822265625,-0.052529520921409126,0.12596446722745894,-0.011283391362801194
1783169843022963000,5.566962890625,-0.038970366646349425,0.08493453770279884,0.016365809193626044
1783169843033032000,5.577031982421875,-0.05628916571587324,0.06955284417569636,-0.027474830370210108
1783169843043102000,5.58710205078125,-0.07966273477971553,0.041867549392580986,-0.09140406251046806
1783169843053172200,5.597172119140625,-0.058520870290696615,0.01106733745932579,-0.11974124533105641
1783169843063241000,5.607240966796875,-0.04003039709329605,0.022120646393299102,-0.13127525045406072
1783169843073311000,5.61731103515625,-0.03181114254146814,0.05945932018458843,-0.148058408276923
1783169843083380000,5.6273798828125,-0.032683541461825366,0.102273210516572,-0.16744678016211836
1783169843093450000,5.637449951171875,-0.0471495814487338,0.1426274327367544,-0.1797626563778147
1783169843103519000,5.64751904296875,-0.05000847801119089,0.12787585380673408,-0.16889873253609985
1783169843113589000,5.657589111328125,-0.028649463640153406,0.09622282443642616,-0.15146693807877598
1783169843123659000,5.667658935546875,-0.035865094107389445,0.05684358472824096,-0.10929941935893148
1783169843133728000,5.67772802734375,-0.08363514554202556,0.06570259848833084,-0.09973163627497851
1783169843143798000,5.687798095703125,-0.08747954601049422,0.08900047196745872,-0.13044592349044978
1783169843153867000,5.697866943359375,-0.08296791380494832,0.09899988793432712,-0.13430245278812944
1783169843163938000,5.70793798828125,-0.05577975488901138,0.09252630800604819,-0.11773297424856573
1783169843174007000,5.718007080078125,-0.05758943465948105,0.08116378699243068,-0.10700202913675456
1783169843184077000,5.7280771484375,-0.062194298106431956,0.1035538979768753,-0.14463902828749267
1783169843194145800,5.738145751953125,-0.041213177137076853,0.1069873795568943,-0.1521637247039005
1783169843204216000,5.748216064453125,0.02245528517514467,0.05483809012472629,-0.1567166022352874
1783169843214285000,5.75828515625,0.03827624690234661,0.01435819569826126,-0.1390278373422101
1783169843224355000,5.76835498046875,0.053153498038649556,-0.012889292189478874,-0.08765957875251769
1783169843234425000,5.778425048828125,0.06785393130332232,0.042213001829385755,-0.05645129747502505
1783169843244494000,5.788494140625,0.004551671954989433,0.05578150845468044,-0.0645269788376987
1783169843254564000,5.798564208984375,-0.036680502143502235,0.0697697017967701,-0.08018449363149702
1783169843264632800,5.8086328125,-0.011456921298801898,0.07721709519326686,-0.06494673861972987
1783169843274703000,5.818703125,-0.022731764028966425,0.06592354776263237,-0.08269169067945331
1783169843284771800,5.828771728515625,-0.03390402316749096,0.056904375004768366,-0.09884758344944566
1783169843294842000,5.838842041015625,-0.0014651041164994239,0.09696166010499,-0.1314586441969499
1783169843304912100,5.848912109375,0.054020636261999606,0.06818272486627101,-0.12056669983714818
1783169843314980900,5.85898095703125,0.0448448116376996,0.08150631681978703,-0.12449117980450392
1783169843325051100,5.869051025390625,0.05058832372575998,0.09274550371468067,-0.12387114821001886
1783169843335120000,5.879119873046875,0.05554126995801925,0.06664250968694686,-0.11801405621226876
1783169843345190100,5.889190185546875,0.04752133737057447,0.06383797366023063,-0.10070625346079468
1783169843355259000,5.8992587890625,0.04487286868840456,0.0857990455776453,-0.08559362266603857
1783169843365329200,5.9093291015625,0.04633972637057304,0.1001157402217388,-0.04455503491088748
1783169843375399200,5.919399169921875,0.03549070783704519,0.10387830762565135,-0.056861558776348825
1783169843385468000,5.929468017578125,0.024950024600327015,0.105785018029809,-0.09436280271820724
1783169843395538200,5.9395380859375,0.03212999923229217,0.08542261348068714,-0.07991689220387488
1783169843405607000,5.94960693359375,0.010891396370530129,0.06824234609901905,-0.09240140298474579
1783169843415677200,5.95967724609375,0.002851297777891159,0.04044774572253227,-0.12918185837138443
1783169843425746000,5.969745849609375,0.04659750052392483,0.021305238357186316,-0.1356482779065147
1783169843435816000,5.97981591796875,0.029100422278046607,-0.04549216963052749,-0.1560203635994345
1783169843445886200,5.98988623046875,-0.003431435753405094,-0.05653320360481739,-0.18723523901449515
1783169843455955000,5.999954833984375,0.006649228756129741,-0.06313479382693767,-0.18216697757318615
1783169843466025200,6.010025146484375,-0.0034939795956015584,-0.05918985559344291,-0.16982983937375246
1783169843476094000,6.020093994140625,0.019381284557282923,-0.0621358459174633,-0.11332423616191371
1783169843486164000,6.0301640625,0.023808161088824272,-0.04010404685139656,-0.03736150667760521
1783169843496233000,6.04023291015625,0.030280864234268665,0.005844049853086471,0.002114434870705008
1783169843506303000,6.050302978515625,0.0626975714534521,0.07670563853979111,0.029180958434659985
1783169843516373000,6.060373046875,0.1055211063966155,0.11675064868032932,0.021577041035890577
1783169843526442000,6.07044189453125,0.10304010323584079,0.11142390069961547,-0.011471844873297958
1783169843536512300,6.08051220703125,0.0968070540651679,0.058875382816791534,-0.02776557521140203
1783169843546581000,6.0905810546875,0.062462301392853255,-0.01484276434481144,-0.06864619592586532
1783169843556651000,6.100651123046875,0.00969312649667263,-0.047775312131643294,-0.12097259549060836
1783169843566720000,6.110719970703125,0.00782879392951727,-0.02776654332578182,-0.13455021700412034
1783169843576790000,6.1207900390625,0.03450257358253002,0.012831424522399902,-0.15922447513667864
1783169843586860000,6.130860107421875,0.01293780750632286,0.04327683166861534,-0.17419015347510575
1783169843596929000,6.140928955078125,-0.01480389363914728,0.07957505649626255,-0.16785347953317686
1783169843606999000,6.1509990234375,-0.015074235013127326,0.10088497102856636,-0.18729928069403393
1783169843617068000,6.161068115234375,-0.036219898894429205,0.0756774645358324,-0.1586881397702731
1783169843627138000,6.171137939453125,-0.06742810710668563,0.08128127589225768,-0.17700110097629948
1783169843637207000,6.18120703125,-0.0891170840844512,0.07626198642551898,-0.2190231285445392
1783169843647277000,6.191277099609375,-0.11232698701918124,0.08271686165332794,-0.25036564892726015
1783169843657347000,6.20134716796875,-0.08929244065135716,0.09003916736543179,-0.22523639530250802
1783169843667416000,6.211416015625,-0.09967559523880481,0.10852174951732158,-0.204485776887089
1783169843677485800,6.22148583984375,-0.14360913725048302,0.12387772408127784,-0.16394925690256057
1783169843687555000,6.23155517578125,-0.11553192054033279,0.1264502049177885,-0.11985760171972215
1783169843697624800,6.241624755859375,-0.09888882877528667,0.12877777108252048,-0.09565613046437502
1783169843707694000,6.251694091796875,-0.04477817614227533,0.09195756820738316,-0.06739926460469141
1783169843717763800,6.261763916015625,-0.036571196550130844,0.07210662031173706,-0.08912913984842598
1783169843727834000,6.271834228515625,-0.020739713428914546,0.045920039653778076,-0.09295457988809794
1783169843737903000,6.281903076171875,-0.043970659151673315,0.04474456613361835,-0.11168372067958116
1783169843747972900,6.291972900390625,-0.06692834089100361,0.04943886142969131,-0.0842180234638974
1783169843758042000,6.3020419921875,-0.06921265243589877,0.04442249457240104,-0.06677128716576844
1783169843768111900,6.31211181640625,-0.053956046593189234,0.06559446193873882,-0.061487611141800874
1783169843778181000,6.32218115234375,-0.016943536016345025,0.08306582122147083,-0.06627163054794073
1783169843788251000,6.3322509765625,0.016790975803136824,0.09927402870059013,-0.09981001700712368
1783169843798321000,6.34232080078125,0.0325143223747611,0.059790744096040724,-0.12202939280085265
1783169843808390000,6.352389892578125,0.04735620993673801,0.040512043130397794,-0.11147952161068096
1783169843818460000,6.3624599609375,0.042103988496959205,0.02797054146528244,-0.12113438018988817
1783169843828529200,6.372529052734375,0.011362228752672671,0.03847966051995754,-0.13514721478288994
1783169843838599000,6.382598876953125,-0.07304477794468403,0.04892331312298774,-0.13173048340827226
1783169843848668200,6.392668212890625,-0.03707710024565458,0.05421674335598945,-0.10879943394754081
1783169843858738000,6.402738037109375,-0.013349895438551902,0.08597849379777908,-0.09279725216822698
1783169843868809000,6.41280908203125,-0.010636544826626777,0.11117255628705024,-0.10602900111982598
1783169843878878000,6.4228779296875,0.015131518158316612,0.11632160961329936,-0.12153338944483548
1783169843888948000,6.432947998046875,0.0315948694422841,0.10093407086730002,-0.09949066712595522
1783169843899017200,6.443017333984375,0.0537856584623456,0.08205226026475429,-0.0827219762198627
1783169843909087000,6.4530869140625,0.02245966908931732,0.05773381156623363,-0.06679150796988978
1783169843919156000,6.463156005859375,0.032948914399743075,0.05878361288011074,-0.061536455252207814
1783169843929226000,6.47322607421875,-0.0009165303230285644,0.06399930170178413,-0.07901225324803964
1783169843939296000,6.4832958984375,0.021623510526120663,0.07964169199168682,-0.07982274764701723
1783169843949365000,6.493364990234375,0.03701017248928547,0.06380699400007725,-0.10855855613006278
1783169843959435000,6.50343505859375,0.03412847957313061,0.018733342042565344,-0.10176047522146255
1783169843969504000,6.51350390625,0.010320610745251178,-0.0022217677026987073,-0.08253089236086233
1783169843979574000,6.523573974609375,-0.026981530427932738,0.00800561180114746,-0.06083254476655274
1783169843989642800,6.533642822265625,-0.011287117689847945,0.05470774174332618,-0.06876945697935298
1783169843999713000,6.543713134765625,-0.013944646461308002,0.06902618995308876,-0.07768261207947506
1783169844009783000,6.553782958984375,-0.03231090875715017,0.07579846056699753,-0.10125115572614594
1783169844019852000,6.56385205078125,-0.03594605038911104,0.08178922541439533,-0.1341872106443159
1783169844029922000,6.573922119140625,0.005826806457340717,0.0630243191897869,-0.1499687536765821
1783169844039990800,6.58399072265625,0.05081862535029649,0.03386252211332321,-0.1568118975696154
1783169844050061000,6.59406103515625,0.05969400572329759,0.014948562806844711,-0.13282180404262617
1783169844060129800,6.6041298828125,0.042454701630771155,0.0160644150942564,-0.13042460670778527
1783169844070200000,6.614199951171875,0.03124386404752731,0.02335340305864811,-0.07706349380044267
1783169844080270000,6.62427001953125,0.010094108512997626,0.047326399320364,-0.06334034460270777
1783169844090339000,6.634339111328125,0.00023410101681947706,0.07067278811633586,-0.042934813297912475
1783169844100409000,6.6444091796875,-0.017181728686392308,0.09388649044334887,-0.0031385720203630624
1783169844110477800,6.654477783203125,-0.010897826111316681,0.1201104805022478,-0.003291990750096738
1783169844120548000,6.664548095703125,-0.03279372383803129,0.09824117852151393,-0.02995044496981427
1783169844130616800,6.674616943359375,-0.07447247266024351,0.08145312532782555,-0.07881718733366579
1783169844140687000,6.68468701171875,-0.07336041976511477,0.05254267266392708,-0.15113598909135906
1783169844150757000,6.694757080078125,-0.06075900460630655,0.00753507167994976,-0.18671388202151282
1783169844160825900,6.704825927734375,-0.04088438357412815,-0.03555705107152462,-0.19695090613653882
1783169844170896100,6.714896240234375,-0.025989596781134605,-0.026798575076460836,-0.19096010475652292
1783169844180964900,6.72496484375,-0.0021352584630250928,0.005165419939160347,-0.13320996310999617
1783169844191035100,6.73503515625,-0.01034925231784582,0.04143851032555103,-0.09000371245956047
1783169844201104000,6.745103759765625,0.033600071784853934,0.09603519290983677,-0.07935279204770922
1783169844211174000,6.755173828125,0.04154840044081211,0.10302549018859862,-0.038913594957813616
1783169844221244200,6.765244140625,0.0712765992283821,0.0779652832120657,-0.032656763052754105
1783169844231313000,6.77531298828125,0.07154109538346529,0.05303776270449161,-0.03127351026711985
1783169844241383200,6.785383056640625,0.040214521488547324,0.0558007976770401,-0.05239864281704649
1783169844251452000,6.795451904296875,0.051367783665657044,0.013232991060614586,-0.07858869407372548
1783169844261522200,6.805522216796875,0.03004267156422138,0.02389876198172569,-0.0995604261602275
1783169844271591000,6.8155908203125,0.04157353488206863,0.01639291639626026,-0.06601546382978558
1783169844281661000,6.825660888671875,0.046861119896173475,0.05631517693996429,-0.07037639898564665
1783169844291731000,6.83573095703125,0.006505144110321998,0.07324526895284653,-0.06601612141691147
1783169844301800000,6.845800048828125,0.019006021504104135,0.06731178725063801,-0.06157057671751827
1783169844311870000,6.855869873046875,0.0007069792255759239,0.07182195815145968,-0.07747391949854791
1783169844321939000,6.86593896484375,-0.04870704002380371,0.08934124822914599,-0.06836045605335384
1783169844332009000,6.876009033203125,-0.05682809489816427,0.05632803642153739,-0.08057537437891588
1783169844342078000,6.886077880859375,-0.028155542643368243,0.04960369660258293,-0.08409152927370742
1783169844352148000,6.89614794921875,-0.019485621714591977,0.030934651967883108,-0.10897066232860088
1783169844362218000,6.906218017578125,-0.03280161488354206,0.03016249855160713,-0.13344251149054617
1783169844372287000,6.916286865234375,-0.023866905538737774,0.01813011545240879,-0.14045275557879358
1783169844382357000,6.92635693359375,-0.02881400655210018,0.029437691408395767,-0.14482972855400295
1783169844392426000,6.936426025390625,-0.00016717326045036316,0.024860300490260123,-0.10245702438456937
1783169844402495700,6.946495849609375,0.02366612226963043,0.002976385462284088,-0.03431722534457221
1783169844412565000,6.95656494140625,0.04093202210813761,0.04198211568295956,-0.0275635498332791
1783169844422635000,6.966635009765625,0.03313303879499435,0.05298281764686107,-0.039499797347933054
1783169844432705000,6.976705078125,0.04104015865772962,0.02683598447740078,-0.017724384195730088
1783169844442774000,6.98677392578125,0.03697217856645584,0.047881110593676564,-0.012687595604918896
1783169844452844000,6.996843994140625,0.012057517540454863,0.05332710103988647,-0.023789365056809036
1783169844462913000,7.0069130859375,-0.01563479150533676,0.06345861895382404,-0.05608851031092926
1783169844472982800,7.016982666015625,-0.03396422892212868,0.09366554116904735,-0.07979691908601672
1783169844483052000,7.027052001953125,-0.0057400049567222595,0.09038754241168498,-0.12193073646565898
1783169844493121800,7.037121826171875,-0.02294599130153656,0.060740007644891736,-0.12225521917967125
1783169844503192000,7.047192138671875,-0.02844400419592857,0.036652445092797276,-0.1270769402476959
1783169844513261000,7.057260986328125,-0.023495149616897106,0.04973696759343147,-0.15885213469294832
1783169844523330800,7.067330810546875,-0.030790567322075364,0.05543254888653755,-0.1571971888264641
1783169844533400000,7.077400146484375,-0.03337123146504164,0.019960838010907173,-0.13143962896922604
1783169844543469800,7.0874697265625,-0.017414368398487565,0.0396621483027935,-0.1103524538095109
1783169844553539000,7.0975390625,-0.02346621578335762,0.04889233346283436,-0.09393964540269226
1783169844563608800,7.10760888671875,0.01700695664137602,0.052342766177654265,-0.08299242719169705
1783169844573678800,7.117678955078125,0.020744389604032038,0.05048632465600967,-0.03214910579156131
1783169844583747800,7.127747802734375,0.01585164912641048,0.07898293582201003,-0.04806634923378005
1783169844593817900,7.13781787109375,0.014799801985919474,0.09975859734714031,-0.10503392566787079
1783169844603887000,7.14788720703125,-0.0023430559948086735,0.07581891883313656,-0.10973081477982922
1783169844613956900,7.157956787109375,0.00423982952684164,0.04057809410393238,-0.12688472387753427
1783169844624026000,7.168026123046875,0.005721007995307445,0.033625790748000144,-0.1360199790294282
1783169844634095900,7.178095947265625,0.0013984686210751533,0.016944705060124396,-0.11504665777403861
1783169844644166000,7.188165771484375,0.032061610171198844,0.04182780190408229,-0.028602354829106478
1783169844654235000,7.19823486328125,0.007823825493454933,0.0653472091794014,-0.07662643582373857
1783169844664305000,7.208304931640625,-0.024737258632481097,0.08082008812129497,-0.06412170423874632
1783169844674374000,7.218373779296875,0.007679156325757503,0.07150222467780112,-0.031760325669683516
1783169844684444000,7.22844384765625,0.0009781973823904991,0.09682605102658272,-0.05625014887973666
1783169844694513200,7.23851318359375,-0.04765110123008489,0.12106442022621632,-0.053042146618664264
1783169844704583000,7.2485830078125,-0.06562251898944378,0.10944646314680576,-0.0844043032836169
1783169844714653000,7.25865283203125,-0.05618307499289512,0.08340601296126841,-0.0753001191234216
1783169844724722000,7.268721923828125,-0.04019669357091188,0.08758651351630688,-0.09331035278951749
1783169844734792000,7.2787919921875,-0.04703443063646555,0.07453647780716419,-0.11189802101738751
1783169844744861000,7.28886083984375,-0.05367167669385671,0.037623335951566694,-0.13003146093804388
1783169844754931000,7.298930908203125,-0.05086743292808532,0.02025017634630203,-0.13404856935860587
1783169844765000000,7.309,-0.02069470524340868,0.00920855785012245,-0.10965345696099102
1783169844775070000,7.319070068359375,0.07188508651554584,0.012075637719035148,-0.14498066306570545
1783169844785139200,7.32913916015625,0.026588731718063353,-0.004057750958204269,-0.1342859765773639
1783169844795209000,7.339208984375,-0.012305939343571663,0.02794131537079811,-0.0631686960965395
1783169844805279000,7.349279052734375,0.022939561560750006,0.045070729348063464,-0.06907971023861319
1783169844815348000,7.359347900390625,0.05038491010814905,0.023725743502378462,-0.06455284393131733
1783169844825418000,7.36941796875,0.06666326021403074,0.03145136931836605,-0.05455812240587547
1783169844835487000,7.379487060546875,0.018071371002495288,0.040809564772248265,-0.04141993348924443
1783169844845557000,7.389556884765625,0.026975977469980716,0.07253741294443607,-0.05449024480143562
1783169844855627000,7.399626953125,0.026097148808836935,0.0819207428395748,-0.05492699225088581
1783169844865696000,7.409696044921875,-0.005412088176608086,0.08026829945743083,-0.09992217214470729
1783169844875765500,7.419765625,-0.007846037325263023,0.0627852497369051,-0.08600892546866089
1783169844885834500,7.42983447265625,-0.04786708206832409,0.06261515386700629,-0.11436278542941436
1783169844895904500,7.439904541015625,-0.07647709048092365,0.0846791016370058,-0.12430999628501012
1783169844905973500,7.449973388671875,-0.0719105132177472,0.09892974530756472,-0.12724232340985908
1783169844916043500,7.46004345703125,-0.013597732719779014,0.06688216366171837,-0.14622432471755892
1783169844926112500,7.470112548828125,-0.008413608080148696,0.043535774865746495,-0.14130473276562988
1783169844936182500,7.4801826171875,-0.0034472178444266317,0.06193477038741112,-0.08879875711658969
1783169844946252500,7.49025244140625,-0.0224669756129384,0.07576631186306476,-0.07979333888944239
1783169844956321500,7.500321533203125,-0.02547872464954853,0.08425064709186554,-0.07855132120540365
1783169844966391600,7.5103916015625,-0.02025543704330921,0.12657529260218142,-0.0822666519341059
1783169844976460500,7.52046044921875,-0.006164660109579563,0.0875198780208826,-0.07526974225146696
1783169844986530600,7.530530517578125,-0.01376695180684328,0.06248188287615776,-0.10122183830011636
1783169844996599600,7.540599609375,-0.019947686268389223,0.056521513167023654,-0.10580315647469833
1783169845006669600,7.550669677734375,-0.024482407088577747,0.061008303192257876,-0.11576211256701499
1783169845016739600,7.560739501953125,0.0023246435552835465,0.03510813826024532,-0.11006892416039481
1783169845026808600,7.57080859375,0.022256839993596074,0.054659810948371884,-0.13986832502065225
1783169845036878600,7.580878662109375,0.06479015981853008,0.06154372524321079,-0.11260635194983333
1783169845046947600,7.590947509765625,0.06633066725879908,0.04121288487613201,-0.09601782164992764
1783169845057017600,7.601017578125,0.06594838994294405,0.05713526115119457,-0.07883046694034711
1783169845067086300,7.61108642578125,0.05435264469534158,0.06956102748215198,-0.058006016103737054
1783169845077156600,7.621156494140625,0.060628948485851285,0.04685059850215911,-0.0490715259546414
1783169845087226600,7.6312265625,0.06915536929070949,0.03760404672920704,-0.03975976345837116
1783169845097295600,7.641295654296875,0.0340285263299942,0.0701443803280592,-0.0679639310164377
1783169845107365600,7.65136572265625,-0.014491174428164957,0.07188976269066333,-0.06584763298220932
1783169845117434600,7.6614345703125,-0.03326455622017383,0.06013093583583831,-0.059961077427957206
1783169845127504600,7.671504638671875,-0.012906535585224628,0.06440788250267505,-0.08739442501030861
1783169845137573400,7.681573486328125,0.01919920598864555,0.02113338892161846,-0.1272168967076577
1783169845147643600,7.6916435546875,0.015185294172167777,0.025863340052962303,-0.11482600076068192
1783169845157713400,7.70171337890625,-0.006287701967358589,0.0478793570280075,-0.1380878713446669
1783169845167782700,7.71178271484375,-0.02496668347418308,0.055634793460369106,-0.1643697656032629
1783169845177852700,7.721852783203125,-0.016543723043799398,0.06724982793033123,-0.1244931160332635
1783169845187921400,7.73192138671875,-0.04330547324120998,0.05570727417469024,-0.13961299855271353
1783169845197991700,7.74199169921875,-0.08825286847054958,0.07238251464366913,-0.15857877937797457
1783169845208060400,7.752060302734375,-0.059303837361931795,0.0697170948266983,-0.10774101093579083
1783169845218130700,7.762130615234375,-0.05861760866343975,0.06765314803421497,-0.07738014026787132
1783169845228200400,7.772200439453125,-0.03510229304134845,0.08676935191452503,-0.05522400243608281
1783169845238269400,7.78226953125,-0.021423311778903005,0.07838613897264003,-0.034911227448657156
1783169845248339500,7.79233935546875,0.012986322823166847,0.07451485049724578,-0.02737842079102993
1783169845258408400,7.802408447265625,0.0035778584867715833,0.0839689075410366,-0.03398890670565888
1783169845268478700,7.812478759765625,-0.001638122595846653,0.07167933481037617,-0.042470812515355644
1783169845278547500,7.82254736328125,-0.007458499312400817,0.07620937945544719,-0.09276145020248368
1783169845288617700,7.83261767578125,0.01953998225033283,0.06480068121254444,-0.13756015767613425
1783169845298687500,7.8426875,0.004490004895627498,0.020369418811798094,-0.1326718559116125
1783169845308756500,7.852756591796875,0.003353402081131935,0.020230302602052688,-0.14421411740630866
1783169845318826500,7.862826416015625,0.02417640987932682,0.014620646026730537,-0.1168774533977732
1783169845328895500,7.8728955078125,0.006014730244874954,0.021557167291641234,-0.11008359200656413
1783169845338965500,7.882965576171875,-0.024912030677497386,0.03150806794166565,-0.10364186852127313
1783169845349034500,7.893034423828125,0.006183364810049534,0.03933773865401745,-0.054128553615882986
1783169845359104500,7.9031044921875,0.031549568995833395,0.07561316712796688,-0.05251830540765077
1783169845369173500,7.913173583984375,0.013263970720767975,0.0771025289028883,-0.064759289756231
1783169845379243500,7.923243408203125,-0.0227612823843956,0.07806406741142273,-0.07170470671365037
1783169845389313500,7.9333134765625,-0.044345629943907255,0.06916238355338573,-0.05851257738638669
1783169845399382500,7.943382568359375,-0.03714519704580307,0.03809095346331596,-0.05914305730964988
1783169845409452500,7.95345263671875,-0.01877835022807121,0.02304302193522453,-0.07675707646608353
1783169845419521500,7.963521484375,0.02448620648086071,0.03999006508290767,-0.07099951758636161
1783169845429591300,7.97359130859375,0.02790595179647207,0.05016542213857174,-0.08213893390120938
1783169845439660500,7.98366064453125,-0.0005640636235475539,0.0556178423255682,-0.10792170126494019
1783169845449730600,7.99373046875,0.015357143607735633,0.060303954315185544,-0.07563921488467604
1783169845459800600,8.003800537109376,0.021482056228816507,0.07594985173642635,-0.04212939693285152
1783169845469869600,8.01386962890625,0.025576047544181347,0.06543488746285438,-0.030867066624388095
1783169845479939600,8.023939697265625,0.02562339381724596,0.055766310885548585,-0.04608233580971136
1783169845490008600,8.034008544921875,0.007107786178588866,0.047342181411385534,-0.05762983973510563
1783169845500078300,8.044078369140625,0.010988134743273257,0.04307283352911472,-0.09973934465739875
1783169845510147600,8.054147705078124,0.009868775324523448,0.03907295023798942,-0.12397230702955275
1783169845520217300,8.06421728515625,-0.01665127507150173,0.04010404685139656,-0.10293247814290225
1783169845530287600,8.07428759765625,-0.011975684475898743,0.05890986960828304,-0.12114482851866631
1783169845540356600,8.084356689453125,0.007098726089298724,0.04806406594514846,-0.08888968680305406
1783169845550426400,8.09442626953125,0.0026087211936712262,0.06177636495530605,-0.1061833331650123
1783169845560495600,8.10449560546875,-0.000623100334405899,0.033864860200881954,-0.11589837923254817
1783169845570565400,8.1145654296875,0.019582944609224794,0.03600011866390705,-0.10388888381859288
1783169845580634600,8.124634521484374,-0.008586334298551082,0.04384206433594227,-0.06755978892864659
1783169845590704400,8.134704345703126,-0.018755846135318277,0.02593231363594532,-0.07193162907101214
1783169845600774400,8.1447744140625,0.006204115337133408,0.028275077369809148,-0.06738726363964379
1783169845610843400,8.154843505859375,0.002284311544895172,0.04298106359243393,-0.034493641357403244
1783169845620913400,8.164913330078125,-0.023633096782863138,0.0326911402463913,-0.03059798562573269
1783169845630982700,8.174982666015625,-0.03531973518431186,0.0444417837947607,-0.029885398643277584
1783169845641052400,8.185052490234375,-0.0025707272708415984,0.05264788660407066,-0.06191418425710871
1783169845651121700,8.19512158203125,0.016921908706426618,0.03907879545688629,-0.0770259748016484
1783169845661191400,8.20519140625,0.0029874913781881333,0.03815174373984337,-0.10457734100678935
1783169845671260700,8.2152607421875,0.0026490532040596006,0.06012859774827957,-0.12439003925127907
1783169845681330400,8.225330322265625,-0.004588789094984531,0.05911854392290115,-0.14618578280545771
1783169845691400400,8.235400390625,0.0077758946985006325,0.08714286140203475,-0.12670965957157312
1783169845701469400,8.245469482421875,-0.009429214863479137,0.07235504211485386,-0.11573478616867214
1783169845711539500,8.25553955078125,0.008375029635429382,0.07049860059320927,-0.07781403817310929
1783169845721608400,8.2656083984375,0.017534779907763004,0.07093173131346703,-0.08035289073465392
1783169845731678500,8.275678466796874,0.025542437535524366,0.062225277766585346,-0.08360787394260988
1783169845741747700,8.285747802734376,0.019081132566928862,0.03911971198916435,-0.07070373124387115
1783169845751817500,8.2958173828125,0.013022855441272258,0.04260696958303451,-0.09021264250250532
1783169845761887500,8.305887451171875,-0.025796120035648344,0.03776654381453991,-0.08818267104486004
1783169845771956500,8.31595654296875,-0.02695756503045559,0.029595512318611142,-0.0922384127090685
1783169845782026500,8.326026611328125,-0.024888942062854764,0.048133039528131485,-0.09908840646799653
1783169845792095500,8.336095458984374,-0.036245617857575414,0.08985913462340832,-0.06692850528778507
1783169845802165500,8.34616552734375,0.018193828338384628,0.07908113549947739,-0.05605183156235143
1783169845812234500,8.356234375,0.0397667777210474,0.0634469285160303,-0.03293194499863311
1783169845822304500,8.366304443359375,0.025610534335672855,0.0765922412931919,-0.03738539900984615
1783169845832374500,8.37637451171875,-0.0016597499057650566,0.036458968347311015,-0.026827581975236534
1783169845842443500,8.386443603515625,-0.0008659691795706748,0.050718964368104934,-0.03251039511831477
1783169845852513500,8.396513427734375,-0.034300913530588145,0.06312427243292332,-0.09858730681175365
1783169845862582500,8.40658251953125,-0.023467969349026677,0.05608429079353809,-0.09124010412041098
1783169845872652300,8.41665234375,-0.03781798174083233,0.06875029562115668,-0.10980008062375708
1783169845882721300,8.42672119140625,-0.05691957257390022,0.07102174768447876,-0.11061623757854104
1783169845892791300,8.436791259765625,-0.06872428439706564,0.05505202513635158,-0.09305109906513244
1783169845902861000,8.446861083984375,-0.0825263075172901,0.05805471408367156,-0.07805301629444583
1783169845912930300,8.456930419921875,-0.09173457310646772,0.08242284714281559,-0.06810458159614353
1783169845923000300,8.467000244140625,-0.04627776705026626,0.08219079195261002,-0.06614133696546777
1783169845933069300,8.4770693359375,-0.028611761978268622,0.10214636926651001,-0.06790619121352211
1783169845943139300,8.487139404296874,-0.051316053478419776,0.07929156337976455,-0.08041337048392742
1783169845953208300,8.497208251953126,-0.04636252272427082,0.06995499523580073,-0.08965999532211572
1783169845963278300,8.5072783203125,-0.07883125239163637,0.06472001719176769,-0.10417164628272875
1783169845973347000,8.51734716796875,-0.02236117715090513,0.08701660467386245,-0.10686495875362306
1783169845983417300,8.527417236328125,-0.006602759265899658,0.0673772537022829,-0.12131684235101566
1783169845993487000,8.537487060546875,-0.014935118803381919,0.06843056214749813,-0.12195221764510497
1783169846003556400,8.547556396484374,-0.009505494970083236,0.07097381688952445,-0.06851374691892415
1783169846013626400,8.55762646484375,-0.00407119496166706,0.0656733723938465,-0.05731271834364161
1783169846023695000,8.567695068359376,0.033517654198408124,0.07130407175719737,-0.04785811331057921
1783169846033765400,8.577765380859375,0.0036009471014142036,0.06287701967358589,-0.05211018126448616
1783169846043834000,8.587834228515625,-0.024134324303269384,0.0734901836246252,-0.05958932150611654
1783169846053904400,8.597904296875,-0.02138093394190073,0.09500584986209869,-0.05339306068187579
1783169846063974100,8.60797412109375,-0.019463702143728733,0.09570493804216385,-0.05441780061973259
1783169846074043400,8.61804345703125,0.010332593443989754,0.07718611553311347,-0.07239067968381568
1783169846084113200,8.628113037109374,0.049476270830631254,0.02636310626864433,-0.07313185343993828
1783169846094182100,8.63818212890625,0.05937982520759105,-0.0011450783818960188,-0.04712382595296949
1783169846104252400,8.64825244140625,0.013934417328238486,0.011403437545895576,-0.03237164423475042
1783169846114321200,8.658321044921875,0.044514849030971526,0.029361119040846824,-0.058744121119938784
1783169846124391400,8.668391357421875,0.0769715959995985,0.04884381814599037,-0.08786085521196946
1783169846134461200,8.678461181640625,0.07223667643219232,0.07124094339311123,-0.11256061311196536
1783169846144530200,8.6885302734375,0.05983078384548425,0.046073768910765645,-0.1273076985299587
1783169846154600200,8.69860009765625,0.1274851009234786,0.051153264132142065,-0.13031886304467916
1783169846164669200,8.708669189453126,-0.09768091429024935,0.0841302355825901,-0.12479551477963104
1783169846174739200,8.7187392578125,-0.05065437469929456,0.03723930507004261,-0.019116587472800164
1783169846184808200,8.72880810546875,0.04791793547272682,0.022609891214966774,-0.06457357619209214
1783169846194878500,8.73887841796875,-0.04432546393871307,0.03552957854270935,-0.0074416577754542225
1783169846204947200,8.748947265625,-0.12041034023165702,0.031066753914952276,0.048105146874208
1783169846215017200,8.759017333984374,-0.04927198043018579,0.06690905166864394,0.08999874402349814
1783169846225087200,8.769087158203124,-0.014565700969099997,0.05732406172156333,0.020881733981799332
1783169846235156200,8.77915625,-0.08341478078961372,0.0925654709726572,-0.002510156190022826
1783169846245226200,8.789226318359376,-0.025630408079922198,0.07945172237753868,-0.06751001323647797
1783169846255295200,8.799295166015625,0.03231967658549547,0.0730108756750822,-0.10406235895566641
1783169846265365200,8.809365234375,0.02472264558523893,0.07559738503694534,-0.09231189807038753
1783169846275434200,8.819434326171875,0.017625380800664423,0.06430266856253147,-0.13746190319973975
1783169846285504300,8.829504150390624,0.015098784932494162,0.07184124737381935,-0.14795472870673984
1783169846295574300,8.83957421875,0.05441372723281383,0.05835048215985298,-0.1601992567192763
1783169846305643300,8.849643310546876,0.014784896677732466,0.04341887048780918,-0.13894984020255505
1783169846315713300,8.85971337890625,-0.16094634875953195,0.05768237363994121,-0.08570307438988238
