time,seconds_elapsed,z,y,x
1783169837524971500,0.068971435546875,-0.02580551616847515,0.025874290615320206,0.01255176030099392
1783169837535041500,0.07904150390625,-0.01349185686558485,0.006308313459157944,0.014378688298165798
1783169837545110500,0.089110595703125,-0.002813967876136303,-0.010298638604581356,0.010223377496004105
1783169837555180500,0.0991806640625,0.0009685198310762644,-0.025078650563955307,0.00733864214271307
1783169837565250300,0.109250244140625,-0.003933560568839312,-0.037699371576309204,0.001959056593477726
1783169837575319600,0.119319580078125,-0.013854901306331158,-0.0445314459502697,0.005817444063723087
1783169837585389300,0.129389404296875,-0.023089174181222916,-0.05700649693608284,0.014114399440586567
1783169837595458600,0.13945849609375,-0.02275414764881134,-0.07088636606931686,0.013525574468076229
1783169837605528600,0.149528564453125,-0.020982516929507256,-0.07590785622596741,0.009838193655014038
1783169837615598300,0.159598388671875,-0.016238361597061157,-0.08022670447826385,0.010015027597546577
1783169837625667600,0.16966748046875,-0.015141419135034084,-0.08695559203624725,0.00491061806678772
1783169837635737300,0.1797373046875,-0.018316440284252167,-0.0877140611410141,-0.0030391837935894728
1783169837645806600,0.189806640625,-0.013942530378699303,-0.07844127714633942,-0.008870601654052734
1783169837655876400,0.19987646484375,-0.01760038174688816,-0.07284677028656006,-0.0058921221643686295
1783169837665946400,0.2099462890625,-0.025026002898812294,-0.07436462491750717,-0.005418697372078896
1783169837676015400,0.220015380859375,-0.03229883313179016,-0.07779930531978607,0.001073822844773531
1783169837686085400,0.23008544921875,-0.03170902654528618,-0.0818769633769989,0.008910582400858402
1783169837696154600,0.240154541015625,-0.027257554233074188,-0.07987373322248459,0.025014452636241913
1783169837706224400,0.250224365234375,-0.0205161664634943,-0.07849238067865372,0.04045616835355759
1783169837716294400,0.26029443359375,-0.00934500340372324,-0.08534815907478333,0.03865640610456467
1783169837726363400,0.27036328125,-0.00007412128616124392,-0.08718156814575195,0.027623744681477547
1783169837736433400,0.280433349609375,0.004163500852882862,-0.08457859605550766,0.025795750319957733
1783169837746502400,0.29050244140625,0.011798892170190811,-0.09028919041156769,0.02418343350291252
1783169837756572400,0.300572509765625,0.02472268044948578,-0.09507489204406738,0.020637966692447662
1783169837766642700,0.310642578125,0.03208232671022415,-0.08375857770442963,0.01581498235464096
1783169837776711400,0.32071142578125,0.034814730286598206,-0.06706109642982483,0.008786899968981743
1783169837786781400,0.330781494140625,0.03216574341058731,-0.04248616471886635,0.014898860827088356
1783169837796850400,0.340850341796875,0.03980928286910057,-0.027466733008623123,0.013394175097346306
1783169837806920400,0.35092041015625,0.04354245960712433,-0.012567824684083462,0.006975637283176184
1783169837816990500,0.360990478515625,0.044652994722127914,-0.001285608857870102,0.0003462303429841995
1783169837827059500,0.3710595703125,0.05353435501456261,0.004792586900293827,-0.009941780008375645
1783169837837129500,0.38112939453125,0.059175729751586914,-0.010030567646026611,-0.01003845315426588
1783169837847198500,0.391198486328125,0.0625549852848053,-0.028229819610714912,-0.004763386212289333
1783169837857268500,0.4012685546875,0.058505915105342865,-0.05061422288417816,-0.004584687761962414
1783169837867339500,0.411339599609375,0.05271463841199875,-0.05608134716749191,0.009920630604028702
1783169837877408500,0.421408447265625,0.04145479202270508,-0.059968501329422,0.024697978049516678
1783169837887478500,0.431478515625,0.025169268250465393,-0.056669916957616806,0.03541681170463562
1783169837897547800,0.4415478515625,0.0264811422675848,-0.04948284104466438,0.03204791247844696
1783169837907617500,0.451617431640625,0.029219893738627434,-0.043035537004470825,0.022582964971661568
1783169837917687600,0.4616875,0.02294362150132656,-0.026317013427615166,0.026526307687163353
1783169837927756500,0.471756591796875,0.01287087518721819,-0.018650073558092117,0.019876841455698013
1783169837937826600,0.48182666015625,0.007426308933645487,-0.014193275012075901,0.015677036717534065
1783169837947895600,0.4918955078125,0.0011024908162653446,-0.005913075990974903,0.0049593024887144566
1783169837957965600,0.501965576171875,-0.0014919606037437916,-0.004431559704244137,-0.0012506565544754267
1783169837968035600,0.51203564453125,-0.0047458382323384285,-0.0030792132019996643,0.007825273089110851
1783169837978104600,0.5221044921875,-0.006974105257540941,0.000353335402905941,0.020160768181085587
1783169837988174600,0.532174560546875,-0.006151625420898199,0.0021215644665062428,0.02388150244951248
1783169837998243600,0.54224365234375,-0.0011528721079230309,-0.0048977285623550415,0.01912642829120159
1783169838008313600,0.552313720703125,0.0055510662496089935,-0.001803743652999401,0.017858199775218964
1783169838018383600,0.562383544921875,0.013809528201818466,0.002465037629008293,0.021402068436145782
1783169838028452600,0.57245263671875,0.018469497561454773,0.007816851139068604,0.022184893488883972
1783169838038522600,0.582522705078125,0.020949166268110275,0.013243041932582855,0.019446365535259247
1783169838048591600,0.592591552734375,0.016012143343687057,0.012041943147778511,0.01193680427968502
1783169838058661600,0.60266162109375,0.010238942690193653,0.01906896010041237,0.016127021983265877
1783169838068731600,0.612731689453125,0.016884423792362213,0.010308381170034409,0.03019200637936592
1783169838078800600,0.622800537109375,0.021119382232427597,0.006279018707573414,0.03710716962814331
1783169838088870400,0.632870361328125,0.01973235420882702,0.017112744972109795,0.03226742520928383
1783169838098939600,0.642939697265625,0.014347975142300129,0.021404694765806198,0.0134468674659729
1783169838109009400,0.653009521484375,-0.0011420489754527807,0.022678349167108536,0.00658637098968029
1783169838119079700,0.66307958984375,-0.009245781227946281,0.02227860689163208,0.0010461967904120684
1783169838129148700,0.673148681640625,0.0002465095603838563,0.025629259645938873,-0.0026467374991625547
1783169838139218700,0.68321875,0.015774602070450783,0.032144948840141296,-0.0009074269328266382
1783169838149287700,0.69328759765625,0.016764650121331215,0.02308771014213562,-0.001722876913845539
1783169838159357400,0.703357421875,0.01480882428586483,0.0065920911729335785,0.0027855883818119764
1783169838169427700,0.713427734375,0.011332491412758827,-0.007296321913599968,0.0007970479782670736
1783169838179496400,0.723496337890625,0.0091771949082613,-0.023219361901283264,0.017340870574116707
1783169838189566700,0.733566650390625,0.012043909169733524,-0.03243301063776016,0.03674398735165596
1783169838199635500,0.743635498046875,0.012964297086000443,-0.033418647944927216,0.04871383309364319
1783169838209705500,0.75370556640625,0.009546060115098953,-0.03815256431698799,0.0483567900955677
1783169838219774500,0.7637744140625,0.021881023421883583,-0.05248410254716873,0.043185729533433914
1783169838229844500,0.773844482421875,0.03476535156369209,-0.07126013189554214,0.04889947175979614
1783169838239914800,0.783914794921875,0.03125184401869774,-0.08137987554073334,0.04673059284687042
1783169838249983500,0.7939833984375,0.026331106200814247,-0.06414137780666351,0.04466831311583519
1783169838260053800,0.8040537109375,0.030004937201738358,-0.049942728132009506,0.028267236426472664
1783169838270122500,0.81412255859375,0.030707813799381256,-0.027781084179878235,0.016330057755112648
1783169838280192500,0.824192626953125,0.026716800406575203,-0.001652010716497898,0.03395352512598038
1783169838290262800,0.8342626953125,0.0202248003333807,0.01800544187426567,0.0503472201526165
1783169838300331500,0.84433154296875,0.015465464442968369,0.028335845097899437,0.035156019032001495
1783169838310401800,0.85440185546875,0.015037480741739273,0.04854777082800865,0.006392349489033222
1783169838320470500,0.864470458984375,0.009805168956518173,0.05459314584732056,0.0070980871096253395
1783169838330540500,0.87454052734375,0.008065339177846909,0.05549396574497223,0.01622573472559452
1783169838340610600,0.884610595703125,0.01456824503839016,0.05798055976629257,0.01237506978213787
1783169838350679600,0.894679443359375,0.025326630100607872,0.05493829771876335,0.003851816523820162
1783169838360749800,0.904749755859375,0.030083036050200462,0.044425733387470245,0.005980481393635273
1783169838370818600,0.914818603515625,0.03134535998106003,0.02654300443828106,0.014951677992939949
1783169838380888600,0.924888671875,0.030354931950569153,0.017184123396873474,0.02013765089213848
1783169838390958600,0.93495849609375,0.028362032026052475,0.01387193612754345,0.014567669481039047
1783169838401027600,0.945027587890625,0.03051040507853031,0.008212452754378319,0.00691081490367651
1783169838411097600,0.95509765625,0.028090348467230797,0.0006611826829612255,0.006861760281026363
1783169838421166600,0.96516650390625,0.030612362548708916,-0.0055341292172670364,0.012722312472760677
1783169838431236600,0.975236572265625,0.021413400769233704,-0.010963816195726395,0.0022038021124899387
1783169838441306600,0.985306640625,0.011053970083594322,-0.007061752490699291,-0.005968373268842697
1783169838451375400,0.995375244140625,-0.0026114252395927906,0.0017024646513164043,-0.005294752772897482
1783169838461445600,1.005445556640625,-0.007222954649478197,0.011684791184961796,-0.0013103978708386421
1783169838471514600,1.0155146484375,-0.008620007894933224,0.024389544501900673,-0.015664516016840935
1783169838481584600,1.025584716796875,-0.005278806202113628,0.033669061958789825,-0.030965708196163177
1783169838491654700,1.035654541015625,-0.0018636793829500675,0.040463559329509735,-0.032373689115047455
1783169838501723600,1.0457236328125,-0.0011092056520283222,0.04463273659348488,-0.025611121207475662
1783169838511793700,1.055793701171875,-0.003827272914350033,0.047633640468120575,-0.024960318580269814
1783169838521862400,1.0658623046875,-0.007709363009780645,0.0565887913107872,-0.032060038298368454
1783169838531932700,1.0759326171875,-0.010957982391119003,0.0597897507250309,-0.046050455421209335
1783169838542002700,1.086002685546875,-0.008918002247810364,0.0637432113289833,-0.040269799530506134
1783169838552071700,1.09607177734375,-0.006225684657692909,0.0641905888915062,-0.04487023502588272
1783169838562141700,1.1061416015625,-0.0003068090882152319,0.049198590219020844,-0.033351264894008636
1783169838572210400,1.11621044921875,0.0006619764026254416,0.03742826730012894,-0.018614590167999268
1783169838582280700,1.12628076171875,0.003783467458561063,0.025544175878167152,-0.01216148305684328
1783169838592350700,1.136350830078125,0.007789297495037317,0.013719849288463593,-0.017959220334887505
1783169838602419700,1.146419677734375,0.014551863074302673,0.00010230857878923416,-0.012848613783717155
1783169838612489700,1.15648974609375,0.01731710508465767,-0.01578529179096222,-0.0012419198174029589
1783169838622558700,1.166558837890625,0.016651315614581108,-0.017143238335847855,0.003941922914236784
1783169838632628700,1.176628662109375,0.0056960671208798885,-0.00725453719496727,-0.009169261902570724
1783169838642697500,1.186697509765625,-0.005733154714107513,0.00869167223572731,-0.006865627132356167
1783169838652767700,1.196767822265625,-0.016868295148015022,0.03395936265587807,-0.013680745847523212
1783169838662837500,1.20683740234375,-0.02016235888004303,0.05616772919893265,-0.013473019935190678
1783169838672906800,1.21690673828125,-0.02162312902510166,0.07101830840110779,-0.01587611436843872
1783169838682976500,1.2269765625,-0.023813312873244286,0.09115447103977203,-0.025878947228193283
1783169838693045500,1.23704541015625,-0.007722768466919661,0.08783183991909027,-0.025181762874126434
1783169838703115800,1.24711572265625,-0.007353388238698244,0.06876228004693985,-0.027301639318466187
1783169838713185500,1.257185546875,-0.008671337738633156,0.06359595060348511,0.0027253199368715286
1783169838723254800,1.2672548828125,-0.013741996139287949,0.05309750884771347,0.01838736981153488
1783169838733324500,1.277324462890625,-0.013222078792750835,0.04823525995016098,0.01700749434530735
1783169838743393500,1.2873935546875,-0.009686732664704323,0.03764333203434944,0.01771988905966282
1783169838753463600,1.297463623046875,-0.007096569519490004,0.02667456492781639,0.024809367954730988
1783169838763533600,1.307533447265625,-0.005678968969732523,0.022712845355272293,0.02975033037364483
1783169838773602600,1.3176025390625,0.0004924748791381717,0.027072399854660034,0.025377478450536728
1783169838783672600,1.327672607421875,-0.000996232032775879,0.029166709631681442,0.024638183414936066
1783169838793741800,1.337741943359375,-0.0032616860698908567,0.028183363378047943,0.023505043238401413
1783169838803811600,1.3478115234375,-0.008760581724345684,0.03566231578588486,0.024488814175128937
1783169838813881600,1.357881591796875,-0.014019159600138664,0.039706286042928696,0.010157066397368908
1783169838823950600,1.36795068359375,-0.013366417959332466,0.05142020061612129,0.007364209275692701
1783169838834020600,1.3780205078125,-0.010789746418595314,0.04401509463787079,0.020103059709072113
1783169838844089600,1.388089599609375,-0.009269880130887032,0.02399611473083496,0.018974145874381065
1783169838854159600,1.39815966796875,-0.01250741071999073,-0.0008126106113195419,0.013715671375393867
1783169838864228400,1.408228271484375,-0.013940989971160889,-0.004201482981443405,0.009991240687668324
1783169838874297000,1.418297119140625,-0.01612306945025921,-0.008351124823093414,0.007203424349427223
1783169838884367000,1.4283671875,-0.022247275337576866,-0.005006993189454079,0.011869548819959164
1783169838894436000,1.43843603515625,-0.025488318875432014,0.0024785585701465607,0.011438487097620964
1783169838904506000,1.448506103515625,-0.02408429980278015,0.011156735010445118,0.0115900207310915
1783169838914576400,1.458576416015625,-0.025498589500784874,0.01865735650062561,0.007544931955635548
1783169838924645000,1.46864501953125,-0.03539889305830002,0.01561762485653162,0.010850448161363602
1783169838934715400,1.47871533203125,-0.0409344844520092,0.021322131156921387,0.0036228764802217484
1783169838944784100,1.4887841796875,-0.04224342852830887,0.026902250945568085,-0.006589281372725964
1783169838954854100,1.498854248046875,-0.042524080723524094,0.0334835983812809,-0.013703596778213978
1783169838964923100,1.508923095703125,-0.03412020951509476,0.03499281033873558,-0.011887055821716785
1783169838974993200,1.5189931640625,-0.029008034616708755,0.029698174446821213,-0.0027291004080325365
1783169838985063400,1.5290634765625,-0.026838622987270355,0.027111446484923363,0.016911180689930916
1783169838995132200,1.539132080078125,-0.03139806538820267,0.014135166071355343,0.04101948067545891
1783169839005202200,1.5492021484375,-0.03350116312503815,0.006363795604556799,0.05160794407129288
1783169839015271200,1.559271240234375,-0.031421951949596405,-0.018430210649967194,0.043245989829301834
1783169839025341200,1.569341064453125,-0.03355913981795311,-0.038309112191200256,0.03764429688453674
1783169839035411200,1.5794111328125,-0.03410220146179199,-0.05651062726974487,0.03597896918654442
1783169839045480200,1.589480224609375,-0.024889791384339333,-0.06909912824630737,0.03242737799882889
1783169839055550500,1.599550537109375,-0.01690913736820221,-0.07174139469861984,0.024800032377243042
1783169839065619200,1.609619140625,-0.01420176774263382,-0.06203177571296692,0.02459629997611046
1783169839075689200,1.619689208984375,-0.017454734072089195,-0.039451271295547485,0.01906396821141243
1783169839085759200,1.62975927734375,-0.009774444624781609,-0.023265376687049866,0.00901293195784092
1783169839095828200,1.639828125,-0.006778629031032324,0.015383950434625149,-0.004264945164322853
1783169839105898200,1.649898193359375,-0.00359695078805089,0.02210097387433052,0.009045267477631569
1783169839115967200,1.65996728515625,-0.0007215631194412708,0.033740315586328506,0.011241985484957695
1783169839126037200,1.670037353515625,0.01256468053907156,0.04397723823785782,0.002963548991829157
1783169839136106200,1.680106201171875,0.019211268052458763,0.055173203349113464,-0.008015516214072704
1783169839146176300,1.69017626953125,0.020714621990919113,0.055247239768505096,-0.001162936445325613
1783169839156246300,1.700246337890625,0.017663737758994102,0.06007082760334015,0.012021724134683609
1783169839166315300,1.710315185546875,0.016967589035630226,0.058838315308094025,0.018609585240483284
1783169839176385300,1.72038525390625,0.024258846417069435,0.0588575080037117,0.018314756453037262
1783169839186454300,1.730454345703125,0.026371797546744347,0.05313623696565628,0.0234056543558836
1783169839196524000,1.74052392578125,0.031923480331897736,0.04735825955867767,0.02957564778625965
1783169839206594300,1.75059423828125,0.03470302000641823,0.03901670500636101,0.03467320278286934
1783169839216663000,1.7606630859375,0.027368789538741112,0.021481215953826904,0.02838120236992836
1783169839226733300,1.7707333984375,0.01688658632338047,0.005373086780309677,0.023421598598361015
1783169839236802300,1.78080224609375,0.017788443714380264,-0.015639226883649826,0.01837247610092163
1783169839246872000,1.7908720703125,0.01980525441467762,-0.028314542025327682,0.020386356860399246
1783169839256942300,1.8009423828125,0.026573609560728073,-0.041698671877384186,0.029491795226931572
1783169839267011000,1.811010986328125,0.03389357775449753,-0.04166405647993088,0.03236561268568039
1783169839277081300,1.821081298828125,0.024044126272201538,-0.032717831432819366,0.037498924881219864
1783169839287150000,1.831150146484375,0.017277033999562263,-0.018033962696790695,0.0343388170003891
1783169839297220400,1.841220458984375,0.00567338801920414,-0.001551787368953228,0.028003353625535965
1783169839307289000,1.8512890625,0.00005385233089327812,0.0026815729215741158,0.011861667968332767
1783169839317359000,1.861359130859375,-0.012311218306422234,-0.00283796526491642,0.0013864610809832811
1783169839327429400,1.871429443359375,-0.01018122211098671,-0.010076702572405338,-0.007026464678347111
1783169839337498000,1.881498046875,-0.005502636544406414,-0.015349509194493294,-0.008653106167912483
1783169839347568400,1.891568359375,-0.002585409674793482,-0.018123725429177284,-0.006841357797384262
1783169839357637000,1.90163720703125,-0.005473818629980087,-0.016582541167736053,-0.011167947202920914
1783169839367707100,1.91170703125,-0.0011118268594145775,-0.0071853091940283775,-0.004357977770268917
1783169839377777400,1.92177734375,-0.001817494397982955,0.004155449103564024,0.004446087870746851
1783169839387846100,1.93184619140625,0.0022038789466023445,0.017791099846363068,0.009397436864674091
1783169839397916400,1.94191650390625,0.0064495885744690895,0.03454094007611275,0.0030255988240242004
1783169839407985200,1.951985107421875,0.013407097198069096,0.041081130504608154,-0.0030373537447303534
1783169839418055200,1.96205517578125,0.017594467848539352,0.03671896457672119,-0.003077722154557705
1783169839428125200,1.972125244140625,0.01460267324000597,0.026017850264906883,-0.0019085942767560482
1783169839438194200,1.982194091796875,0.0112205995246768,0.011848002672195435,0.002713687252253294
1783169839448264200,1.99226416015625,0.009706592187285423,-0.0012134704738855362,0.005464999005198479
1783169839458333200,2.002333251953125,0.008225762285292149,-0.004316681995987892,0.01491764560341835
1783169839468403500,2.012403564453125,0.006689917296171188,-0.007062667049467564,0.02712957188487053
1783169839478472200,2.02247216796875,0.002132646506652236,-0.0018792413175106049,0.02603163756430149
1783169839488542200,2.032542236328125,0.002959025325253606,0.002987951971590519,0.013139273971319199
1783169839498612200,2.0426123046875,-0.0017515462823212147,0.004596242681145668,0.011608347296714783
1783169839508681200,2.05268115234375,0.00002078746911138296,0.007992572151124477,0.015281112864613533
1783169839518751200,2.062751220703125,-0.0064931223168969154,0.005198095925152302,0.009869992733001709
1783169839528820200,2.0728203125,-0.01121011283248663,-0.0014201253652572632,0.0030602901242673397
1783169839538890200,2.08289013671875,-0.012017990462481976,-0.007899431511759758,-0.0030810621101409197
1783169839548960300,2.092960205078125,-0.005874344147741795,-0.012749580666422844,-0.0026083511766046286
1783169839559029200,2.103029296875,-0.0006353459320962429,-0.011362333782017231,0.002027537440881133
1783169839569099300,2.113099365234375,-0.0028769285418093204,-0.008686921559274197,0.006300313398241997
1783169839579168300,2.123168212890625,-0.007548521272838116,-0.0002626469358801842,0.006431497633457184
1783169839589238300,2.13323828125,-0.008373302407562733,0.009787590242922306,-0.010007929056882858
1783169839599308300,2.143308349609375,-0.009499860927462578,0.02302149310708046,-0.02037007361650467
1783169839609377000,2.153376953125,-0.017965251579880714,0.015086604282259941,-0.019249947741627693
1783169839619447300,2.163447265625,-0.024629458785057068,0.010180351324379444,-0.011068860068917274
1783169839629516000,2.17351611328125,-0.020054414868354797,0.0076367659494280815,-0.008636062033474445
1783169839639586300,2.18358642578125,-0.008627407252788544,-0.004612197168171406,-0.022648926824331284
1783169839649655300,2.1936552734375,0.00426974892616272,-0.01215639989823103,-0.020736511796712875
1783169839659725300,2.203725341796875,0.0066081443801522255,-0.02264149859547615,-0.017863398417830467
1783169839669795300,2.21379541015625,0.004329011309891939,-0.03876187652349472,-0.014428188093006611
1783169839679864000,2.223864013671875,-0.003924993798136711,-0.05448240041732788,-0.011075181886553764
1783169839689934300,2.233934326171875,-0.006129291839897633,-0.07146963477134705,-0.0014369350392371416
1783169839700003000,2.244003173828125,-0.006950008682906628,-0.08534003794193268,0.0016043076757341623
1783169839710073300,2.2540732421875,-0.006413647904992104,-0.09600945562124252,-0.0013536654878407717
1783169839720143400,2.264143310546875,-0.0026518343947827816,-0.10317127406597137,-0.006589127238839865
1783169839730212000,2.274212158203125,-0.000725836493074894,-0.10351695120334625,-0.0042471433989703655
1783169839740282400,2.284282470703125,0.0006024776957929134,-0.09903772920370102,-0.014219539240002632
1783169839750351000,2.29435107421875,-0.0009711841121315956,-0.08599862456321716,-0.02449561282992363
1783169839760421400,2.30442138671875,-0.0030094028916209936,-0.07527802884578705,-0.020087338984012604
1783169839770491100,2.3144912109375,-0.011876930482685566,-0.05826389044523239,-0.008939879015088081
1783169839780560100,2.32456005859375,-0.016936665400862694,-0.03826827555894852,-0.018178097903728485
1783169839790630400,2.33463037109375,-0.022602805867791176,-0.021094350144267082,-0.03708281368017197
1783169839800699100,2.34469921875,-0.02312038652598858,-0.012425125576555729,-0.04472358897328377
1783169839810769400,2.354769287109375,-0.022074297070503235,-0.013009688816964626,-0.04084629565477371
1783169839820838100,2.364838134765625,-0.018850330263376236,-0.011616070754826069,-0.043131273239851
1783169839830908400,2.374908447265625,-0.016135236248373985,-0.011630718596279621,-0.046297505497932434
1783169839840978200,2.384978271484375,-0.013071396388113499,-0.017269395291805267,-0.042986296117305756
1783169839851047200,2.395047119140625,-0.0105541767552495,-0.017032373696565628,-0.036480728536844254
1783169839861117200,2.4051171875,-0.014658655039966106,-0.025916017591953278,-0.03194396197795868
1783169839871186000,2.41518603515625,-0.016405953094363213,-0.021456021815538406,-0.02213154546916485
1783169839881256000,2.425255859375,-0.01602455973625183,-0.016909465193748474,-0.02092713676393032
1783169839891326000,2.435325927734375,-0.011052706278860569,-0.0174785815179348,-0.023905349895358086
1783169839901395200,2.445395263671875,-0.011906291358172894,-0.017554625868797302,-0.027717720717191696
1783169839911465000,2.45546484375,-0.011711880564689636,-0.02326710894703865,-0.01865178905427456
1783169839921534000,2.465533935546875,-0.011715580709278584,-0.03210719674825668,-0.018263375386595726
1783169839931604000,2.47560400390625,-0.009277722798287868,-0.036402344703674316,-0.011713862419128418
1783169839941674000,2.485674072265625,-0.012804308906197548,-0.03577384352684021,-0.011528098955750465
1783169839951743000,2.495742919921875,-0.01221974566578865,-0.04545630142092705,0.0008177829440683126
1783169839961813000,2.50581298828125,-0.012709319591522217,-0.0537894181907177,0.012718530371785164
1783169839971882000,2.515882080078125,-0.010122057981789112,-0.06452728807926178,0.016533775255084038
1783169839981952000,2.525951904296875,-0.008886827155947685,-0.057895395904779434,0.011302521452307701
1783169839992021000,2.53602099609375,-0.006660690531134605,-0.04942707717418671,0.006805774290114641
1783169840002091000,2.546091064453125,-0.008801998570561409,-0.041771791875362396,0.002736292779445648
1783169840012161000,2.5561611328125,-0.012420968152582645,-0.03144112229347229,-0.0042691524140536785
1783169840022230000,2.56622998046875,-0.01352643221616745,-0.026505615562200546,-0.006554748862981796
1783169840032300000,2.576300048828125,-0.008391325362026691,-0.02706647664308548,-0.0030345823615789413
1783169840042368800,2.58636865234375,-0.005788309965282679,-0.022953346371650696,-0.009192023426294327
1783169840052439000,2.59643896484375,-0.009037632495164871,-0.011896967887878418,-0.015016622841358185
1783169840062509000,2.606509033203125,-0.015385739505290985,-0.009090041741728783,0.005047555547207594
1783169840072578000,2.616578125,-0.014678137376904488,0.006152826361358166,0.01605999283492565
1783169840082648000,2.62664794921875,-0.009677029214799404,0.011413492262363434,0.00036859139800071716
1783169840092717000,2.636717041015625,-0.0054322173818945885,0.017497749999165535,-0.009923194535076618
1783169840102787000,2.646787109375,-0.0027080129366368055,0.024982579052448273,-0.015814919024705887
1783169840112855800,2.656855712890625,-0.0039620958268642426,0.018545983359217644,-0.012289159931242466
1783169840122926000,2.666926025390625,0.0005679975729435682,0.016598161309957504,-0.017766231670975685
1783169840132996000,2.67699609375,0.0036985434126108885,0.005895182490348816,-0.008104817010462284
1783169840143065000,2.687065185546875,0.003148726187646389,-0.0028717098757624626,-0.003304033540189266
1783169840153135000,2.697135009765625,0.006307234987616539,-0.0073018791154026985,-0.00010531092993915081
1783169840163203800,2.707203857421875,0.0022541284561157227,-0.009243535809218884,0.004253690596669912
1783169840173274000,2.717274169921875,0.0017750257393345237,-0.004898056387901306,-0.00865198764950037
1783169840183343900,2.72734375,0.0009826517198234797,-0.000008779577910900116,-0.008908558636903763
1783169840193413000,2.7374130859375,0.0001378969755023718,0.002145185135304928,-0.0124124800786376
1783169840203483000,2.74748291015625,0.0005734915612265468,0.0063972980715334415,-0.023880092427134514
1783169840213551900,2.7575517578125,0.0074196793138980865,0.007930479943752289,-0.025314204394817352
1783169840223622100,2.7676220703125,0.00903951283544302,0.0070960018783807755,-0.016619740054011345
1783169840233692000,2.77769189453125,0.012457679957151413,0.004447754472494125,-0.012192501686513424
1783169840243761200,2.78776123046875,0.009088150225579739,-0.005798115395009518,-0.009854821488261223
1783169840253831000,2.797830810546875,0.006530184298753738,-0.01937730610370636,-0.011746464297175407
1783169840263900200,2.807900146484375,0.0027943006716668606,-0.026999343186616898,-0.009469205513596535
1783169840273970000,2.817969970703125,0.0051975371316075325,-0.02413484826683998,-0.006930146832019091
1783169840284039000,2.828038818359375,0.009489530697464943,-0.015611720271408558,-0.005378257483243942
1783169840294109000,2.83810888671875,0.006928369402885437,-0.002574215643107891,-0.017144368961453438
1783169840304179000,2.848178955078125,-0.001213769894093275,0.011673416942358017,-0.021381711587309837
1783169840314248200,2.858248291015625,-0.0011301464401185513,0.02306642010807991,-0.026126665994524956
1783169840324318000,2.86831787109375,-0.003976084291934967,0.02970372699201107,-0.024065226316452026
1783169840334387000,2.878386962890625,-0.007669622078537941,0.03262707591056824,-0.024833548814058304
1783169840344457000,2.88845703125,-0.004446384496986866,0.02563588321208954,-0.016473423689603806
1783169840354527000,2.89852685546875,-0.000002900604158639908,0.017862383276224136,-0.004198117181658745
1783169840364596000,2.908595947265625,0.0013725104508921504,0.003670637495815754,0.00048055616207420826
1783169840374666000,2.918666015625,0.008801664225757122,-0.0003627203404903412,0.001101871719583869
1783169840384735000,2.92873486328125,0.015714557841420174,-0.002537294290959835,0.006890416145324707
1783169840394805000,2.938804931640625,0.015497776679694653,-0.007173591293394566,0.010645739734172821
1783169840404874000,2.9488740234375,0.007076804991811514,-0.01051853597164154,0.011566943489015102
1783169840414944000,2.958944091796875,0.008297331631183624,-0.0032252026721835136,0.01016585435718298
1783169840425014000,2.969013916015625,0.008384443819522858,0.004953974392265081,-0.0008954587392508984
1783169840435083000,2.9790830078125,0.013280132785439491,0.02205093577504158,-0.013247465714812279
1783169840445153000,2.989153076171875,0.014773284085094929,0.031605202704668045,-0.01695150136947632
1783169840455222000,2.999221923828125,0.014448379166424274,0.0430179163813591,-0.01630382053554058
1783169840465292000,3.0092919921875,0.013716724701225758,0.05161457881331444,-0.00277960067614913
1783169840475362000,3.019362060546875,0.005759465508162975,0.05692305788397789,0.01019958034157753
1783169840485431000,3.02943115234375,-0.0015479400753974915,0.055978842079639435,0.004719117656350136
1783169840495501000,3.0395009765625,-0.0017367580439895391,0.04909510537981987,-0.0021598271559923887
1783169840505570000,3.049570068359375,-0.004169430583715439,0.03673959895968437,-0.00003871973603963852
1783169840515640000,3.05964013671875,-0.001035955734550953,0.025165237486362457,-0.0011628400534391403
1783169840525708800,3.069708740234375,0.004931740462779999,0.019123343750834465,0.0012357167433947325
1783169840535779000,3.079779052734375,0.010876715183258057,0.018213873729109764,-0.0016990869771689177
1783169840545849000,3.08984912109375,0.020750917494297028,0.010852363891899586,-0.008468842133879662
1783169840555918000,3.09991796875,0.022659070789813995,0.005045874044299126,-0.005555344745516777
1783169840565988000,3.109988037109375,0.019256575033068657,-0.0013996521010994911,0.008856828324496746
1783169840576056800,3.120056884765625,0.01150970533490181,-0.0073515502735972404,0.01703832484781742
1783169840586127000,3.130127197265625,0.00846070982515812,-0.00611529778689146,0.0036793637555092573
1783169840596196900,3.14019677734375,0.011892992071807384,-0.0048590851947665215,-0.00875386968255043
1783169840606266000,3.15026611328125,0.017267683520913124,-0.0025414926931262016,-0.0010842769406735897
1783169840616336000,3.1603359375,0.018552925437688828,-0.0043995799496769905,0.003687841584905982
1783169840626405000,3.170405029296875,0.01707463338971138,-0.006047872826457024,-0.0007256919052451849
1783169840636475100,3.18047509765625,0.020907456055283546,0.00026807934045791626,-0.004576090723276138
1783169840646544000,3.1905439453125,0.017782965674996376,0.013746719807386398,-0.0016486563254147768
1783169840656614100,3.2006142578125,0.016796797513961792,0.022874705493450165,-0.002592480508610606
1783169840666684000,3.210683837890625,0.010207350365817547,0.027604615315794945,-0.007284774444997311
1783169840676753200,3.220753173828125,0.005903682671487331,0.029593996703624725,-0.011019591242074966
1783169840686823000,3.230822998046875,0.005783826112747192,0.0340232290327549,-0.0161072239279747
1783169840696892000,3.240891845703125,0.01467079482972622,0.028703298419713974,-0.0176039207726717
1783169840706962000,3.2509619140625,0.015778109431266785,0.0189657099545002,-0.019999558106064796
1783169840717032000,3.261031982421875,0.011268844828009605,0.01548788882791996,-0.005456303246319294
1783169840727101200,3.27110107421875,0.007656349800527096,0.0077325874008238316,0.013671430759131908
1783169840737171000,3.2811708984375,0.010105925612151623,0.011521199718117714,0.004926142282783985
1783169840747240200,3.291240234375,0.008150465786457062,0.006207817234098911,-0.006648711860179901
1783169840757310000,3.30131005859375,0.005052410066127777,-0.0015829941257834435,-0.004624443128705025
1783169840767379000,3.31137890625,0.0025929666589945555,-0.008364603854715824,0.0022226145956665277
1783169840777449000,3.321448974609375,0.008088932372629642,-0.010770238004624844,0.002825288102030754
1783169840787519000,3.33151904296875,0.009899573400616646,-0.011222051456570625,-0.0031836587004363537
1783169840797588000,3.341587890625,0.005753297824412584,-0.015533709898591042,0.0026318859308958054
1783169840807658000,3.351657958984375,0.002252291887998581,-0.021427687257528305,0.008882926777005196
1783169840817727000,3.36172705078125,0.0015774468192830682,-0.021724097430706024,0.01206726860255003
1783169840827797000,3.371796875,0.003288527950644493,-0.016134124249219894,0.012060078792273998
1783169840837867000,3.381866943359375,0.005743163637816906,-0.009534277953207493,0.005668225232511759
1783169840847936000,3.39193603515625,0.0054294997826218605,-0.0060609690845012665,0.0033001296687871218
1783169840858006000,3.402006103515625,0.006268927827477455,0.0012667183764278889,0.007418707944452763
1783169840868075500,3.412075439453125,0.002282204106450081,0.010227195918560028,0.003401721827685833
1783169840878145800,3.422145751953125,0.0010763246100395918,0.015246722847223282,-0.0027762791141867638
1783169840888215800,3.4322158203125,0.004312413744628429,0.022171298041939735,-0.007448687683790922
1783169840898284800,3.442284912109375,0.010315711610019207,0.00848371535539627,-0.0006720074452459812
1783169840908354800,3.452354736328125,0.011733019724488258,0.003049724269658327,0.007794325239956379
1783169840918423600,3.462423583984375,0.01129146758466959,-0.009608279913663864,0.023395655676722527
1783169840928493800,3.472493896484375,0.013537815771996975,-0.007857524789869785,0.018604237586259842
1783169840938562600,3.4825625,0.012328208424150944,0.0028137615881860256,0.007749192416667938
1783169840948632800,3.4926328125,0.00666861142963171,0.0160943865776062,-0.003336454974487424
1783169840958702800,3.502702880859375,-0.0005131345242261887,0.02686074748635292,-0.00486883707344532
1783169840968771600,3.512771484375,-0.0011037811636924744,0.026710689067840576,-0.011899527162313461
1783169840978841900,3.522841796875,-0.0009565083310008049,0.02353593520820141,-0.019553717225790024
1783169840988910600,3.53291064453125,-0.0002088345354422927,0.02249753475189209,-0.022269710898399353
1783169840998980900,3.54298095703125,0.004862090572714806,0.016855627298355103,-0.010886294767260551
1783169841009051000,3.55305078125,0.004552631173282862,0.011724515818059444,-0.008133385330438614
1783169841019119600,3.56311962890625,0.0033238485921174288,-0.0007393443956971169,-0.00463851960375905
1783169841029190000,3.57318994140625,0.0014336223248392344,-0.005083207041025162,0.014526501297950745
1783169841039258600,3.583258544921875,0.0002884630812332034,-0.005365235731005669,0.005462699569761753
1783169841049329000,3.593328857421875,-0.0029627953190356493,0.004168465733528137,-0.010470645502209663
1783169841059397600,3.603397705078125,-0.0010879298206418753,0.008991982787847519,-0.013253383338451385
1783169841069468000,3.613468017578125,-0.00284292409196496,0.009899328462779522,-0.004913565702736378
1783169841079537700,3.62353759765625,0.004075435921549797,0.010917454957962036,-0.005738613195717335
1783169841089606700,3.633606689453125,0.006249178200960159,0.014392763376235962,-0.01696418598294258
1783169841099676700,3.6436767578125,0.00992620550096035,0.017135288566350937,-0.01600438356399536
1783169841109745700,3.65374560546875,0.014607172459363937,0.0129300057888031,-0.015408284962177277
1783169841119816000,3.66381591796875,0.009515474550426006,0.007668398320674896,-0.006476042792201042
1783169841129885700,3.6738857421875,0.0029593610670417547,0.008273215964436531,0.005357967223972082
1783169841139954700,3.68395458984375,-0.0012758639641106129,0.008767232298851013,0.004090835340321064
1783169841150024700,3.694024658203125,-0.0014865058474242687,0.01296690758317709,-0.006376256234943867
1783169841160093700,3.70409375,-0.008105525746941566,0.011578601785004139,-0.014669871889054775
1783169841170163700,3.714163818359375,-0.008050022646784782,0.0054856520146131516,-0.014633155427873135
1783169841180232700,3.724232666015625,-0.0012568312231451273,0.0021114270202815533,-0.014013172127306461
1783169841190302700,3.734302734375,0.0035921281669288874,-0.003715536557137966,-0.009386890567839146
1783169841200372700,3.744372802734375,0.010564283467829227,-0.006866589188575745,-0.0034006370697170496
1783169841210441700,3.754441650390625,0.004561995156109333,-0.010952956043183804,0.008087187074124813
1783169841220511700,3.76451171875,0.0010202572448179126,-0.021864991635084152,0.01293920073658228
1783169841230580700,3.774580810546875,-0.000449261162430048,-0.02729504182934761,0.009024017490446568
1783169841240650800,3.784650634765625,-0.0005296887829899788,-0.033289287239313126,0.013681354001164436
1783169841250719700,3.7947197265625,-0.0031800097785890102,-0.03146287426352501,0.014923439361155033
1783169841260789800,3.804789794921875,-0.006435191724449396,-0.030343547463417053,0.014017964713275433
1783169841270859800,3.81485986328125,-0.0015604710206389427,-0.025709234178066254,0.007126951590180397
1783169841280928500,3.824928466796875,0.00024115736596286297,-0.023611459881067276,0.0014544185250997543
1783169841290998800,3.834998779296875,0.0016230716137215495,-0.018486207351088524,-0.006104165222495794
1783169841301067800,3.84506787109375,0.0025839400477707386,-0.010189661756157875,-0.009425660595297813
1783169841311137800,3.8551376953125,0.0014146714238449931,-0.007145967334508896,-0.0033489589113742113
1783169841321207800,3.865207763671875,-0.0016389091033488512,0.00025149527937173843,-0.0004684838932007551
1783169841331276500,3.875276611328125,-0.005359345115721226,0.011730251833796501,0.0008511124178767204
1783169841341346800,3.885346923828125,0.00013901724014431238,0.01821451634168625,-0.008586597628891468
1783169841351415600,3.89541552734375,-0.0005502519197762012,0.02117953635752201,-0.008080655708909035
1783169841361485800,3.90548583984375,-0.00016329449135810137,0.01894407905638218,-0.002636621706187725
1783169841371554600,3.915554443359375,-0.000540788983926177,0.019174475222826004,-0.006522604264318943
1783169841381624600,3.92562451171875,0.001640073605813086,0.012683819979429245,-0.014230325818061829
1783169841391694800,3.93569482421875,-0.0033358754590153694,0.008973879739642143,-0.01656303182244301
1783169841401763600,3.945763671875,-0.0016655407380312681,0.0013138297945261002,-0.00540864747017622
1783169841411833900,3.955833740234375,-0.0010690356139093637,-0.0033676177263259888,0.0010308176279067993
1783169841421902600,3.965902587890625,0.001054569031111896,-0.002353220246732235,0.00786369014531374
1783169841431972900,3.975972900390625,0.00010314909741282463,0.0005122381262481213,0.007765857968479395
1783169841442043000,3.98604296875,0.0020664315670728683,0.0015561971813440323,0.0110910814255476
1783169841452111600,3.996111572265625,0.0006921128369867802,0.0055502429604530334,0.00497762206941843
1783169841462182000,4.006181884765625,0.0003480324521660805,0.015361062251031399,-0.006152526941150427
1783169841472250600,4.016250732421875,-0.001933650579303503,0.023363888263702393,-0.012692474760115147
1783169841482321000,4.02632080078125,0.0019835932180285454,0.02460918202996254,-0.019690729677677155
1783169841492389600,4.0363896484375,0.006290176883339882,0.024345658719539642,-0.024808723479509354
1783169841502459600,4.046459716796875,0.006824939511716366,0.029364120215177536,-0.01996549777686596
1783169841512529700,4.05652978515625,0.008334081619977951,0.025858718901872635,-0.012036919593811035
1783169841522598700,4.0665986328125,0.006608885712921619,0.041685882955789566,-0.021080482751131058
1783169841532669000,4.0766689453125,-0.0001813472481444478,0.019303619861602783,-0.005285147111862898
1783169841542737700,4.086737548828125,-0.004336144775152206,0.009791606105864048,0.012693054974079132
1783169841552807700,4.0968076171875,-0.0031220808159559965,-0.0013922210782766342,0.009529300034046173
1783169841562876700,4.106876708984375,-0.0028472424019128084,-0.0012761075049638748,0.0022207871079444885
1783169841572946700,4.11694677734375,0.00016764015890657902,-0.00150283332914114,-0.0023285311181098223
1783169841583016700,4.1270166015625,-0.00021958351135253906,-0.002110300585627556,0.006642593070864677
1783169841593085700,4.137085693359375,0.000531538506038487,-0.013048604130744934,0.00971132144331932
1783169841603155700,4.14715576171875,-0.0005534333176910877,-0.015876082703471184,0.0010206277947872877
1783169841613224700,4.157224609375,-0.0022467535454779863,-0.015939820557832718,0.003859449177980423
1783169841623294700,4.167294677734375,-0.006072117947041988,-0.021097034215927124,-0.004228837788105011
1783169841633364700,4.17736474609375,-0.0025088228285312653,-0.025771550834178925,-0.006403770763427019
1783169841643433700,4.187433837890625,-0.005411401856690645,-0.03244170546531677,0.005839579738676548
1783169841653503700,4.197503662109375,-0.003253093920648098,-0.03009350225329399,0.012060832232236862
1783169841663572700,4.20757275390625,0.0025283624418079853,-0.03931682929396629,0.015496043488383293
1783169841673642800,4.217642822265625,0.00412004766985774,-0.04091661050915718,0.012547540478408337
1783169841683711700,4.227711669921875,0.00035886524710804224,-0.03418413922190666,0.007305373903363943
1783169841693781500,4.237781494140625,-0.0030347690917551517,-0.02291077747941017,0.0009256410412490368
1783169841703851800,4.247851806640625,-0.00609554024413228,-0.01041655708104372,-0.004413197748363018
1783169841713920800,4.257920654296875,-0.011250396259129047,0.0004274258390069008,-0.005191163159906864
1783169841723990800,4.26799072265625,-0.011798208579421043,0.006807294674217701,-0.0045911530032753944
1783169841734059800,4.278059814453125,-0.008469399996101856,0.01186939887702465,-0.016327273100614548
1783169841744129500,4.288129638671875,-0.0031438760925084352,0.011881383135914803,-0.02584274671971798
1783169841754198800,4.29819873046875,0.005316411145031452,0.008432179689407349,-0.016766220331192017
1783169841764268500,4.3082685546875,0.004977124743163586,0.005151432007551193,-0.0019209610763937235
1783169841774338800,4.3183388671875,0.003913192078471184,-0.0003333482891321182,-0.0025313578080385923
1783169841784407600,4.328407470703125,-0.004430491477251053,-0.007462630979716778,-0.01474115252494812
1783169841794477800,4.338477783203125,-0.007852653041481972,-0.008988355286419392,-0.008907231502234936
1783169841804546800,4.348546875,-0.00796370767056942,-0.013951155357062817,0.009333024732768536
1783169841814616600,4.358616455078125,-0.005032344721257687,-0.015439516864717007,0.0117283770814538
1783169841824686800,4.368686767578125,-0.0053479294292628765,-0.010483640246093273,0.00438524316996336
1783169841834755600,4.378755615234375,-0.00550047867000103,-0.0024874303489923477,0.007342764176428318
1783169841844825900,4.388825927734375,-0.0014306360390037298,0.006058653816580772,-0.002071776892989874
1783169841854894600,4.39889453125,0.00556323304772377,0.014781871810555458,-0.006608637981116772
1783169841864964900,4.40896484375,0.005734739825129509,0.01416162122040987,-0.010452378541231155
1783169841875033900,4.419033935546875,0.008878404274582863,0.017169348895549774,-0.010983500629663467
1783169841885103900,4.429103759765625,0.015333905816078186,0.022706061601638794,-0.00578261399641633
1783169841895174000,4.439173828125,0.015580124221742153,0.030782930552959442,-0.0025361182633787394
1783169841905243000,4.449242919921875,0.011090833693742752,0.030839920043945312,-0.005676518194377422
1783169841915312600,4.459312744140625,0.014682216569781303,0.0335918627679348,-0.007073910906910896
1783169841925382000,4.4693818359375,0.016735246405005455,0.03744785115122795,-0.00917621050029993
1783169841935451600,4.47945166015625,0.021589182317256927,0.041171230375766754,-0.006888033822178841
1783169841945521000,4.48952099609375,0.023180954158306122,0.041551265865564346,-0.005548995919525623
1783169841955591000,4.4995908203125,0.025954144075512886,0.03784988075494766,-0.0010697683319449425
1783169841965661000,4.509660888671875,0.023600175976753235,0.03739900514483452,-0.004489533603191376
1783169841975730000,4.51972998046875,0.027108315378427505,0.02591930702328682,-0.00313164503313601
1783169841985799700,4.529799560546875,0.026606842875480652,0.02357253059744835,0.004402970429509878
1783169841995869000,4.539868896484375,0.02477642334997654,0.018404927104711533,0.005402859300374985
1783169842005938700,4.549938720703125,0.026434773579239845,0.014071696437895298,0.002688033040612936
1783169842016008000,4.560008056640625,0.023009181022644043,0.011388301849365234,0.00703204283490777
1783169842026077700,4.57007763671875,0.019338544458150864,0.008311551995575428,0.0022561962250620127
1783169842036147700,4.580147705078125,0.01573088765144348,0.005775852128863335,-0.0033466576132923365
1783169842046217000,4.590217041015625,0.018873151391744614,0.0050291018560528755,-0.007085203193128109
1783169842056286700,4.60028662109375,0.020461151376366615,0.0042142984457314014,-0.00717234518378973
1783169842066356000,4.61035595703125,0.02409636601805687,-0.0003141406923532486,-0.004475361667573452
1783169842076425700,4.62042578125,0.0250394307076931,-0.01458846963942051,0.004165043123066425
1783169842086496000,4.63049609375,0.022555500268936157,-0.024237101897597313,0.014146304689347744
1783169842096564700,4.640564697265625,0.014653734862804413,-0.027341391891241074,0.01397351361811161
1783169842106634800,4.650634765625,0.009232870303094387,-0.021222248673439026,0.01710672304034233
1783169842116703700,4.660703857421875,0.00472800899296999,-0.01397308986634016,0.0028647722210735083
1783169842126773800,4.670773681640625,0.0043050991371273994,-0.005853911861777306,-0.005246683955192566
1783169842136843000,4.680843017578125,0.0023888342548161745,0.00015369243919849396,-0.008883226662874222
1783169842146912800,4.690912841796875,0.007057888433337212,0.0004935115575790405,-0.007744725327938795
1783169842156982800,4.700982666015625,0.014820534735918045,-0.00606538075953722,-0.008348187431693077
1783169842167051800,4.7110517578125,0.020768703892827034,-0.015333181247115135,-0.009429696947336197
1783169842177121800,4.721121826171875,0.02062462642788887,-0.014497747644782066,-0.005260518752038479
1783169842187190800,4.731190673828125,0.010892637073993683,-0.010876381769776344,-0.0029150727204978466
1783169842197260800,4.7412607421875,0.0014972658827900887,-0.0017925314605236053,0.005947376601397991
1783169842207329800,4.751329833984375,-0.004401369486004114,0.0026142005808651447,0.006571355275809765
1783169842217399800,4.76139990234375,-0.007278576493263245,0.009271984919905663,-0.0028198265936225653
1783169842227469800,4.7714697265625,-0.00740401167422533,0.004794412292540073,-0.01041196659207344
1783169842237538800,4.781538818359375,-0.0014969625044614077,-0.004252975806593895,-0.012218883261084557
1783169842247608800,4.79160888671875,0.0011448932345956564,-0.012972698546946049,-0.009142398834228516
1783169842257677800,4.801677734375,0.0012071001110598445,-0.029817819595336914,-0.004189422354102135
1783169842267747800,4.811747802734375,0.005391192622482777,-0.03906138613820076,-0.01454698946326971
1783169842277816800,4.82181689453125,0.008381932973861694,-0.047416843473911285,-0.016959622502326965
1783169842287886800,4.831886962890625,0.005377887282520533,-0.05137776583433151,0.00815877877175808
1783169842297956900,4.841956787109375,0.006379264872521162,-0.05292026698589325,0.02056950330734253
1783169842308025900,4.85202587890625,0.007092991843819618,-0.05148961395025253,0.017597416415810585
1783169842318096000,4.862095947265625,0.010624861344695091,-0.047327760607004166,0.008467370644211769
1783169842328164900,4.872164794921875,0.00950580183416605,-0.045289911329746246,0.006327520124614239
1783169842338235000,4.88223486328125,0.0008276535081677139,-0.04175322875380516,-0.0026855545584112406
1783169842348304000,4.892303955078125,-0.012312915176153183,-0.031544264405965805,0.0012862838339060545
1783169842358374000,4.902373779296875,-0.01415169145911932,-0.013804045505821705,-0.0033568483777344227
1783169842368444000,4.91244384765625,-0.011240324005484581,-0.00505076814442873,-0.009051752276718616
1783169842378513000,4.922512939453125,-0.007681944407522678,-0.003935007378458977,0.0010484636295586824
1783169842388583000,4.9325830078125,-0.0036275486927479506,-0.006890850141644478,0.0064741214737296104
1783169842398652000,4.94265185546875,-0.008963063359260559,-0.015259936451911926,0.0047597517259418964
1783169842408722000,4.952721923828125,-0.006729737389832735,-0.011054007336497307,0.003080362221226096
1783169842418791700,4.962791748046875,-0.010266386903822422,-0.01743733137845993,-0.00033181975595653057
1783169842428861000,4.97286083984375,-0.008419484831392765,-0.0236227884888649,-0.004453594796359539
1783169842438930700,4.9829306640625,-0.0017238501459360123,-0.02758612483739853,-0.009610120207071304
1783169842449000000,4.993,0.004841107875108719,-0.027043640613555908,-0.009841283783316612
1783169842459070000,5.003070068359375,0.00400842260569334,-0.023438766598701477,-0.008042736910283566
1783169842469139000,5.013138916015625,-0.0008571725338697433,-0.022715982049703598,0.0024964571930468082
1783169842479209000,5.023208984375,-0.007185798138380051,-0.015920031815767288,0.011431596241891384
1783169842489278700,5.03327880859375,-0.006245702505111694,-0.012932497076690197,0.004102842882275581
1783169842499348000,5.043347900390625,-0.005239970050752163,-0.013575415126979351,-0.0030838053207844496
1783169842509417700,5.053417724609375,0.0037133111618459225,-0.017288394272327423,-0.0068231504410505295
1783169842519487000,5.063487060546875,0.005648407153785229,-0.024611946195364,-0.004054468125104904
1783169842529556700,5.073556640625,0.01187913864850998,-0.02882906049489975,-0.005768478848040104
1783169842539626000,5.0836259765625,0.012789435684680939,-0.031787026673555374,-0.006423220969736576
1783169842549696000,5.093696044921875,0.016783645376563072,-0.026690006256103516,0.0008719756733626127
1783169842559765800,5.103765869140625,0.011038507334887981,-0.019958974793553352,0.0071293869987130165
1783169842569835000,5.1138349609375,0.004124675411731005,-0.006097487173974514,0.0020038667134940624
1783169842579904800,5.12390478515625,-0.003139413660392165,0.009179400280117989,-0.0018956181593239307
1783169842589974000,5.13397412109375,-0.005076064728200436,0.011706206947565079,-0.004098585341125727
1783169842600043800,5.144043701171875,-0.00747713353484869,0.013119745999574661,-0.009457509964704514
1783169842610113000,5.154113037109375,-0.0055372873321175575,0.011891495436429977,-0.012004023417830467
1783169842620182800,5.164182861328125,-0.001431154552847147,0.01902359165251255,-0.016893669962882996
1783169842630252800,5.174252685546875,0.004018738400191069,0.012972356751561165,-0.013677369803190231
1783169842640322000,5.184322021484375,0.007334317080676556,0.011411198414862156,-0.013606518507003784
1783169842650391800,5.194391845703125,0.0019976086914539337,0.00448724627494812,-0.01146853156387806
1783169842660461000,5.2044609375,-0.003224727464839816,0.00008341111242771149,-0.010683007538318634
1783169842670530800,5.21453076171875,-0.007492176257073879,-0.0008297869935631752,0.0005235748831182718
1783169842680599800,5.224599853515625,-0.008212072774767876,-0.0004778606817126274,0.00989224947988987
1783169842690669800,5.234669921875,-0.008546832017600536,0.0014523984864354134,0.008315658196806908
1783169842700739800,5.24473974609375,-0.0026646216865628958,0.0028740139678120613,0.007582342717796564
1783169842710808800,5.254808837890625,0.006782676093280315,0.0030985181219875813,0.004900805652141571
1783169842720878800,5.26487890625,0.004758745431900024,-0.00010564830154180527,0.00827495101839304
1783169842730948000,5.274947998046875,-0.004926105961203575,0.00040993979200720787,0.009560725651681423
1783169842741017900,5.285017822265625,-0.003454820020124316,0.011570618487894535,0.0015382517594844103
1783169842751086800,5.2950869140625,0.00042407424189150333,0.014949104748666286,-0.001579510746523738
1783169842761156900,5.305156982421875,0.004135227762162685,0.015365304425358772,0.008520307950675488
1783169842771227000,5.315226806640625,0.0008406310225836933,0.01333517674356699,0.013116391375660896
1783169842781293800,5.3252939453125,-0.004928841255605221,0.015121625736355782,0.012170969508588314
1783169842791363800,5.33536376953125,-0.0048415036872029305,0.01675267517566681,0.020997285842895508
1783169842801432800,5.345432861328125,-0.005405547097325325,0.019354453310370445,0.022152496501803398
1783169842811502800,5.3555029296875,-0.009963546879589558,0.023385412991046906,0.016479164361953735
1783169842821571800,5.36557177734375,-0.015545433387160301,0.02511555887758732,0.0057293628342449665
1783169842831641900,5.375641845703125,-0.015213869512081146,0.023578647524118423,0.0034979002084583044
1783169842841711900,5.3857119140625,-0.012809524312615395,0.029277954250574112,0.004519014153629541
1783169842851780900,5.39578076171875,-0.012163707986474037,0.032668426632881165,-0.0016057235188782215
1783169842861850600,5.4058505859375,-0.011356379836797714,0.036014124751091,-0.005260751582682133
1783169842871918800,5.4159189453125,-0.010919622145593166,0.03236639127135277,0.007109099067747593
1783169842881989000,5.425989013671875,-0.0032787604723125696,0.02704179659485817,0.01673010364174843
1783169842892058000,5.43605810546875,0.0030939176212996244,0.02409501001238823,0.016687758266925812
1783169842902127900,5.4461279296875,0.0005685421638190746,0.018064171075820923,0.022250352427363396
1783169842912198100,5.4561982421875,0.00240505812689662,0.01908203214406967,0.021463388577103615
1783169842922267000,5.466266845703125,0.004513273015618324,0.021138004958629608,0.017086204141378403
1783169842932337200,5.476337158203125,0.005952179431915283,0.028227873146533966,0.010837629437446594
1783169842942406000,5.486406005859375,-0.001050968887284398,0.02544684335589409,0.007256696932017803
1783169842952476000,5.496475830078125,-0.0013764072209596634,0.025298506021499634,0.002829191740602255
1783169842962545000,5.506544921875,-0.002718764590099454,0.027841590344905853,0.010407053865492344
1783169842972615000,5.516614990234375,0.0018903682939708233,0.03259027376770973,0.007985974662005901
1783169842982685200,5.526685302734375,0.0008992205839604139,0.02859615534543991,0.009782380424439907
1783169842992754000,5.53675390625,-0.002084052423015237,0.02190496399998665,0.02035779319703579
1783169843002824200,5.54682421875,-0.007448515854775906,0.01922660879790783,0.02248087339103222
1783169843012893000,5.556892822265625,-0.009332168847322464,0.012091733515262604,0.01821182668209076
1783169843022963000,5.566962890625,-0.009617487899959087,0.009819830767810345,0.012758174911141396
1783169843033032000,5.577031982421875,-0.01393340714275837,0.01174289919435978,0.01274965237826109
1783169843043102000,5.58710205078125,-0.01473406795412302,0.008134822361171246,0.010454561561346054
1783169843053172200,5.597172119140625,-0.011633615009486675,0.011675761081278324,0.005275246221572161
1783169843063241000,5.607240966796875,-0.0036443122662603855,0.010878163389861584,0.002003137720748782
1783169843073311000,5.61731103515625,-0.0023241834715008736,0.007898352108895779,0.002757611218839884
1783169843083380000,5.6273798828125,-0.006687254644930363,0.003850744105875492,0.00602111779153347
1783169843093450000,5.637449951171875,-0.009309402666985989,0.006297922693192959,0.0030921732541173697
1783169843103519000,5.64751904296875,-0.012271961197257042,0.004981775302439928,0.002767278579995036
1783169843113589000,5.657589111328125,-0.009437557309865952,0.0054632751271128654,0.006750302389264107
1783169843123659000,5.667658935546875,-0.004512337036430836,0.0077629080042243,0.01418065931648016
1783169843133728000,5.67772802734375,-0.006992538459599018,0.007900061085820198,0.011345724575221539
1783169843143798000,5.687798095703125,-0.003986262250691652,0.0058032432571053505,0.004974693059921265
1783169843153867000,5.697866943359375,-0.001980103086680174,0.009002498351037502,0.0037541661877185106
1783169843163938000,5.70793798828125,0.002256439533084631,0.005902443081140518,0.004805384669452906
1783169843174007000,5.718007080078125,0.001848176820203662,0.00027038995176553726,0.006404613144695759
1783169843184077000,5.7280771484375,-0.0010201770346611738,0.001966928131878376,-0.00020206812769174576
1783169843194145800,5.738145751953125,-0.004575497470796108,0.0033427169546484947,-0.006322811357676983
1783169843204216000,5.748216064453125,0.0009579758043400943,0.007907499559223652,-0.0022730024065822363
1783169843214285000,5.75828515625,0.006681375205516815,0.010814606212079525,0.00021625403314828873
1783169843224355000,5.76835498046875,0.004502938129007816,0.017460530623793602,0.0011128038167953491
1783169843234425000,5.778425048828125,0.005018793046474457,0.014348892495036125,0.011369702406227589
1783169843244494000,5.788494140625,0.0027449135668575764,0.010317251086235046,0.0042886994779109955
1783169843254564000,5.798564208984375,0.00006630632560700178,0.006130228750407696,-0.0010389541275799274
1783169843264632800,5.8086328125,-0.001384605886414647,0.0033479458652436733,-0.00025449367240071297
1783169843274703000,5.818703125,0.0059968773275613785,-0.0012433435767889023,0.0032512915786355734
1783169843284771800,5.828771728515625,0.007076883688569069,-0.007455206476151943,0.009394967928528786
1783169843294842000,5.838842041015625,0.010196244344115257,-0.007942563854157925,0.005047357641160488
1783169843304912100,5.848912109375,0.01178063079714775,-0.00586035568267107,0.0068180151283741
1783169843314980900,5.85898095703125,0.012340693734586239,-0.002415822818875313,0.007055036723613739
1783169843325051100,5.869051025390625,0.013251243159174919,0.0027926568873226643,0.011446254327893257
1783169843335120000,5.879119873046875,0.01746622659265995,0.009227919392287731,0.01044357381761074
1783169843345190100,5.889190185546875,0.021573858335614204,0.004184684716165066,0.007637805305421352
1783169843355259000,5.8992587890625,0.029166530817747116,0.0007220427505671978,0.014819818548858166
1783169843365329200,5.9093291015625,0.034115877002477646,0.001122478861361742,0.014791764318943024
1783169843375399200,5.919399169921875,0.03082580864429474,-0.002616599202156067,0.017459720373153687
1783169843385468000,5.929468017578125,0.027926841750741005,0.004441550001502037,0.009878786280751228
1783169843395538200,5.9395380859375,0.032509610056877136,0.0038969339802861214,0.01037147082388401
1783169843405607000,5.94960693359375,0.028855040669441223,0.009854444302618504,0.02485519088804722
1783169843415677200,5.95967724609375,0.030475575476884842,0.026974309235811234,0.02708372473716736
1783169843425746000,5.969745849609375,0.02501474879682064,0.04037626460194588,0.03485196456313133
1783169843435816000,5.97981591796875,0.02212788164615631,0.05500634014606476,0.03763337433338165
1783169843445886200,5.98988623046875,0.018833298236131668,0.06405510008335114,0.03245105594396591
1783169843455955000,5.999954833984375,0.020854108035564423,0.07082245498895645,0.03058711253106594
1783169843466025200,6.010025146484375,0.02629738301038742,0.07262928783893585,0.028183933347463608
1783169843476094000,6.020093994140625,0.03997058793902397,0.07287775725126266,0.030443625524640083
1783169843486164000,6.0301640625,0.042255714535713196,0.07091858237981796,0.03154147043824196
1783169843496233000,6.04023291015625,0.04623554274439812,0.06902134418487549,0.035502124577760696
1783169843506303000,6.050302978515625,0.03989545628428459,0.0703461542725563,0.029038412496447563
1783169843516373000,6.060373046875,0.032692138105630875,0.061609119176864624,0.02841976098716259
1783169843526442000,6.07044189453125,0.023699317127466202,0.05624847859144211,0.03325802832841873
1783169843536512300,6.08051220703125,0.015621417202055454,0.05467002093791962,0.049878016114234924
1783169843546581000,6.0905810546875,0.01808515191078186,0.042413514107465744,0.05106120929121971
1783169843556651000,6.100651123046875,0.02403438836336136,0.029053498059511185,0.042718857526779175
1783169843566720000,6.110719970703125,0.023624887689948082,0.019336368888616562,0.030451416969299316
1783169843576790000,6.1207900390625,0.022211015224456787,0.010470706969499588,0.028213031589984894
1783169843586860000,6.130860107421875,0.020390629768371582,0.003207441419363022,0.02355012483894825
1783169843596929000,6.140928955078125,0.01899726316332817,-0.0024861302226781845,0.018716752529144287
1783169843606999000,6.1509990234375,0.019453270360827446,-0.003400777466595173,0.024220628663897514
1783169843617068000,6.161068115234375,0.016022851690649986,-0.0061233267188072205,0.030162673443555832
1783169843627138000,6.171137939453125,0.009059540927410126,-0.007178458385169506,0.03366392105817795
1783169843637207000,6.18120703125,0.006909038871526718,0.001611304935067892,0.030809810385107994
1783169843647277000,6.191277099609375,0.008661341853439808,0.01377075258642435,0.020257046446204185
1783169843657347000,6.20134716796875,0.013564221560955048,0.02421007677912712,0.007917022332549095
1783169843667416000,6.211416015625,0.017324130982160568,0.03392956405878067,0.006332164164632559
1783169843677485800,6.22148583984375,0.015915051102638245,0.03567846119403839,-0.0006796724628657103
1783169843687555000,6.23155517578125,0.012202374637126923,0.03409196436405182,-0.000471906503662467
1783169843697624800,6.241624755859375,0.006457936018705368,0.03556522727012634,0.003315374720841646
1783169843707694000,6.251694091796875,0.0010957765625789762,0.03619135916233063,0.005632041022181511
1783169843717763800,6.261763916015625,-0.00305209681391716,0.035808663815259933,0.015157368965446949
1783169843727834000,6.271834228515625,0.00027892738580703735,0.039763443171978,0.014441787265241146
1783169843737903000,6.281903076171875,0.005955987609922886,0.03544352948665619,0.010033989325165749
1783169843747972900,6.291972900390625,0.010891609825193882,0.03215572237968445,0.0034856111742556095
1783169843758042000,6.3020419921875,0.012467668391764164,0.023691397160291672,0.0027034408412873745
1783169843768111900,6.31211181640625,0.013783751055598259,0.016827281564474106,0.0008405868429690599
1783169843778181000,6.32218115234375,0.009566902182996273,0.008336326107382774,-0.0019117901101708412
1783169843788251000,6.3322509765625,0.010597345419228077,0.006136775948107243,0.003796599805355072
1783169843798321000,6.34232080078125,0.017543667927384377,0.008446536026895046,0.005872533656656742
1783169843808390000,6.352389892578125,0.01888008415699005,0.02148471586406231,0.001684772316366434
1783169843818460000,6.3624599609375,0.019461719319224358,0.02756417915225029,0.011674289591610432
1783169843828529200,6.372529052734375,0.02143636718392372,0.03215358406305313,0.008116453886032104
1783169843838599000,6.382598876953125,0.021949291229248047,0.0351371243596077,0.0034796237014234066
1783169843848668200,6.392668212890625,0.02057335153222084,0.03872416168451309,-0.00030101859010756016
1783169843858738000,6.402738037109375,0.018003402277827263,0.04353542625904083,0.000025484943762421608
1783169843868809000,6.41280908203125,0.018970705568790436,0.04332518205046654,0.00010517193004488945
1783169843878878000,6.4228779296875,0.02333269640803337,0.04185857996344566,0.0024191925767809153
1783169843888948000,6.432947998046875,0.024034295231103897,0.03587708994746208,0.0036606499925255775
1783169843899017200,6.443017333984375,0.03097369335591793,0.030278589576482773,0.007176555227488279
1783169843909087000,6.4530869140625,0.028889372944831848,0.020988259464502335,0.008020861074328423
1783169843919156000,6.463156005859375,0.029882466420531273,0.011348680593073368,0.010077353566884995
1783169843929226000,6.47322607421875,0.02849685400724411,0.005829285830259323,0.008467602543532848
1783169843939296000,6.4832958984375,0.0278390534222126,0.008225065656006336,-0.00013920129276812077
1783169843949365000,6.493364990234375,0.024722738191485405,0.010568671859800816,-0.002758702728897333
1783169843959435000,6.50343505859375,0.024236444383859634,0.011250707320868969,0.007099786773324013
1783169843969504000,6.51350390625,0.02204286865890026,0.012752879410982132,0.008511717431247234
1783169843979574000,6.523573974609375,0.022059913724660873,0.015131082385778427,-0.0005611402448266745
1783169843989642800,6.533642822265625,0.021816443651914597,0.012033813633024693,-0.008175907656550407
1783169843999713000,6.543713134765625,0.01774074137210846,0.00521958339959383,-0.0062874602153897285
1783169844009783000,6.553782958984375,0.014403922483325005,0.00231111329048872,-0.0049498677253723145
1783169844019852000,6.56385205078125,0.01564948260784149,0.004286912269890308,-0.001477105775848031
1783169844029922000,6.573922119140625,0.01670757122337818,0.007935846224427223,-0.007021342404186726
1783169844039990800,6.58399072265625,0.01831771992146969,0.010775575414299965,-0.007953980937600136
1783169844050061000,6.59406103515625,0.021384254097938538,0.011642471887171268,-0.0038905551191419363
1783169844060129800,6.6041298828125,0.023341145366430283,0.00533024687319994,-0.00394834578037262
1783169844070200000,6.614199951171875,0.025230970233678818,0.004658207762986422,-0.003035355359315872
1783169844080270000,6.62427001953125,0.02524827979505062,-0.0014460235834121704,0.00002541579306125641
1783169844090339000,6.634339111328125,0.025082040578126907,0.00020938459783792496,0.00663113035261631
1783169844100409000,6.6444091796875,0.022543249651789665,0.0031164907850325108,0.0032467851415276527
1783169844110477800,6.654477783203125,0.014146302826702595,-0.0006649317219853401,0.006224465556442738
1783169844120548000,6.664548095703125,0.010593113489449024,0.0013529453426599503,0.009140626527369022
1783169844130616800,6.674616943359375,0.0042273299768567085,0.011885741725564003,0.00794154405593872
1783169844140687000,6.68468701171875,0.005717901512980461,0.028493747115135193,0.0009454195387661457
1783169844150757000,6.694757080078125,0.005221976898610592,0.045963406562805176,-0.0069226836785674095
1783169844160825900,6.704825927734375,0.01056321244686842,0.061720266938209534,-0.014582734555006027
1783169844170896100,6.714896240234375,0.015070799738168716,0.0732886791229248,-0.014632102102041245
1783169844180964900,6.72496484375,0.022360138595104218,0.07810287922620773,-0.01520681194961071
1783169844191035100,6.73503515625,0.015712730586528778,0.06570542603731155,-0.016128037124872208
1783169844201104000,6.745103759765625,0.017274409532546997,0.054765161126852036,-0.005904162302613258
1783169844211174000,6.755173828125,0.016519667580723763,0.045326121151447296,-0.006773950532078743
1783169844221244200,6.765244140625,0.01012887991964817,0.030746113508939743,0.0017444365657866001
1783169844231313000,6.77531298828125,0.006588207557797432,0.01869823783636093,0.0017244627233594656
1783169844241383200,6.785383056640625,0.004205211065709591,0.009040550328791142,0.0007619962561875582
1783169844251452000,6.795451904296875,0.004980104975402355,0.0009453208185732365,0.003601337783038616
1783169844261522200,6.805522216796875,0.009737309999763966,-0.0028741853311657906,-0.001933509949594736
1783169844271591000,6.8155908203125,0.010521610267460346,-0.00524519756436348,-0.002984127029776573
1783169844281661000,6.825660888671875,0.01422047521919012,-0.0011758869513869286,-0.0014232485555112362
1783169844291731000,6.83573095703125,0.017225613817572594,0.005899605806916952,-0.004208252299576998
1783169844301800000,6.845800048828125,0.016022665426135063,0.01588725857436657,0.003536486066877842
1783169844311870000,6.855869873046875,0.012193240225315094,0.022042933851480484,0.005531826056540012
1783169844321939000,6.86593896484375,0.009681879542768002,0.026966053992509842,0.0024327056016772985
1783169844332009000,6.876009033203125,0.004368540830910206,0.033271413296461105,-0.0022645958233624697
1783169844342078000,6.886077880859375,0.006292941048741341,0.039583370089530945,0.00011440622620284557
1783169844352148000,6.89614794921875,0.0041470034047961235,0.04207389056682587,-0.0019528490956872702
1783169844362218000,6.906218017578125,0.0035025181714445353,0.04552268981933594,0.0009526594076305628
1783169844372287000,6.916286865234375,0.0026748578529804945,0.050467997789382935,-0.0035550398752093315
1783169844382357000,6.92635693359375,0.006331644486635923,0.046315327286720276,-0.004205650184303522
1783169844392426000,6.936426025390625,0.002346857450902462,0.04148184880614281,-0.0028300751000642776
1783169844402495700,6.946495849609375,-0.00515340268611908,0.03462580591440201,0.0008373637683689594
1783169844412565000,6.95656494140625,-0.008643979206681252,0.026659764349460602,0.0006926166824996471
1783169844422635000,6.966635009765625,-0.0063344864174723625,0.023561442270874977,-0.0035838873591274023
1783169844432705000,6.976705078125,-0.003948754630982876,0.017042705789208412,-0.0010491698049008846
1783169844442774000,6.98677392578125,-0.004038502462208271,0.015911661088466644,0.002116529969498515
1783169844452844000,6.996843994140625,0.004226336255669594,0.012261928990483284,0.0009344217833131552
1783169844462913000,7.0069130859375,0.0022808972280472517,0.015633758157491684,-0.0045793866738677025
1783169844472982800,7.016982666015625,-0.0010033128783106804,0.016059864312410355,-0.004877394996583462
1783169844483052000,7.027052001953125,-0.002753808628767729,0.0166873037815094,-0.0029505977872759104
1783169844493121800,7.037121826171875,-0.004447176121175289,0.016210969537496567,0.0017784645315259695
1783169844503192000,7.047192138671875,-0.01016631443053484,0.01917560026049614,-0.0015273175667971373
1783169844513261000,7.057260986328125,-0.012861981056630611,0.019966956228017807,-0.010298369452357292
1783169844523330800,7.067330810546875,-0.012376486323773861,0.015566347166895866,-0.008018171414732933
1783169844533400000,7.077400146484375,-0.00886433757841587,0.01677914336323738,-0.012573637068271637
1783169844543469800,7.0874697265625,-0.013622075319290161,0.008331065066158772,-0.008720576763153076
1783169844553539000,7.0975390625,-0.016962166875600815,0.00282645458355546,-0.009925063699483871
1783169844563608800,7.10760888671875,-0.013320828787982464,-0.009410769678652287,-0.002945450833067298
1783169844573678800,7.117678955078125,-0.01573270931839943,-0.010400103405117989,-0.00675073079764843
1783169844583747800,7.127747802734375,-0.01729811541736126,-0.009606216102838516,-0.00621170736849308
1783169844593817900,7.13781787109375,-0.019810684025287628,-0.010922913439571857,-0.0021933738607913256
1783169844603887000,7.14788720703125,-0.019125986844301224,-0.005991005338728428,-0.004679967649281025
1783169844613956900,7.157956787109375,-0.01981305330991745,-0.005689263343811035,-0.0043008700013160706
1783169844624026000,7.168026123046875,-0.01854485645890236,-0.009923956356942654,-0.004234824329614639
1783169844634095900,7.178095947265625,-0.013678506016731262,-0.018072837963700294,-0.006763555575162172
1783169844644166000,7.188165771484375,-0.017344612628221512,-0.026512129232287407,0.004194020759314299
1783169844654235000,7.19823486328125,-0.018756743520498276,-0.033822208642959595,0.006560349836945534
1783169844664305000,7.208304931640625,-0.016032062470912933,-0.03753998130559921,-0.0004847769159823656
1783169844674374000,7.218373779296875,-0.010934549383819103,-0.020689239725470543,-0.0034718376118689775
1783169844684444000,7.22844384765625,-0.011443479917943478,-0.014520559459924698,-0.0029639725107699633
1783169844694513200,7.23851318359375,-0.010431444272398949,-0.009141822345554829,-0.002158335642889142
1783169844704583000,7.2485830078125,-0.005070501007139683,0.003421106841415167,-0.003458224469795823
1783169844714653000,7.25865283203125,-0.005664579104632139,0.008600837551057339,-0.005067114718258381
1783169844724722000,7.268721923828125,-0.005442738067358732,0.014694416895508766,-0.006115601398050785
1783169844734792000,7.2787919921875,-0.006324346177279949,0.01914972998201847,-0.005492476746439934
1783169844744861000,7.28886083984375,-0.011154255829751492,0.021049097180366516,-0.00956338457763195
1783169844754931000,7.298930908203125,-0.011926800012588501,0.015811391174793243,-0.008374923840165138
1783169844765000000,7.309,-0.014417123049497604,0.029005490243434906,-0.011677510105073452
1783169844775070000,7.319070068359375,-0.01508351694792509,0.031088197603821754,-0.012490227818489075
1783169844785139200,7.32913916015625,-0.022719865664839745,0.020916787907481194,-0.003912718966603279
1783169844795209000,7.339208984375,-0.023380164057016373,0.0203336663544178,-0.0045300922356545925
1783169844805279000,7.349279052734375,-0.022690672427415848,0.005719303153455257,-0.013027973473072052
1783169844815348000,7.359347900390625,-0.01444373931735754,-0.00484261941164732,-0.005112088285386562
1783169844825418000,7.36941796875,-0.007404206320643425,-0.01629660837352276,0.00253065163269639
1783169844835487000,7.379487060546875,-0.009119604714214802,-0.021968888118863106,0.0034840728621929884
1783169844845557000,7.389556884765625,-0.015714123845100403,-0.018850592896342278,0.006698774639517069
1783169844855627000,7.399626953125,-0.015597197227180004,-0.007212442345917225,0.0012338992673903704
1783169844865696000,7.409696044921875,-0.015949001535773277,-0.006872090511023998,0.0003143097274005413
1783169844875765500,7.419765625,-0.015474412590265274,-0.0024314001202583313,0.00595561508089304
1783169844885834500,7.42983447265625,-0.012763313949108124,-0.0039544617757201195,0.007811572402715683
1783169844895904500,7.439904541015625,-0.011769674718379974,-0.0005955463275313377,0.006241302937269211
1783169844905973500,7.449973388671875,-0.014414992183446884,0.005454623140394688,-0.0010469702538102865
1783169844916043500,7.46004345703125,-0.015922866761684418,0.00951455533504486,-0.009571312926709652
1783169844926112500,7.470112548828125,-0.003584708785638213,0.013188652694225311,-0.009899680502712727
1783169844936182500,7.4801826171875,0.0010067548137158155,0.016259847208857536,-0.008794491179287434
1783169844946252500,7.49025244140625,0.003180160652846098,0.016424164175987244,-0.007273825816810131
1783169844956321500,7.500321533203125,-0.005513670854270458,0.022219747304916382,-0.004843967035412788
1783169844966391600,7.5103916015625,-0.007051113992929459,0.027644339948892593,-0.003485488472506404
1783169844976460500,7.52046044921875,-0.010599538683891296,0.029916543513536453,-0.003647803096100688
1783169844986530600,7.530530517578125,-0.011958017013967037,0.033003948628902435,-0.0029732242692261934
1783169844996599600,7.540599609375,-0.009161431342363358,0.033589839935302734,-0.0025580378714948893
1783169845006669600,7.550669677734375,-0.005229540169239044,0.02960415557026863,-0.002279470907524228
1783169845016739600,7.560739501953125,-0.0018064577598124743,0.02674122527241707,-0.00569455511868
1783169845026808600,7.57080859375,0.00009290874004364014,0.022989897057414055,-0.010279719717800617
1783169845036878600,7.580878662109375,0.004712025634944439,0.01667943224310875,-0.009189506061375141
1783169845046947600,7.590947509765625,0.010356862097978592,0.006983128841966391,-0.007958593778312206
1783169845057017600,7.601017578125,0.008837707340717316,-0.003002679906785488,0.0017527691088616848
1783169845067086300,7.61108642578125,0.008574321866035461,-0.008918891660869122,0.005356292240321636
1783169845077156600,7.621156494140625,0.009004903957247734,-0.0063447654247283936,0.00634648697450757
1783169845087226600,7.6312265625,0.011240361258387566,-0.00358546432107687,0.0055270325392484665
1783169845097295600,7.641295654296875,0.008911879733204842,0.002718694042414427,-0.00028846203349530697
1783169845107365600,7.65136572265625,0.009277798235416412,-0.0015090741217136383,-0.003494375618174672
1783169845117434600,7.6614345703125,0.009738950058817863,-0.0033925585448741913,-0.003649590304121375
1783169845127504600,7.671504638671875,0.008184995502233505,-0.007155072875320911,-0.0037587799597531557
1783169845137573400,7.681573486328125,0.013714279979467392,-0.011478709988296032,-0.0013391685206443071
1783169845147643600,7.6916435546875,0.013270064257085323,-0.013662767596542835,0.002397512551397085
1783169845157713400,7.70171337890625,0.012334820814430714,-0.015229759737849236,0.004784228280186653
1783169845167782700,7.71178271484375,0.009358471259474754,-0.008121250197291374,0.007511038798838854
1783169845177852700,7.721852783203125,0.0033199333120137453,0.0048243580386042595,0.009000157937407494
1783169845187921400,7.73192138671875,0.0016490661073476076,0.012781350873410702,0.0006490177474915981
1783169845197991700,7.74199169921875,0.004938364960253239,0.01930796541273594,-0.004280097782611847
1783169845208060400,7.752060302734375,0.0039820242673158646,0.014422662556171417,-0.0031754181254655123
1783169845218130700,7.762130615234375,0.005288425832986832,0.009447313845157623,-0.0051438757218420506
1783169845228200400,7.772200439453125,0.0017054090276360512,0.00410128477960825,-0.00679503520950675
1783169845238269400,7.78226953125,0.00011240749154239893,-0.002408125437796116,-0.0026412485167384148
1783169845248339500,7.79233935546875,0.003937772009521723,-0.0016805492341518402,-0.008246669545769691
1783169845258408400,7.802408447265625,0.003386202733963728,-0.007255883887410164,-0.008304324001073837
1783169845268478700,7.812478759765625,0.003907649777829647,-0.014308200217783451,-0.004857394378632307
1783169845278547500,7.82254736328125,0.002762087620794773,-0.014928024262189865,-0.009578998200595379
1783169845288617700,7.83261767578125,0.002334117889404297,-0.015630299225449562,-0.004963473416864872
1783169845298687500,7.8426875,0.00008173787500709295,-0.009823840111494064,-0.013432970270514488
1783169845308756500,7.852756591796875,-0.0021422680001705885,-0.005910858511924744,-0.023163629695773125
1783169845318826500,7.862826416015625,-0.003224634798243642,-0.006414473056793213,-0.019956642761826515
1783169845328895500,7.8728955078125,0.0019331093644723296,-0.012436412274837494,-0.013620451092720032
1783169845338965500,7.882965576171875,0.00393148185685277,-0.01711980439722538,-0.009862092323601246
1783169845349034500,7.893034423828125,0.0068668182939291,-0.015820449218153954,-0.010050910525023937
1783169845359104500,7.9031044921875,0.0033157789148390293,-0.012091144919395447,-0.007966621778905392
1783169845369173500,7.913173583984375,0.001291776541620493,-0.0031951209530234337,-0.013586425222456455
1783169845379243500,7.923243408203125,-0.002309989184141159,-0.001321418210864067,-0.01096289698034525
1783169845389313500,7.9333134765625,-0.0024074609391391277,0.0023766467347741127,-0.014297974295914173
1783169845399382500,7.943382568359375,-0.007162858732044697,0.0032280455343425274,-0.011169817298650742
1783169845409452500,7.95345263671875,-0.007228905335068703,0.0060746981762349606,-0.011075008660554886
1783169845419521500,7.963521484375,-0.0107810590416193,0.009680080227553844,-0.015012887306511402
1783169845429591300,7.97359130859375,-0.007367951795458794,0.007651816587895155,-0.01355613861232996
1783169845439660500,7.98366064453125,-0.004314787685871124,-0.0006716018542647362,-0.014176670461893082
1783169845449730600,7.99373046875,-0.002854044083505869,-0.008406220935285091,-0.010842659510672092
1783169845459800600,8.003800537109376,-0.000015632715076208115,-0.014833624474704266,-0.009302888065576553
1783169845469869600,8.01386962890625,-0.0016638629604130983,-0.015139355324208736,-0.0013397703878581524
1783169845479939600,8.023939697265625,-0.0037235035561025143,-0.01569187268614769,0.00259261392056942
1783169845490008600,8.034008544921875,-0.0054633463732898235,-0.013478520326316357,-0.004881814122200012
1783169845500078300,8.044078369140625,-0.008604312315583229,-0.01346408948302269,-0.0088555458933115
1783169845510147600,8.054147705078124,-0.00662505067884922,-0.008263468742370605,-0.009679527953267097
1783169845520217300,8.06421728515625,-0.00415202509611845,-0.00747184082865715,-0.005614015273749828
1783169845530287600,8.07428759765625,-0.002300063380971551,-0.006444660015404224,-0.004646222107112408
1783169845540356600,8.084356689453125,-0.0050770859234035015,-0.006180505268275738,-0.00010804249905049801
1783169845550426400,8.09442626953125,-0.004527409560978413,-0.0059988778084516525,-0.0006715671624988317
1783169845560495600,8.10449560546875,-0.008081130683422089,0.0005413135513663292,-0.003271345281973481
1783169845570565400,8.1145654296875,-0.004388392437249422,0.0017101750709116459,-0.0028071559499949217
1783169845580634600,8.124634521484374,-0.004032255616039038,-0.0013323379680514336,-0.0010868303943425417
1783169845590704400,8.134704345703126,-0.009619567543268204,-0.0015943925827741623,-0.005247754044830799
1783169845600774400,8.1447744140625,-0.011743850074708462,-0.0015020128339529037,-0.005246537737548351
1783169845610843400,8.154843505859375,-0.010380844585597515,-0.0026362529024481773,-0.00223530107177794
1783169845620913400,8.164913330078125,-0.010733713395893574,-0.007593461312353611,0.0027999377343803644
1783169845630982700,8.174982666015625,-0.014856020919978619,-0.005518059246242046,0.0027197767049074173
1783169845641052400,8.185052490234375,-0.014693714678287506,-0.0033028731122612953,0.0011627706699073315
1783169845651121700,8.19512158203125,-0.01573687419295311,-0.0019361386075615883,0.0031287160236388445
1783169845661191400,8.20519140625,-0.013033337891101837,0.004749893676489592,-0.0006894043181091547
1783169845671260700,8.2152607421875,-0.013619765639305115,0.000940774567425251,0.0006874499376863241
1783169845681330400,8.225330322265625,-0.012034340761601925,0.0036554215475916862,-0.005054641515016556
1783169845691400400,8.235400390625,-0.0099632004275918,0.0020266324281692505,0.0012700995430350304
1783169845701469400,8.245469482421875,-0.004977290518581867,0.0011382452212274075,0.0038446958642452955
1783169845711539500,8.25553955078125,-0.005343475379049778,-0.004532956518232822,0.003592228051275015
1783169845721608400,8.2656083984375,-0.003072524443268776,-0.011138246394693851,0.005253965966403484
1783169845731678500,8.275678466796874,-0.005165236536413431,-0.009757130406796932,0.011461794376373291
1783169845741747700,8.285747802734376,-0.00999442022293806,-0.009850756265223026,0.010488217696547508
1783169845751817500,8.2958173828125,-0.014584644697606564,-0.010246234945952892,0.0037371041253209114
1783169845761887500,8.305887451171875,-0.016042783856391907,-0.009136775508522987,0.0009077666327357292
1783169845771956500,8.31595654296875,-0.016652381047606468,-0.005673334002494812,-0.0024797741789370775
1783169845782026500,8.326026611328125,-0.015476700849831104,-0.006130964495241642,0.00325539312325418
1783169845792095500,8.336095458984374,-0.013729400001466274,-0.010640229098498821,-0.0021060826256871223
1783169845802165500,8.34616552734375,-0.014977429993450642,-0.012994877994060516,-0.0022665965370833874
1783169845812234500,8.356234375,-0.011610396206378937,-0.016282550990581512,-0.002623459789901972
1783169845822304500,8.366304443359375,-0.005816481541842222,-0.024494420737028122,0.003095152322202921
1783169845832374500,8.37637451171875,-0.004247613716870546,-0.02322196215391159,0.005221419967710972
1783169845842443500,8.386443603515625,-0.0031086676754057407,-0.026082748547196388,0.011460813693702221
1783169845852513500,8.396513427734375,-0.0028548683039844036,-0.022560983896255493,0.009544935077428818
1783169845862582500,8.40658251953125,-0.005882455036044121,-0.021192749962210655,0.003332099411636591
1783169845872652300,8.41665234375,-0.009495032951235771,-0.0146592166274786,-0.0013782333116978407
1783169845882721300,8.42672119140625,-0.007609839551150799,-0.013206742703914642,-0.001128156902268529
1783169845892791300,8.436791259765625,-0.007730480283498764,-0.012429632246494293,-0.0030970319639891386
1783169845902861000,8.446861083984375,-0.006104223895817995,-0.006184890866279602,-0.005031101405620575
1783169845912930300,8.456930419921875,-0.0034948582760989666,-0.00006201770156621933,-0.009194953367114067
1783169845923000300,8.467000244140625,-0.0011312116403132677,0.008271509781479836,-0.008595190942287445
1783169845933069300,8.4770693359375,0.0015764242270961404,0.014933140948414803,-0.010753949172794819
1783169845943139300,8.487139404296874,0.00028005579952150583,0.0176495760679245,-0.007926476188004017
1783169845953208300,8.497208251953126,0.0018862083088606596,0.02138599194586277,-0.005512586794793606
1783169845963278300,8.5072783203125,0.002578242914751172,0.020703721791505814,-0.009771132841706276
1783169845973347000,8.51734716796875,0.006908809300512075,0.021215315908193588,-0.015254315920174122
1783169845983417300,8.527417236328125,0.005076331086456776,0.011546052061021328,-0.018403442576527596
1783169845993487000,8.537487060546875,0.0008983641746453941,0.008541207760572433,-0.009033909067511559
1783169846003556400,8.547556396484374,-0.0052236029878258705,0.0006977645680308342,-0.004584079142659903
1783169846013626400,8.55762646484375,-0.0022171607706695795,-0.0013456782326102257,-0.0058698528446257114
1783169846023695000,8.567695068359376,-0.0032990293111652136,0.0009071268141269684,-0.004185426980257034
1783169846033765400,8.577765380859375,-0.0021450817584991455,0.000744940247386694,-0.005190237425267696
1783169846043834000,8.587834228515625,0.0030492546502500772,-0.0013490049168467522,-0.008893407881259918
1783169846053904400,8.597904296875,0.006351574324071407,-0.006187436170876026,-0.004533280618488789
1783169846063974100,8.60797412109375,0.005969778634607792,-0.006550269201397896,-0.006258157081902027
1783169846074043400,8.61804345703125,0.0014037889195606112,-0.008262149058282375,-0.01156770158559084
1783169846084113200,8.628113037109374,0.00521006528288126,-0.0035552605986595154,-0.013546841219067574
1783169846094182100,8.63818212890625,0.0036555782426148653,-0.007197133265435696,-0.01539667323231697
1783169846104252400,8.64825244140625,0.0020150321070104837,-0.014321818947792053,-0.03084663115441799
1783169846114321200,8.658321044921875,0.00341478968039155,-0.022290796041488647,-0.03807605057954788
1783169846124391400,8.668391357421875,-0.004533059895038605,-0.028916724026203156,-0.046750105917453766
1783169846134461200,8.678461181640625,-0.007594363763928413,-0.02888849377632141,-0.06212666630744934
1783169846144530200,8.6885302734375,-0.010542127303779125,-0.01861645095050335,-0.09416474401950836
1783169846154600200,8.69860009765625,-0.019248800352215767,-0.042184628546237946,-0.05011579766869545
1783169846164669200,8.708669189453126,-0.013038190081715584,-0.028462933376431465,-0.029693085700273514
1783169846174739200,8.7187392578125,-0.008216004818677902,-0.023582955822348595,-0.007417608983814716
1783169846184808200,8.72880810546875,0.0046629225835204124,-0.017920244485139847,0.0005123370792716742
1783169846194878500,8.73887841796875,0.012574109248816967,0.002406330779194832,-0.008250793442130089
1783169846204947200,8.748947265625,0.019428018480539322,0.000505632720887661,-0.008116038516163826
1783169846215017200,8.759017333984374,0.015793336555361748,0.014150071889162064,-0.015428280457854271
1783169846225087200,8.769087158203124,0.009191999211907387,0.0036938022822141647,-0.007396236062049866
1783169846235156200,8.77915625,0.003779124701395631,0.0029513128101825714,-0.0066382996737957
1783169846245226200,8.789226318359376,0.00004969246219843626,-0.0012503443285822868,-0.006669198162853718
1783169846255295200,8.799295166015625,0.0008443796541541815,-0.004160646349191666,-0.0011271594557911158
1783169846265365200,8.809365234375,0.0006668199202977121,0.0033437577076256275,-0.003911568783223629
1783169846275434200,8.819434326171875,0.002177364891394973,0.00691026309505105,-0.006870340555906296
1783169846285504300,8.829504150390624,0.009009098634123802,0.01778246834874153,-0.015845386311411858
1783169846295574300,8.83957421875,0.011270655319094658,0.023522380739450455,0.00839284248650074
1783169846305643300,8.849643310546876,0.009014454670250416,0.028895847499370575,0.035449620336294174
1783169846315713300,8.85971337890625,0.011302642524242401,0.029931284487247467,0.03331776335835457
