time,seconds_elapsed,z,y,x
1783174328570792000,0.0817919921875,-0.16700258005857466,0.7367682146400213,-0.4131794537927955
1783174328580860000,0.09185986328125,-0.1617763698428869,0.7765098579198122,-0.46043863309584554
1783174328590929200,0.10192919921875,-0.04384264885783195,0.8626444190621375,-0.5331075999980792
1783174328600998000,0.111997802734375,0.2434483986184001,0.8484960667222737,-0.5459655472012236
1783174328611065900,0.12206591796875,0.4492676160663366,0.7856330755740404,-0.3820929357314482
1783174328621135000,0.132135009765625,0.4167980096161365,0.7260474986612796,-0.2812448261145502
1783174328631202800,0.142202880859375,0.035660511445999146,0.6886088716268539,-0.46470103978067634
1783174328641271800,0.152271728515625,-0.2551931969478726,0.8314210132807492,-0.5844648257371038
1783174328651340000,0.162340087890625,-0.29330636224299667,0.8673995046347379,-0.5377260170463473
1783174328661409000,0.172408935546875,-0.27659312785118817,0.858538737308979,-0.4970213374206796
1783174328671478000,0.18247802734375,-0.13796616292744873,0.8455418930917977,-0.5191464773260057
1783174328681546000,0.1925458984375,-0.08054010213613509,0.7314210083931684,-0.5965414863694459
1783174328691615000,0.202614990234375,-0.2300514491677284,0.5680237593501806,-0.8740640040252358
1783174328701683000,0.212682861328125,-0.4555526876851916,0.478793570280075,-1.143873097759485
1783174328711752000,0.222751953125,-0.23576076672524213,0.371520359519124,-1.1700124052096157
1783174328721820000,0.23281982421875,-0.1240799686551094,0.22018121253848075,-1.0481778043285013
1783174328731889000,0.242888916015625,-0.3814502173811197,-0.02656827345192432,-0.9125734751615673
1783174328741958000,0.2529580078125,-0.7528101256415247,-0.18480594777464865,-0.8927179241560399
1783174328752025900,0.26302587890625,-0.8444570204645395,-0.34609482636153693,-0.6646640054810792
1783174328762094800,0.2730947265625,-0.6141857910662889,-0.5038882640480995,-0.42623380035087466
1783174328772162800,0.283162841796875,-0.35544016233384607,-0.5244686952620744,-0.34803430652413514
1783174328782232000,0.293232177734375,0.04451894068419933,-0.4622504317581653,-0.29035598800480367
1783174328792301000,0.303301025390625,0.1966506993472576,-0.4630220006525516,-0.26569427882656454
1783174328802368800,0.31336865234375,0.13811346244364975,-0.46347383607327935,-0.2994259776344523
1783174328812438000,0.32343798828125,-0.039111820943653584,-0.3664619070857763,-0.4186895955163985
1783174328822506000,0.333506103515625,-0.27031390145123,-0.1881207714110613,-0.33741368991900234
1783174328832574700,0.34357470703125,-0.24827859525382517,-0.024225509718060492,-0.08872994793038814
1783174328842643000,0.353642822265625,0.0001309329032897949,0.1435866331577301,0.06591591244544834
1783174328852712000,0.3637119140625,0.24884908861815927,0.15146189657747744,0.38873942454122007
1783174328862781000,0.373781005859375,-0.04064326829463243,0.19692659367918966,0.5097123305590823
1783174328872849000,0.383848876953125,-0.4146586594998836,0.4363409144759178,0.2559102043771185
1783174328882918000,0.39391796875,-0.4732008648395538,0.4536170434474945,0.05126098055662587
1783174328892986000,0.403986083984375,-0.3885749546945095,0.1741770017325878,0.030655816760193556
1783174328903054800,0.414054931640625,-0.3447062946125865,-0.2899702035576105,0.019734299246035515
1783174328913122800,0.424122802734375,-0.26537030756920577,-0.5558452457785606,-0.10086140748988837
1783174328923192000,0.434192138671875,-0.2563438282877207,-0.4534077846109867,-0.22938334064781665
1783174328933260800,0.4442607421875,-0.2453773208543658,-0.10277940647304057,-0.29023961334982884
1783174328943328800,0.454328857421875,-0.08392302257269621,0.13308277480006217,-0.23069425884960218
1783174328953398000,0.46439794921875,0.1560603302836418,0.1399345403909683,-0.08297702869316563
1783174328963466000,0.474466064453125,0.10645312654972076,0.011771101814508437,-0.12926191047080793
1783174328973535000,0.484534912109375,-0.14632102655768395,-0.1445060860902071,-0.32708562651965767
1783174328983603000,0.49460302734375,-0.048347851322591305,-0.2040922475248575,-0.3196153271716088
1783174328993672000,0.504671875,0.19775193858742712,-0.180237909206748,-0.20515730120679362
1783174329003741000,0.514740966796875,0.5064566532313823,-0.1418219615727663,-0.06573616283121518
1783174329013809000,0.524808837890625,0.6206883048281073,-0.12016893269121647,-0.05194103067608084
1783174329023878000,0.5348779296875,0.45441900748014447,-0.08970423632264136,-0.15639286843994632
1783174329033946000,0.544946044921875,0.10381430247873068,-0.08427987318634986,-0.34251473938506094
1783174329044014800,0.555014892578125,-0.23406565324515102,-0.22151450696885586,-0.41181886949669566
1783174329054084000,0.565083984375,-0.15684914257377386,-0.44598903278708457,-0.18126180889438837
1783174329064152000,0.575152099609375,0.21022212858200073,-0.48560383481681346,-0.020289133816934188
1783174329074220800,0.585220703125,0.7082184119820595,-0.5139683440357447,-0.09299423604505136
1783174329084288800,0.595288818359375,0.8972998451188207,-0.5635270324528217,-0.19581169123984873
1783174329094358000,0.60535791015625,0.6629618046730756,-0.48606911424100396,-0.09558482792698778
1783174329104426000,0.615426025390625,0.2545814947903156,-0.3074696198910475,-0.04590040337154642
1783174329114495000,0.625494873046875,-0.0037339258313179016,-0.08276537697017192,-0.2567859642983414
1783174329124564000,0.63556396484375,-0.15836276200711727,0.06860591871440411,-0.5946822318362072
1783174329134632000,0.6456318359375,-0.14465221656262875,0.05630290198028087,-0.6986512499526143
1783174329144701000,0.655700927734375,0.16414426801800727,-0.009724690678715705,-0.5276390689264983
1783174329154769000,0.665768798828125,0.49693186903893943,-0.13265548929870127,-0.1338213912729174
1783174329164838000,0.675837890625,0.5587313226088881,-0.17951660919487475,0.07574873967375606
1783174329174906000,0.685906005859375,0.5678782133996486,-0.2293020921051502,0.22847853729519993
1783174329184974800,0.695974853515625,0.48495296969264745,-0.16968728909790515,0.22985070243123917
1783174329195044000,0.706044189453125,0.4163116874039173,-0.05341127219200134,0.06668412033896892
1783174329205112000,0.716112060546875,0.4773001168519258,0.17443243779838083,-0.08818762121461331
1783174329215180800,0.726180908203125,0.5627446499034762,0.4166676612347364,-0.24049780518449843
1783174329225249000,0.7362490234375,0.3759443134412169,0.5669605140328406,-0.4288933749489486
1783174329235318000,0.746318115234375,-0.12951952936053276,0.688200290825963,-0.25516070118406786
1783174329245386000,0.756385986328125,-0.5284262007161975,0.6230418822169304,-0.027228929317742585
1783174329255454500,0.766454345703125,-0.5747773252636194,0.4388572812110185,-0.08177632940020411
1783174329265523700,0.776523681640625,-0.20345336509943007,0.27302959015071393,-0.05255180581845343
1783174329275591700,0.786591796875,0.2547454531803727,0.0465332031160593,-0.02761546268360689
1783174329285660400,0.796660400390625,0.675320350986719,-0.147546184438467,-0.1366476824737154
1783174329295728600,0.806728759765625,0.6923486426770686,-0.09448153372704982,0.20741525446772574
1783174329305797600,0.816797607421875,0.25976035873293873,-0.10975742879211901,0.45654863991998135
1783174329315865600,0.826865478515625,-0.06921177565306424,0.011114683732390404,0.24017118531232698
1783174329325934600,0.8369345703125,-0.23445172995328903,0.20876900716423988,-0.025518727866373953
1783174329336003600,0.847003662109375,-0.22247370738983152,0.2014958012908697,-0.19428921264661475
1783174329346071800,0.85707177734375,-0.2679723067611456,0.12197335176467895,-0.21916803517425432
1783174329356140500,0.867140625,-0.2988753945469856,0.039112113204598425,-0.30417603997206316
1783174329366208500,0.87720849609375,-0.13069208027124404,-0.02017126589119434,-0.46834809104613956
1783174329376277800,0.88727783203125,0.5574406982764601,-0.33138124135434627,-0.6930109790433198
1783174329386345700,0.897345703125,0.28696780687123535,-0.3536497717857361,-0.5407577859576791
1783174329396414500,0.90741455078125,0.19925883601903915,-0.2907008559197187,-0.2249737257783301
1783174329406483700,0.917483642578125,0.08131400911808014,-0.03402151206731796,0.08435339508028701
1783174329416551700,0.9275517578125,0.02985007160156965,0.11604220815002918,0.07253578724293037
1783174329426620700,0.93762060546875,0.01950695676356554,0.29717385132610796,0.02830107032759115
1783174329436688600,0.947688720703125,-0.11504968998134135,0.35455636523663997,0.004327918802248314
1783174329446757600,0.957757568359375,-0.20642244403809307,0.29974983929395677,-0.05992893785717897
1783174329456826600,0.96782666015625,0.008050912247598171,-0.005885550907254219,-0.09208777959146536
1783174329466894600,0.97789453125,0.4151566721498966,-0.14402502457499503,-0.05190115075684152
1783174329476963600,0.987963623046875,0.2914350154131651,0.024036124625802038,-0.48000681852735577
1783174329487031800,0.99803173828125,-0.2650400527015328,-0.04822247137725353,-0.6032474137488752
1783174329497100500,1.0081005859375,-0.6937976724416017,0.1858066492497921,-0.17694138841200618
1783174329507168500,1.01816845703125,-0.6152534202978015,0.2008247701615095,-0.007635161920404061
1783174329517237800,1.02823779296875,-0.16178659897595643,0.2287444582223892,0.05444814095906913
1783174329527306500,1.038306396484375,0.21933599388599395,0.3273264130055904,0.09072156013902276
1783174329537374500,1.04837451171875,0.1944587422609329,0.25775954030454157,0.13633315489813685
1783174329547443700,1.058443603515625,0.057661915373802185,0.18920330595076082,0.04780013604564592
1783174329557511700,1.06851171875,0.0053331777215003965,0.12756255007386208,-0.1839988691754639
1783174329567580700,1.07858056640625,0.17816753267347812,-0.004733458262681961,-0.32481673173960296
1783174329577648600,1.088648681640625,0.16694062073826788,-0.048510640668869016,-0.14405260670166462
1783174329587717600,1.098717529296875,-0.01873626465201378,-0.04117605999708175,-0.013360727359820157
1783174329597786600,1.10878662109375,-0.16363894884437322,0.026774609678983687,-0.1076994094169233
1783174329607854600,1.1188544921875,-0.176623518101871,0.10173135872483254,-0.1720775087026879
1783174329617923600,1.128923583984375,-0.16595073291808365,0.16003566365540026,-0.12926721683358772
1783174329627991600,1.138991455078125,-0.13654811282306908,0.09371697909533977,-0.11488264458505436
1783174329638060500,1.149060546875,-0.06064239248931408,-0.013355740657448769,-0.08272518195710145
1783174329648128500,1.15912841796875,-0.1026607485294342,0.03310322817862034,-0.0777390093086753
1783174329658197800,1.16919775390625,-0.23271745350658893,0.04219605069458485,-0.11587746430868283
1783174329668266500,1.1792666015625,-0.1642383760422468,0.02348492048382759,-0.13950931898253038
1783174329678334700,1.189334716796875,0.0018538111731410025,-0.011077858853340148,-0.05462037855370436
1783174329688403700,1.19940380859375,0.060301616227626795,-0.008843231669068335,-0.014630792961409315
1783174329698471400,1.209471435546875,-0.04436813403666019,0.026694530180096626,-0.0220350778685417
1783174329708540700,1.219540771484375,-0.10538929671049117,0.053499534997344014,-0.10154348973622546
1783174329718608600,1.229608642578125,-0.22952187233567237,0.06645429363846779,-0.22952969031594692
1783174329728677600,1.239677734375,-0.35567981630861756,0.022283143478631973,-0.2672541850870475
1783174329738746600,1.24974658203125,-0.3267597190335393,0.03121288438737392,-0.26503939511440694
1783174329748814600,1.259814697265625,-0.16358312700390815,0.054613633719086646,-0.24664635440949348
1783174329758883800,1.2698837890625,-0.10354513014853,0.11213292575180529,-0.2031034739495255
1783174329768951600,1.27995166015625,-0.14092062881886958,0.17237959692180155,-0.19343513483423738
1783174329779020500,1.2900205078125,-0.10983984637856482,0.19323358438014984,-0.15519688185472041
1783174329789088800,1.3000888671875,-0.017032091082632542,0.19085691837668417,-0.14061507000103593
1783174329799157500,1.310157470703125,0.09047580521702765,0.13629296901822088,-0.10248497183742002
1783174329809226500,1.3202265625,0.17333119855821133,0.08137012321949004,-0.12332652907245792
1783174329819294700,1.330294677734375,0.13234744626283645,0.034517186629772184,-0.13110754747064784
1783174329829363700,1.34036376953125,-0.046534372159838674,0.0787356830626726,-0.12339369429084472
1783174329839431400,1.350431396484375,-0.23593086259514093,0.10486731866300106,-0.13240129534192382
1783174329849500700,1.360500732421875,-0.28997517199367284,0.084714172950387,-0.14587159315659665
1783174329859568600,1.370568603515625,-0.1724947477340698,0.04493687383532524,-0.08644366362411528
1783174329869637600,1.3806376953125,-0.10996405728012323,0.045050855603814124,-0.05903839135877788
1783174329879706600,1.39070654296875,-0.07263502810001372,0.04662964922785759,-0.09052636636048556
1783174329889774600,1.400774658203125,-0.07395984696298837,0.07521393867731094,-0.14959430347415617
1783174329899843600,1.410843505859375,-0.0005573416218161583,0.05990589490830898,-0.1937755092371255
1783174329909911600,1.42091162109375,-0.06852174756228924,0.030934651967883108,-0.21073007810413835
1783174329919980500,1.43098046875,-0.15451719249486923,0.0564846882879734,-0.18441179735790936
1783174329930048800,1.441048828125,-0.18957476961165665,0.10340367585122584,-0.10715627898355014
1783174329940117500,1.451117431640625,-0.1596834892168641,0.088940266212821,-0.07000959323355928
1783174329950186800,1.461186767578125,-0.09258739054352044,0.11818857252895831,-0.13325900814980268
1783174329960254700,1.471254638671875,-0.0375815426364541,0.11919453470110893,-0.12340223379032686
1783174329970323500,1.481323486328125,-0.07977876237481832,0.020920038431882858,-0.01387192828496918
1783174329980391400,1.491391357421875,-0.04072247101068496,0.08721592663824558,-0.07608310446096583
1783174329990460700,1.501460693359375,-0.024035540103912352,0.1730915445834398,-0.19733095496268943
1783174330000528600,1.511528564453125,-0.10163841974437236,0.11175766269862651,-0.21121649164790288
1783174330010597600,1.52159765625,-0.12740852855592966,0.08716858036518096,-0.20212560536069793
1783174330020666600,1.53166650390625,-0.06004851824939251,0.13815642480254173,-0.16688658899609
1783174330030734600,1.541734619140625,-0.025064298629760742,0.12255612008869647,-0.08187891299184412
1783174330040803600,1.551803466796875,-0.028247897101938722,0.10632277816832066,-0.0677089881409891
1783174330050871600,1.56187158203125,-0.02382481996268034,0.24819325505793094,-0.1044490932509303
1783174330060940500,1.5719404296875,-0.08294044127613305,0.2165840648293495,-0.08765090225571766
1783174330071008800,1.5820087890625,-0.1413224876180291,0.1477788241505623,-0.10809475627690553
1783174330081077500,1.592077392578125,-0.09364245255440473,0.09764847332537174,-0.12544190465807914
1783174330091146800,1.602146728515625,-0.037732057023048396,0.08272621400356292,-0.17569412829726933
1783174330101214700,1.612214599609375,0.012104571552574633,0.07548632587790488,-0.21203255727114154
1783174330111283500,1.622283447265625,-0.009297112916409968,0.028039515048265455,-0.16196896980553865
1783174330121351700,1.6323515625,-0.08204524600207805,-0.027710429224371908,-0.047830129325110465
1783174330131420700,1.642420654296875,-0.10665829373300074,-0.04642331300079822,-0.06792454885412007
1783174330141488600,1.652488525390625,-0.061467737397551535,-0.014310849425196647,-0.07716812321869657
1783174330151557600,1.6625576171875,-0.014667700038850307,0.04835223523676395,-0.02356330121597275
1783174330161626600,1.672626708984375,-0.0731681120634079,0.044433015966415405,-0.06136155534302815
1783174330171694600,1.682694580078125,-0.1493675546467304,0.05707622444033622,-0.08810931354770436
1783174330181763600,1.692763671875,-0.1610728977486491,0.06747896051108837,-0.08168450466459616
1783174330191831600,1.70283154296875,-0.10338964732587337,0.06159165603816509,-0.15177596749532968
1783174330201900800,1.71290087890625,-0.043166357031464576,0.04301964203715324,-0.11185197165226562
1783174330211968800,1.72296875,-0.05872457616925239,0.004870236384868621,-0.038107301809918136
1783174330222037500,1.73303759765625,-0.12914426630735396,-0.000008183306455612182,-0.05756375222895294
1783174330232106800,1.743106689453125,-0.10142419247180223,0.06131050100922584,-0.14308111305469645
1783174330242174700,1.7531748046875,-0.09247720816731453,0.13698387389183045,-0.25555134446946903
1783174330252244000,1.763243896484375,-0.2604544784769416,0.17175591206550597,-0.38085429731458426
1783174330262312200,1.773312255859375,-0.3416606433063745,0.15446750813424587,-0.37401458748765287
1783174330272381200,1.783381103515625,-0.23070260655283928,0.08129238180816173,-0.2598375521549955
1783174330282449000,1.793448974609375,-0.15693886668384074,0.0666413406431675,-0.15625906772613524
1783174330292518100,1.80351806640625,-0.16788637715578078,0.08378302958011627,-0.18035861297696829
1783174330302587100,1.813587158203125,-0.13399550573080776,0.13717968872487543,-0.2475361428560689
1783174330312654800,1.82365478515625,-0.0821063285395503,0.1424707808703184,-0.21236633753646164
1783174330322724000,1.83372412109375,-0.018625205492973328,0.12499123828113079,-0.15215040856460108
1783174330332792000,1.8437919921875,-0.028981472073495388,0.11116145037114619,-0.15292561245448885
1783174330342861000,1.853861083984375,-0.17921996433585882,0.1443190390855074,-0.13423855723906308
1783174330352929000,1.863928955078125,-0.19636077648997305,0.12626958765387533,-0.15259890125077216
1783174330362998000,1.873998046875,-0.09415186338126659,0.09818623346388339,-0.1374475458808243
1783174330373066200,1.884066162109375,-0.00034019173979759216,0.042187282866239545,-0.12979432771392166
1783174330383135000,1.894135009765625,0.01297229429781437,0.029908231529593467,-0.19436916428133844
1783174330393204000,1.904203857421875,0.01033931544572115,0.027822657427191734,-0.2300899545472115
1783174330403272200,1.914272216796875,-0.042486265812814235,0.024854455271363256,-0.20207250520028172
1783174330413341000,1.9243408203125,-0.03101034755259752,0.027014263653755186,-0.17999169762702658
1783174330423409000,1.934408935546875,0.014384206922352313,0.02490004797875881,-0.1522308168570511
1783174330433478100,1.94447802734375,-0.020622516790032387,0.0124263508528471,-0.1125575443720445
1783174330443546000,1.954546142578125,-0.036926585859060286,0.05142974298596382,-0.0870378666575998
1783174330453615000,1.964614990234375,-0.015292261677980422,0.0911538506090641,-0.07666923378584906
1783174330463684000,1.97468408203125,-0.05958703821748495,0.083912208917737,-0.03542657482596114
1783174330473752000,1.984751953125,-0.0869277573466301,0.07637830628156661,-0.06926701297163963
1783174330483821000,1.994821044921875,-0.04837912324368954,0.06905424700379371,-0.11494370885621756
1783174330493889000,2.004888916015625,-0.039124095903337,0.027087328889966008,-0.12837507203314452
1783174330503958000,2.0149580078125,-0.003590717968344688,0.014009820652008056,-0.10768966434104367
1783174330514026200,2.025026123046875,-0.026554244926571845,0.061872811067104336,-0.20845542943673206
1783174330524095000,2.035094970703125,-0.05996434709727764,0.1312567284166813,-0.32145869001597166
1783174330534164000,2.0451640625,-0.03423252446949482,0.13931728527545928,-0.24581319152098147
1783174330544232200,2.055232177734375,-0.04225011896938086,0.12921323989033698,-0.17971213176697493
1783174330554301000,2.065301025390625,-0.07893032885193824,0.10496318025290965,-0.13629817491630092
1783174330564369000,2.075368896484375,-0.08415770811140537,0.04960720373392105,-0.07374037725972012
1783174330574438100,2.085438232421875,-0.07600508905500174,-0.0032283143967390057,-0.03310118235200643
1783174330584506000,2.095506103515625,-0.0666083151564002,0.027927286845445633,-0.10552574603911488
1783174330594575000,2.1055751953125,-0.06021919864118099,0.07638707410991191,-0.22469313700497148
1783174330604644000,2.11564404296875,-0.10152911415100097,0.07898176677823067,-0.2860020305790007
1783174330614712000,2.125712158203125,-0.1385194128960371,0.10679156472384929,-0.32188718109373
1783174330624781000,2.135781005859375,-0.07320581372529268,0.1322106681406498,-0.26295820492617783
1783174330634849000,2.14584912109375,-0.0666542001247406,0.144375737708807,-0.1467846620140597
1783174330644918000,2.15591796875,-0.061984454748034476,0.09615852702856063,-0.09962455917131155
1783174330654986200,2.165986328125,-0.009034954848885536,0.053957800158858295,-0.13117226500362156
1783174330665055000,2.176054931640625,0.10416384656876325,-0.0033329438149929044,-0.16830368925239889
1783174330675124200,2.186124267578125,0.09437573526501655,-0.02953939821720123,-0.1694249848999083
1783174330685192200,2.196192138671875,0.019616554617881775,-0.0038157588958740232,-0.17218834866601973
1783174330695261000,2.206260986328125,-0.028785072718560695,-0.004053074783086776,-0.14714834422729908
1783174330705329200,2.2163291015625,-0.04908113403320312,0.028000352081656455,-0.15949728246238082
1783174330715398100,2.226398193359375,-0.05799100119769573,0.0786667094796896,-0.1981790414256975
1783174330725466000,2.236466064453125,-0.08778758904635905,0.10863339319825172,-0.16761055588908494
1783174330735535000,2.24653515625,-0.05418108752071857,0.1329284610211849,-0.13345127931889145
1783174330745603000,2.25660302734375,0.0228024911776185,0.11938216622769832,-0.18386070281378925
1783174330755672000,2.266672119140625,0.08040946149379015,0.08901683858036995,-0.20174451535493135
1783174330765741000,2.276740966796875,0.10015256510078907,0.007973463097214698,-0.15835501709207891
1783174330775809000,2.28680908203125,0.08227437858283519,-0.030951018580794333,-0.09760065212827175
1783174330785878300,2.296878173828125,0.025500351959466934,-0.021235680252313614,-0.07985949946083128
1783174330795946200,2.3069462890625,-0.031025837382674216,0.00900514423251152,-0.15687168319914488
1783174330806015000,2.317014892578125,-0.10633856025934219,0.010339607706665992,-0.15956826533935964
1783174330816083000,2.3270830078125,-0.11188158133924007,-0.024144845697283743,-0.0205355326263234
1783174330826152200,2.337152099609375,-0.08285276299268007,0.0015174188256263732,-0.07789824585784226
1783174330836221000,2.347220947265625,-0.07903554279208183,0.03095978640913963,-0.16134232580717653
1783174330846289200,2.3572890625,-0.005324409893155098,0.02862403693795204,-0.18033618194945156
1783174330856358100,2.367358154296875,0.07503799758851527,-0.0015437223106622695,-0.13304101801756768
1783174330866426000,2.377426025390625,0.09393032958507537,-0.06096914022564888,-0.05567823074329644
1783174330876495000,2.3874951171875,0.06264291865676641,-0.027094927674531935,-0.07470967894960194
1783174330886563000,2.39756298828125,-0.03482844453603029,-0.0022515783190727233,-0.1569284548876807
1783174330896632000,2.407632080078125,-0.11373977642655372,0.020703765332698822,-0.19062007741350678
1783174330906701000,2.417701171875,-0.12548399023413656,0.05624795692265033,-0.2260176270743832
1783174330916769000,2.42776904296875,-0.10002543158978223,0.08487491647005081,-0.2717568302685395
1783174330926838300,2.43783837890625,-0.001681084954738617,0.058140638801455494,-0.21347298360411077
1783174330936906000,2.447906005859375,0.07363339148759841,-0.019663316369056702,-0.10034929324928671
1783174330946975000,2.45797509765625,0.08273089017868042,-0.04674187743067741,-0.03740603993907571
1783174330957043200,2.468043212890625,-0.009412555989623069,-0.004348258337378502,-0.07324643799662589
1783174330967112200,2.4781123046875,-0.05108721315860748,0.04761164600253105,-0.13448891527093945
1783174330977181000,2.488180908203125,-0.051473874388635155,0.08324936109483241,-0.10154818417765199
1783174330987249200,2.498249267578125,-0.03379500983506441,0.08777297599911689,-0.10080405127946286
1783174330997318100,2.508318115234375,0.027438626545667647,0.11152677655220031,-0.18574644349515437
1783174331007385900,2.5183857421875,-0.003258709535002708,0.11936053891777991,-0.21845997823644428
1783174331017455000,2.528455078125,-0.05653437264859676,0.10267419253289699,-0.2642464911710471
1783174331027523000,2.538523193359375,-0.057063949480652805,0.06849719764292239,-0.22979458832982927
1783174331037592000,2.548592041015625,-0.028543957439064977,0.03199088302254677,-0.14917718317378312
1783174331047660000,2.558659912109375,-0.011867547926306723,0.0259504338145256,-0.14027783740330488
1783174331057729000,2.56872900390625,-0.0982125369489193,0.05296820459961891,-0.15484258852433413
1783174331067798000,2.578798095703125,-0.14695640185177325,0.0893061769157648,-0.1580571301240474
1783174331077866000,2.588865966796875,-0.07716916439831256,0.130934656855464,-0.16140797492191195
1783174331087935000,2.59893505859375,-0.0030891981869935986,0.12404781995117664,-0.1762818285247311
1783174331098003200,2.609003173828125,-0.0028697102174162865,0.0725754068672657,-0.17910678628496823
1783174331108072000,2.619072021484375,0.006653028148412704,0.05519757108688354,-0.19036208406444638
1783174331118140000,2.629139892578125,-0.03923369375765323,0.05256488449573517,-0.14737002415396272
1783174331128209200,2.639209228515625,-0.06721124948561191,0.014286884027719497,-0.12955924031641333
1783174331138278000,2.64927783203125,-0.019864976420998572,0.02220832467675209,-0.1487322524178773
1783174331148346000,2.65934619140625,0.031283611536026,0.05928980883657932,-0.14724446154553442
1783174331158415000,2.6694150390625,0.023142682917416096,0.0569902997225523,-0.1879648501969874
1783174331168483000,2.679483154296875,0.016276888801157473,0.04878068978190422,-0.15628482322189957
1783174331178552000,2.689552001953125,0.004662438853085041,0.05437807139754295,-0.09440996632818133
1783174331188620000,2.6996201171875,-0.04382657450586557,0.07073533195853234,-0.04740662494972348
1783174331198689000,2.70968896484375,-0.05309066193550825,0.036034020933508874,-0.09271098039057105
1783174331208758000,2.719758056640625,-0.05228928242474794,0.05192834015786647,-0.11634634219575672
1783174331218826000,2.729825927734375,-0.037057811023294925,0.07330547470748425,-0.18117391141522673
1783174331228895200,2.739895263671875,0.01386281339675188,0.07973580001592635,-0.18023874945696441
1783174331238963200,2.749963134765625,0.11727730290293693,0.08458382456898689,-0.20333393997084348
1783174331249032000,2.760031982421875,0.14646511120349168,0.05005319393575191,-0.16127623830102383
1783174331259100000,2.770099853515625,-0.04772855038046837,0.010502104791998862,-0.13143756487630306
1783174331269169200,2.780169189453125,-0.13323796536177396,0.0494090508133173,-0.12008361076163128
1783174331279237000,2.790237060546875,-0.06047521922886371,0.04184416851699352,-0.1604178131070919
1783174331289306000,2.80030615234375,0.08810790704190731,0.03441372625529766,-0.13142110693184658
1783174331299375000,2.810375,0.07285597737431526,0.029269933626055716,-0.08341299069132656
1783174331309443000,2.820443115234375,0.008204349243640899,0.02934825955927372,-0.08453048694655299
1783174331319512000,2.830511962890625,-0.009915244814753532,0.06145429339408874,-0.12559260170776396
1783174331329580000,2.840580078125,-0.006872223857045173,0.017605799317359925,-0.1298269148092717
1783174331339649000,2.85064892578125,0.04206862492263317,0.01146948851943016,-0.1307607250606641
1783174331349717200,2.86071728515625,0.016915478965640066,0.031792145580053326,-0.1163671657880768
1783174331359786000,2.870785888671875,-0.01956657799631357,0.05693827727437019,-0.18835330152530222
1783174331369855200,2.880855224609375,-0.13515665846467018,0.09878244579136371,-0.2150766194084659
1783174331379923200,2.890923095703125,-0.16290215900242327,0.154051328548789,-0.22371117676291613
1783174331389992000,2.900991943359375,-0.06220949567556381,0.15800094295740127,-0.19196250499840825
1783174331400060200,2.91106005859375,0.047312955316901203,0.0750759915113449,-0.18402469773646443
1783174331410129200,2.921129150390625,0.0680152593448758,0.007459083834290504,-0.18039072514828294
1783174331420197000,2.931197021484375,0.09559446340501308,-0.010384031370282173,-0.2226321493545547
1783174331430266000,2.94126611328125,0.0801978645697236,0.002502338209748268,-0.23865780334100126
1783174331440335000,2.951335205078125,-0.0734179951712489,0.045098201876878734,-0.1442535726338625
1783174331450403000,2.961403076171875,-0.1682435200303793,0.08998948300480843,-0.10082169653400778
1783174331460472000,2.97147216796875,-0.1340679864451289,0.1614811862885952,-0.10625318353082984
1783174331470540000,2.9815400390625,-0.04416822755038738,0.18924480700492857,-0.09324282224494963
1783174331480609300,2.991609375,-0.027869126917421817,0.16026245814859866,-0.13370514448210596
1783174331490677000,3.001677001953125,-0.05545505297929048,0.09221417331695556,-0.1716832121554762
1783174331500746000,3.01174609375,-0.0060620765179395675,0.02296294243633747,-0.14353760638423263
1783174331510814000,3.02181396484375,0.11059855579137802,-0.027682956695556638,-0.11307857257146388
1783174331520883200,3.03188330078125,0.1413859082430601,-0.022676526710391044,-0.16107848723921925
1783174331530952000,3.041951904296875,-0.014664192907512186,0.011842998006939887,-0.23721838165502993
1783174331541020200,3.052020263671875,-0.15614040978252886,0.009909399595856665,-0.2713882161518559
1783174331551089200,3.062089111328125,-0.18666998808085916,0.01918926911652088,-0.22319416715148835
1783174331561156900,3.072156982421875,-0.1489408536672592,0.03518178801834583,-0.1354476773004979
1783174331571226000,3.08222607421875,-0.10743336975872517,0.06081248835921287,-0.04640986899733543
1783174331581294000,3.092294189453125,-0.07263590488284825,0.0948573813021183,-0.10467767784241587
1783174331591363000,3.102363037109375,-0.012928455156087875,0.06785130095481873,-0.1511361352218315
1783174331601432000,3.11243212890625,0.01791355009227991,0.03864157308340072,-0.12428977548088878
1783174331611500000,3.1225,0.01806435673981905,0.017125906845927238,-0.1548537675054744
1783174331621569300,3.1325693359375,-0.006931845089793205,0.0019435352832078933,-0.19416173207573592
1783174331631637000,3.142636962890625,-0.10975859783589839,0.020597382348775863,-0.18815997091028838
1783174331641706000,3.1527060546875,-0.15581570787280796,0.048801148048043246,-0.1538993893900886
1783174331651774200,3.162774169921875,-0.03450520393103361,0.07275310152173042,-0.1282183471014723
1783174331661843000,3.172843017578125,0.06903671134710311,0.10770984861254691,-0.12652334321923553
1783174331671912000,3.182911865234375,0.08756605525016783,0.11025719500780105,-0.12927454162351787
1783174331681980200,3.192980224609375,-0.008548924897611141,0.07073591648042202,-0.150752652329579
1783174331692049200,3.203049072265625,-0.04171937309354543,0.03237608294785022,-0.16045045500136912
1783174331702116900,3.213116943359375,-0.01400572899878025,0.026632570859789848,-0.15320168944951146
1783174331712186000,3.22318603515625,-0.011939736379683017,0.015962708285450933,-0.13731416529212145
1783174331722254000,3.233254150390625,-0.05124065015465021,0.031792730101943015,-0.13938739136960357
1783174331732323000,3.243322998046875,-0.0842544464841485,0.0679874945551157,-0.1627139064213261
1783174331742391000,3.25339111328125,-0.1160781562462449,0.087707509547472,-0.14950568447578697
1783174331752460000,3.2634599609375,-0.08532762867361307,0.08577975635528563,-0.11665248553548008
1783174331762529000,3.273529052734375,0.03172229521423578,0.07177402735650538,-0.10795023323968052
1783174331772597000,3.283596923828125,0.07694879964590072,0.11662030029892921,-0.14612090087570248
1783174331782666000,3.293666015625,0.10494213746488093,0.11185118620097637,-0.2035048395583406
1783174331792734200,3.303734130859375,0.005320902761816978,0.06130582483410835,-0.16639774603322147
1783174331802803000,3.313802978515625,-0.09001520196795464,0.0036310499787330624,-0.14832356201913208
1783174331812871000,3.323870849609375,-0.02981996872425079,-0.011601005944609642,-0.1437291103683412
1783174331822940200,3.333940185546875,-0.014053367532789707,0.04082300877571106,-0.13971329885572195
1783174331833009000,3.3440087890625,-0.047751346734166145,0.051122284471988674,-0.17519998810477555
1783174331843077000,3.3540771484375,0.00006517419070005416,0.0260638310611248,-0.16840404435433445
1783174331853146000,3.36414599609375,0.10365618930757045,-0.04147065902948379,-0.10464034150671213
1783174331863214000,3.374214111328125,0.04782587327510118,-0.051855274921655654,-0.049025860182009634
1783174331873283000,3.384282958984375,-0.045459144143760205,0.001437339326739311,-0.08268222873136401
1783174331883351000,3.39435107421875,-0.08834902232140301,0.03577683130204677,-0.10627287461198866
1783174331893420000,3.404419921875,-0.07263941201418637,0.031847090637683866,-0.1376911819109693
1783174331903489000,3.414489013671875,-0.07710165212005377,0.023858429971337317,-0.20065007118172942
1783174331913557000,3.424556884765625,-0.09886018720269203,0.04325169722735882,-0.2393305515034124
1783174331923626200,3.434626220703125,-0.10502134018093347,0.041275428718328476,-0.22515732045061884
1783174331933694200,3.444694091796875,-0.01953998225033283,0.03386778281033039,-0.20742767555788158
1783174331943763000,3.454762939453125,0.12213175719678401,0.011052139890193938,-0.172048428738676
1783174331953831000,3.464830810546875,0.036952889344096185,-0.06383154391944408,-0.10074501456860452
1783174331963900200,3.474900146484375,-0.12708499568998813,-0.07914660195112228,-0.06899181275945157
1783174331973968100,3.484968017578125,-0.15479074873924253,0.03756313019692897,-0.08016710410527884
1783174331984037000,3.495037109375,-0.12321984469443559,0.11483692401349543,-0.12074424836114048
1783174331994106000,3.505106201171875,-0.055901919963955875,0.15361527521908283,-0.11181450745239853
1783174332004174000,3.515174072265625,0.015543021568655967,0.1856225248545408,-0.039673181153461336
1783174332014243000,3.5252431640625,0.02496113051623106,0.1542781230419874,-0.051122576732933515
1783174332024311000,3.53531103515625,-0.015516425822675227,0.07680325369536876,-0.08743534154258668
1783174332034380000,3.545380126953125,-0.04927577982246875,-0.01391337454020977,-0.06367558617275208
1783174332044448300,3.5554482421875,-0.06452420235872268,0.015557050094008444,-0.15964407052192836
1783174332054517000,3.56551708984375,-0.05389934796988964,0.06643851154744625,-0.17391466100197284
1783174332064586200,3.575586181640625,-0.11321458350867032,-0.03264671658277511,-0.17922584608737377
1783174332074654200,3.585654296875,-0.10902180799394845,0.064122635820508,-0.14374354075249285
1783174332084723000,3.595722900390625,-0.0803247058197856,0.11851532026529311,-0.16938498168308286
1783174332094791200,3.605791259765625,-0.1268681380689144,0.2652332371860742,-0.21863011063896118
1783174332104860200,3.615860107421875,0.0038294951602816578,0.24890812532901763,-0.15531258065626025
1783174332114928000,3.62592822265625,0.10841448975056409,0.2207189726769924,-0.03491407699286937
1783174332124997000,3.6359970703125,0.10901830086261033,0.09564064063429832,-0.04785254208631813
1783174332135065000,3.646065185546875,0.08415010932683945,0.014076456147432326,-0.030252368792146444
1783174332145134000,3.656134033203125,-0.019175825113058088,0.07918868752717971,-0.04917790893856436
1783174332155203000,3.666203125,-0.05915799915045499,0.13435761704146862,-0.11700557328946888
1783174332165271000,3.67627099609375,-0.029477438896894453,0.16092822858095168,-0.1804693798750639
1783174332175340300,3.68634033203125,-0.0029313772767782208,0.11688099706172943,-0.1909172337291762
1783174332185408000,3.696407958984375,0.0161886259958148,0.08839432276785374,-0.1718033679364249
1783174332195477000,3.70647705078125,0.05032265852689743,0.04450198954939842,-0.09336129752546549
1783174332205545200,3.716545166015625,0.09952946476638316,0.042293081328272815,-0.15947660500053315
1783174332215614200,3.7266142578125,0.018382044386863708,0.02148059492409229,-0.2519140291467309
1783174332225683000,3.736682861328125,-0.045321489238739014,-0.03408171782195568,-0.17274587295092642
1783174332235751200,3.746751220703125,-0.041702421958744525,-0.00698912823498249,-0.11662559752855449
1783174332245820200,3.756820068359375,-0.03769114049077034,-0.01946983962357044,-0.16948369281720368
1783174332255888000,3.766887939453125,-0.16996961317062376,0.0005693243205547332,-0.2371384848192334
1783174332265956600,3.77695654296875,-0.2776768314346671,-0.0581055674880743,-0.1685399822263047
1783174332276024600,3.787024658203125,-0.21150836900025605,-0.03014905454814434,-0.07643843897096812
1783174332286093800,3.79709375,-0.07290157008171082,0.032170331242680546,-0.046439533483237025
1783174332296162600,3.80716259765625,-0.0575870965719223,-0.01806523352265358,-0.02780271061770618
1783174332306230800,3.817230712890625,-0.11625760446637869,-0.07120002686083317,-0.0749868519231677
1783174332316299800,3.8272998046875,-0.019470424145460127,0.0671118807643652,-0.1520867504775524
1783174332326367700,3.83736767578125,0.1014341293439269,0.11404022067785262,-0.18265435923133044
1783174332336436700,3.847436767578125,0.06334113005399704,0.07086684938371181,-0.1799645721580833
1783174332346504700,3.857504638671875,-0.001383271051943302,0.095797877022624,-0.2053445126082748
1783174332356573700,3.86757373046875,-0.06938917804658412,0.06737433109283447,-0.17276344514023512
1783174332366642700,3.877642578125,-0.16562135483324528,0.016578794357180595,-0.07066343576610087
1783174332376710700,3.887710693359375,-0.14307663780897856,-0.008541618373990058,-0.03861757115330547
1783174332386780000,3.89777978515625,-0.027156302472949027,0.06899345672726631,-0.12308303003963082
1783174332396847600,3.90784765625,0.04494827201217413,0.07175941430926322,-0.1135397968750447
1783174332406916600,3.91791650390625,0.04266337594538927,0.09286065452694893,-0.1745565025694668
1783174332416984800,3.92798486328125,-0.01130348430275917,0.11872925527691841,-0.2504328872108832
1783174332427053600,3.938053466796875,-0.0804611916810274,0.10792027649283409,-0.24287574982959775
1783174332437121500,3.94812158203125,-0.0653539311811328,0.05537234313189983,-0.15121336517650633
1783174332447190800,3.958190673828125,-0.046602761220932,-0.003360416343808174,0.007941022132337093
1783174332457259800,3.968259765625,-0.06717559365034104,0.013960720813274383,-0.0271378900334239
1783174332467327500,3.978327392578125,-0.04839315176904201,0.19947160198688507,-0.09859788300469517
1783174332477396700,3.988396728515625,-0.03663870882838964,0.27896131828725335,-0.10474774740394205
1783174332487464700,3.998464599609375,0.013376783445477484,0.2544289345771074,-0.07589929059296846
1783174332497533700,4.00853369140625,0.03830839560627937,0.21053777040243146,-0.04977119865659624
1783174332507601700,4.0186015625,-0.05217208578586578,0.13584054907560347,-0.15395853569880127
1783174332517670700,4.028670654296875,-0.1390223939821124,0.09684650929272175,-0.203775655856356
1783174332527739600,4.03873974609375,-0.16724691020846366,0.10085457589030265,-0.32122678095623847
1783174332537807600,4.0488076171875,-0.15965835477560758,0.11963467968404293,-0.4687823177449405
1783174332547876600,4.058876708984375,-0.08437164312303065,0.0656125821173191,-0.3413587742829695
1783174332557944800,4.06894482421875,0.03844400468468666,-0.007690554502606391,-0.17326047140955925
1783174332568013600,4.079013671875,0.08638006033599376,-0.06546762068867683,-0.11522840754911302
1783174332578081500,4.08908154296875,0.0066457216247916215,-0.08369944294989108,-0.09865202434472739
1783174332588150800,4.09915087890625,-0.07487170111089944,-0.021838322320580483,-0.077145052870363
1783174332598218800,4.10921875,-0.15586773032099008,0.05465864190459251,-0.1178698619686067
1783174332608287700,4.119287841796875,-0.15002338820695876,0.07317045015096664,-0.13219470338653772
1783174332618356700,4.129356689453125,-0.06986059495061636,0.10139525863826274,-0.09328461556006222
1783174332628424700,4.1394248046875,-0.08368892155587673,0.133743284535408,-0.1311756625371054
1783174332638493700,4.14949365234375,-0.10145487987101078,0.09620061260461807,-0.11519165573529898
1783174332648561700,4.159561767578125,-0.047666298799216744,-0.07501870836615562,-0.04831292613968253
1783174332658630700,4.169630615234375,0.029904432137310505,-0.0005418517917394638,-0.1365925730193034
1783174332668699000,4.179698974609375,0.06751198599785566,0.0836462514579296,-0.1389921449743211
1783174332678767600,4.189767578125,-0.018908406348526478,0.02496668347418308,-0.11625859084706752
1783174332688836900,4.1998369140625,-0.09138181414604186,0.06693477063179015,-0.16992164584305136
1783174332698904800,4.20990478515625,-0.1013470355823636,0.11972644962072372,-0.1767342849999666
1783174332708973600,4.2199736328125,-0.12315291693806647,0.023525252494215963,-0.11265022762417792
1783174332719041500,4.23004150390625,-0.22687428043633698,0.11029811154007911,-0.12298380744885652
1783174332729110800,4.24011083984375,-0.2596153973042965,0.12788929781019687,-0.2024247892366722
1783174332739178800,4.2501787109375,-0.13521131126135588,0.15502981819212436,-0.13586056895032525
1783174332749247700,4.260247802734375,0.10435966140180826,0.056469490718841546,-0.009959705010987818
1783174332759315700,4.270315673828125,0.24517098462730644,0.0043862522602081296,-0.017990889644809067
1783174332769384700,4.280384765625,0.1917407154738903,0.0013765490502119064,-0.09004545097574591
1783174332779453700,4.29045361328125,-0.030185294905304905,0.0008779518783092498,-0.10909246207736432
1783174332789521700,4.300521728515625,-0.21329379111230373,-0.07356967860162257,-0.09495558097958565
1783174332799590700,4.310590576171875,-0.18742548262327907,0.07756488571763039,-0.15378383671902118
1783174332809659000,4.320658935546875,-0.12436989151239394,0.11691373028755188,-0.12312032984271645
1783174332819727600,4.3307275390625,-0.05110562559813261,0.17563070767223835,-0.14306509350165725
1783174332829795600,4.340795654296875,-0.014717676660418509,0.1655593955129385,-0.14436415686886755
1783174332839864800,4.35086474609375,-0.042079146316647525,0.02978957358598709,-0.14457078535687176
1783174332849933600,4.36093359375,0.00034311434924602505,-0.03054769847691059,-0.10436050165202468
1783174332860001800,4.371001708984375,0.086944708481431,-0.06794716254472732,-0.07411525672040879
1783174332870070800,4.38107080078125,0.09392828375846148,-0.0749976655781269,-0.05150306395050138
1783174332880138800,4.391138671875,-0.08209872975498438,-0.01804945143163204,-0.10944763219058513
1783174332890207700,4.401207763671875,-0.19534253935813903,0.018163433200120926,-0.1371666100475937
1783174332900275700,4.411275634765625,-0.13999942232072352,0.1116185464888811,-0.20902217820771038
1783174332910344700,4.4213447265625,-0.06867723038494586,0.15824994928240776,-0.1878900313951075
1783174332920413700,4.43141357421875,0.03867138369977474,0.16702245380282402,-0.15496215978339314
1783174332930481700,4.441481689453125,0.12881751857101917,0.14481003747284413,-0.0723817109260708
1783174332940551000,4.451551025390625,0.02724076588600874,0.08150631681978703,-0.08104151231963187
1783174332950618600,4.46161865234375,-0.07934680069833994,0.08429682432115078,-0.05580459706932306
1783174332960687600,4.4716875,-0.13046733160465954,0.10842588792741298,-0.08850110761057585
1783174332970755600,4.481755615234375,-0.10586451300680637,0.11938859596848488,-0.10225322717446833
1783174332980824800,4.491824951171875,-0.0497054034113884,0.15055004242956638,-0.10931808752678335
1783174332990892500,4.501892578125,-0.037241935418546195,0.1696072095990181,-0.08987517244275658
1783174333000961800,4.5119619140625,-0.13900602736920117,0.15298223801255226,-0.15611892860308288
1783174333011030800,4.52203076171875,-0.13698475067466498,0.13311492350399493,-0.21677461896538733
1783174333021098500,4.532098388671875,-0.06169657771736383,0.13449381064176558,-0.2561205043932423
1783174333031167700,4.542167724609375,-0.031738661827147005,0.11545768626034258,-0.20214513204507528
1783174333041235700,4.552235595703125,-0.0027846622824668882,0.07658055085539818,-0.19863120563998818
1783174333051304700,4.5623046875,-0.05883651211112737,0.06522562862634658,-0.20998178048748523
1783174333061372700,4.57237255859375,-0.11119038420468569,0.07023205861151217,-0.2060094427904114
1783174333071441700,4.582441650390625,-0.130343412964046,0.051746553850173946,-0.1685690987229347
1783174333081510700,4.5925107421875,-0.05853986725211143,0.044853287205100054,-0.09948884049504995
1783174333091578600,4.60257861328125,-0.03521656707078218,0.06724281366765499,-0.07578534535709767
1783174333101647600,4.612647705078125,-0.08065934460163116,0.04948620770275593,-0.0946352264514193
1783174333111715800,4.6227158203125,-0.0831041074052453,0.05780395419299602,-0.1033999860567972
1783174333121784600,4.63278466796875,-0.037836686441302295,0.024548750323057172,-0.0876805119426921
1783174333131852500,4.6428525390625,0.05003595054000616,-0.006235679519176483,-0.05232435373812914
1783174333141921800,4.652921875,0.04126286149770021,-0.0007253916651010513,-0.0323387831447646
1783174333151989800,4.66298974609375,-0.06319207697212696,0.05985854863524437,-0.07033950104136019
1783174333162058500,4.67305859375,-0.12190087105035781,0.10612637881338596,-0.07260525401625782
1783174333172127700,4.683127685546875,-0.13171353227347135,0.12232114228904246,-0.09346205448620021
1783174333182195700,4.69319580078125,-0.13443126679956913,0.09576806640624999,-0.10557203286625444
1783174333192264700,4.7032646484375,-0.10885697282105683,0.06726327193379401,-0.17822532727532087
1783174333202332700,4.713332763671875,-0.07224018356353044,0.05774433296024799,-0.2016011613614857
1783174333212401700,4.723401611328125,-0.06913198841512203,0.05305646740496158,-0.16604922485649584
1783174333222470000,4.733469970703125,-0.049024435409903526,0.05469312869608402,-0.15388094041794537
1783174333232538600,4.74353857421875,-0.054171735170483584,0.0519008676290512,-0.17286142562199383
1783174333242607600,4.753607666015625,-0.11772037049531936,0.06089490594565868,-0.16519677274562417
1783174333252675800,4.76367578125,-0.17534575325101612,0.07216916415393353,-0.17085479850731788
1783174333262744600,4.77374462890625,-0.22778233519196509,0.12845277691185475,-0.15243534471951425
1783174333272812500,4.7838125,-0.18275252237617967,0.13362345754802227,-0.16699498127400875
1783174333282881800,4.7938818359375,-0.1108475621163845,0.16160335136353968,-0.12011402416620402
1783174333292949800,4.80394970703125,-0.05660802240669727,0.1382318281263113,-0.11832911351080984
1783174333303018800,4.814018798828125,-0.024200959798693654,0.09785364050865172,-0.13135573181174695
1783174333313086700,4.824086669921875,0.01833791298419237,0.05712883141040802,-0.14017386557217687
1783174333323155700,4.83415576171875,0.02029284644424915,0.05823299326002598,-0.1276026263559237
1783174333333224700,4.844224609375,0.00915244374871254,0.04238017508983612,-0.1396799080427736
1783174333343292700,4.854292724609375,0.021996143230795857,0.06354863532483578,-0.12236856162734329
1783174333353361700,4.864361572265625,0.005012567465007305,0.031789222970604894,-0.16095288809817285
1783174333363430000,4.874429931640625,-0.018813129280507563,-0.02215221057534218,-0.12323171779531984
1783174333373498600,4.88449853515625,-0.016425941883027553,-0.023982933133840558,-0.07747278698738663
1783174333383566600,4.894566650390625,0.006798574098944664,-0.012312369084358215,-0.10276333212107419
1783174333393635800,4.9046357421875,0.022369360457360744,0.015736498314142228,-0.14827409685421733
1783174333403704600,4.91470458984375,0.023719021500647065,0.019623568880558013,-0.15005089726839213
1783174333413772500,4.9247724609375,0.018488135109841822,0.022964111480116844,-0.13986856248266993
1783174333423841800,4.934841796875,0.026087211936712262,-0.016994973942637444,-0.04662245230209082
1783174333433909800,4.94490966796875,0.0018315993413329124,-0.01386193661391735,0.009465637883730232
1783174333443978800,4.954978759765625,-0.014409925885498522,0.07092822418212891,0.005121471199579537
1783174333454046700,4.965046630859375,-0.06345248147398233,0.14325988542139528,-0.07166987286228686
1783174333464115700,4.97511572265625,-0.07831658086776733,0.20323592295646667,-0.11565163792986421
1783174333474183700,4.98518359375,-0.1433092775210738,0.23284604832231998,-0.09316961087826639
1783174333484251000,4.9952509765625,-0.17075579511225222,0.16327800657749175,-0.10709171671420335
1783174333494319600,5.005319580078125,-0.12784808901697398,0.14523966106176375,-0.107434356139414
1783174333504387600,5.0153876953125,-0.08561462892144918,0.1328717623978853,-0.17024185424074528
1783174333514456800,5.025456787109375,-0.03756371471881866,0.14307868363559245,-0.25022410329841077
1783174333524525600,5.035525634765625,-0.029249475359916684,0.10622516301274298,-0.2540340900406241
1783174333534593500,5.045593505859375,-0.06036591363549232,0.07051788981556892,-0.21416027174852786
1783174333544662800,5.055662841796875,-0.11925123332440853,0.05173778602182865,-0.1925623705876991
1783174333554730800,5.065730712890625,-0.1426326934337616,0.04690963521301746,-0.18132084560524672
1783174333564799700,5.0757998046875,-0.11578180364817381,0.03263385710120201,-0.15352050960771738
1783174333574867700,5.08586767578125,-0.06548544860631227,0.055634793460369106,-0.07236333501916378
1783174333584936700,5.095936767578125,-0.05096913973689079,0.06603986761868,-0.11038812791109084
1783174333595005700,5.106005615234375,-0.10314093326181173,0.09064239395558833,-0.13319821787327527
1783174333605073700,5.11607373046875,-0.11675269450694321,0.028920389536023137,-0.1279584540562704
1783174333615142700,5.126142578125,-0.08675883052051067,0.027484803774952885,-0.12349592168945818
1783174333625211000,5.1362109375,-0.06398790352493525,0.008740355816483497,-0.10683986084498465
1783174333635279600,5.146279541015625,0.003674596859514713,-0.010621347257494926,-0.11592238116264343
1783174333645347600,5.15634765625,0.06205050572156906,0.018345219507813454,-0.10408628782052547
1783174333655416800,5.166416748046875,-0.011033435189723969,0.0852758984863758,-0.09825699714515358
1783174333665485600,5.176485595703125,-0.0377124755397439,0.09210954389870166,-0.10716785069033503
1783174333675553800,5.1865537109375,-0.03734159640073776,0.0866834271967411,-0.08698960706908256
1783174333685622800,5.196622802734375,0.004706570255756378,0.041622050198912616,-0.04543528834413737
1783174333695690800,5.206690673828125,0.033899931514263154,0.01588496687412262,-0.06459975181296468
1783174333705759700,5.216759765625,0.0221010649099946,-0.02743453489243984,-0.1500493994310498
1783174333715827700,5.22682763671875,-0.004616846145689487,0.07021101582348346,-0.09035276335924863
1783174333725896700,5.236896728515625,-0.05460545041263103,0.05390227057933807,-0.09165131526980548
1783174333735964700,5.246964599609375,-0.09169102622568606,0.09479249937236309,-0.12526804592851548
1783174333746033700,5.25703369140625,-0.09891834713071584,0.11155600264668464,-0.1321675596512854
1783174333756103000,5.26710302734375,-0.06712152537554503,0.0834679722815752,-0.13038571773581206
1783174333766170600,5.277170654296875,-0.01764554680585861,0.04800678279995918,-0.11881985616981983
1783174333776239600,5.287239501953125,0.021182488760352135,0.004250058659911155,-0.11088106252718716
1783174333786307800,5.297307861328125,0.03532733396887779,-0.009721768069267273,-0.09900529476180672
1783174333796376800,5.307376953125,-0.025847850222885608,0.027969372421503064,-0.10977178611103444
1783174333806444500,5.317444580078125,-0.0806555452093482,0.07865911069512367,-0.15823654181156308
1783174333816513800,5.327513671875,-0.08614625158011913,0.11759352924525737,-0.19169176176562905
1783174333826582800,5.337582763671875,-0.02430149756371975,0.09500935699343681,-0.18645053664389996
1783174333836650500,5.347650390625,0.03639204059094191,0.08086158917546271,-0.12169409643188119
1783174333846719700,5.3577197265625,0.03612754443585872,0.009147767573595046,-0.06284958367738873
1783174333856787700,5.36778759765625,0.004813537761569023,-0.012907996889948843,-0.03093987613227218
1783174333866858800,5.377858642578125,0.011860825924575328,0.01279752225279808,-0.04352708010263741
1783174333876926700,5.3879267578125,-0.026514497438073156,0.056202948737144466,-0.11422087447438388
1783174333886995700,5.39799560546875,-0.08497165484279394,0.09257599236667155,-0.16222831486146896
1783174333897063700,5.408063720703125,-0.039023558138310904,0.09982172571122645,-0.16233290774710477
1783174333907132700,5.418132568359375,0.006027589726448059,0.08944646216928959,-0.16511778922528028
1783174333917201000,5.428200927734375,-0.008434650868177414,0.028249358406662938,-0.168030973258242
1783174333927269600,5.43826953125,-0.02529664608091116,0.008307809618115424,-0.07323306705839931
1783174333937337600,5.448337646484375,0.0014607202023267745,0.008959551525115966,-0.03613992899339646
1783174333947406800,5.45840673828125,-0.016543430782854557,0.052560208320617675,-0.06572356821112334
1783174333957475600,5.4684755859375,-0.03350391793400049,0.11133680693805217,-0.07487378347013145
1783174333967543600,5.47854345703125,-0.01788520078063011,0.1109784950196743,-0.10678323528692125
1783174333977612800,5.48861279296875,-0.003338204512000084,0.11693711116313933,-0.13894826929997653
1783174333987680800,5.4986806640625,-0.027705753049254416,0.06810381441116332,-0.17324213203527034
1783174333997749800,5.508749755859375,-0.07239712769091129,0.026060908451676367,-0.20578487678691743
1783174334007817700,5.518817626953125,-0.09629442836791276,0.07123100652098656,-0.20629377615712582
1783174334017886700,5.52888671875,-0.08727087169587612,0.10059738625884056,-0.24803181741852312
1783174334027955700,5.538955810546875,-0.06149754801392555,0.10136720158755778,-0.159904913415201
1783174334038023700,5.549023681640625,0.05180909769237041,0.11284662697911262,-0.0660472472075373
1783174334048092700,5.5590927734375,0.1083896475702524,0.05608721340298652,-0.07196326631829142
1783174334058161000,5.569160888671875,0.10734423017054795,0.05273439584374427,-0.04587999990433454
1783174334068229600,5.579229736328125,-0.012113923902809619,0.040482817035913464,-0.08442088909223676
1783174334078297600,5.589297607421875,-0.18135025436282157,0.0663274523884058,-0.16041026912145315
1783174334088366800,5.599366943359375,-0.23520868580043314,0.060464697834849354,-0.20461028004959225
1783174334098434600,5.6094345703125,-0.17572481569647788,0.040731238839030265,-0.17446634006798267
1783174334108503600,5.619503662109375,-0.04200841916799545,0.07287234398722649,-0.15878179113678634
1783174334118572800,5.62957275390625,0.06243862825632095,0.10883914490342139,-0.11390190818570553
1783174334128640800,5.639640869140625,0.09001461744606494,0.14640578223168849,-0.07801723259501159
1783174334138709800,5.649709716796875,0.09976444256603717,0.12223814018070697,-0.0384584716014564
1783174334148777700,5.65977783203125,0.0862432822138071,0.06224105985760688,-0.0010374532889574765
1783174334158846700,5.6698466796875,0.1083005079820752,0.0026747721672058106,0.03910743702948093
1783174334168914700,5.679914794921875,0.03706950146108866,0.029071196183562277,-0.05413775983564555
1783174334178983700,5.689983642578125,-0.10762684650421142,0.07606032637357711,-0.13271949444562195
1783174334189052700,5.700052734375,-0.155845518489182,0.12322539765238762,-0.13386822608932852
1783174334199120600,5.71012060546875,-0.11183481958806514,0.11611644243001937,-0.14155030502453445
1783174334209189600,5.720189697265625,-0.050065176634490484,0.07621697824001311,-0.09684073713906109
1783174334219257600,5.730257568359375,-0.006742752258479595,0.018179215291142463,-0.09774126617535948
1783174334229326800,5.740326904296875,-0.06572364127635956,0.0050134442478418344,-0.09871917129680514
1783174334239394600,5.75039453125,-0.09266308612823486,-0.006498714369535446,-0.10260280779711901
1783174334249463800,5.7604638671875,-0.12467588872164487,0.03337561537921428,-0.09790149823836981
1783174334259533000,5.770532958984375,-0.1284761577874422,0.03255494664609432,-0.1415715670082718
1783174334269600800,5.780600830078125,-0.13807751434743404,0.044475101542472834,-0.17283450108245013
1783174334279669800,5.790669677734375,-0.04439005360752344,0.05189736049771308,-0.1155064207728952
1783174334289737700,5.80073779296875,0.06564706890881061,0.05856383264958858,-0.09629610886834561
1783174334299806700,5.810806640625,0.09609598318636417,0.056084875315427773,-0.1234326106622815
1783174334309874700,5.820874755859375,0.0737041186362505,0.026569442495703696,-0.15885609848201274
1783174334319944000,5.83094384765625,-0.014859715479612349,0.030117490366101264,-0.17853037463650107
1783174334330012000,5.841011962890625,-0.07699731496274471,0.07152151390016079,-0.19478190980069338
1783174334340080600,5.85108056640625,-0.08396364684402942,0.06897007585167884,-0.19288827807381748
1783174334350150000,5.86114990234375,-0.09047375939041376,0.10578151089847088,-0.16424385593496263
1783174334360217900,5.8712177734375,-0.06478606816530227,0.14767127212285994,-0.17412212974019348
1783174334370286600,5.88128662109375,-0.08826368212550878,0.15070786333978176,-0.1948597242772579
1783174334380354800,5.891354736328125,-0.1102481349185109,0.12197802793979644,-0.22708266249001025
1783174334390423800,5.901423828125,-0.08692337343245744,0.0538964253604412,-0.2125301863286644
1783174334400491800,5.91149169921875,-0.012743161717057227,0.019535890597105025,-0.17109262585118412
1783174334410560800,5.921560791015625,0.07624532755166291,0.02653787831366062,-0.1194434679608792
1783174334420629800,5.931629638671875,0.13435644799768923,0.010696750581264495,-0.07301262924075126
1783174334430698000,5.941697998046875,0.09191226776093243,0.02419686814546585,-0.10120170882754027
1783174334440766700,5.9517666015625,-0.08414455636888742,0.049044309154152865,-0.19396277543753385
1783174334450834700,5.961834716796875,-0.1658551635891199,0.022335165926814077,-0.20866160126700997
1783174334460904000,5.971904052734375,-0.12522709286361933,-0.02642331202328205,-0.10016578990854322
1783174334470972000,5.981971923828125,-0.013841478347778319,-0.06082651688456535,-0.013590133935213088
1783174334481040600,5.99204052734375,0.058287061534821986,-0.046698622810840605,0.0006681815851479768
1783174334491108900,6.00210888671875,-0.045375265252590176,0.02237958959043026,-0.08119520504400134
1783174334501177900,6.012177734375,-0.08172989644259214,0.08724573725461959,-0.11238704664334655
1783174334511246800,6.022246826171875,-0.04879296474158763,0.10158756633996963,-0.08307429678887128
1783174334521314800,6.032314697265625,-0.04831307227015495,0.05703004721105098,-0.16065847172886133
1783174334531383800,6.0423837890625,0.03409574634730816,-0.00043020811080932614,-0.10457746887095272
1783174334541452000,6.0524521484375,0.004809446108341216,-0.0020908347994089125,-0.10514956967048346
1783174334551520800,6.062520751953125,-0.06791852097213268,0.025233225455880165,-0.11452047847546637
1783174334561588700,6.072588623046875,-0.07826514294147491,0.0595259556800127,-0.14842757038287818
1783174334571658000,6.082657958984375,-0.024724106889963147,0.07039572474062443,-0.0989214158706367
1783174334581726700,6.092726806640625,0.004036123648285866,0.04810264438986778,-0.09846870366707444
1783174334591794700,6.102794677734375,-0.008157587492465972,0.0689373426258564,-0.12203129249699413
1783174334601864000,6.112864013671875,-0.008592471778392792,0.0766799195766449,-0.11235986637547611
1783174334611932000,6.122931884765625,0.014537351657450199,0.05758183587491512,-0.10159830692969261
1783174334622001000,6.1330009765625,0.033118133486807345,0.07278583474755286,-0.07487170111089944
1783174334632068900,6.14306884765625,-0.03477233043462038,0.03952887731194496,-0.04214548955112696
1783174334642137900,6.153137939453125,-0.12214666250497103,0.14838497335016726,-0.13229900401122868
1783174334652206800,6.163206787109375,-0.1102440432652831,0.2244312711983919,-0.23782748999670147
1783174334662274800,6.17327490234375,-0.11380115122497081,0.19031915823817253,-0.2604284672528505
1783174334672343800,6.18334375,-0.05708470000773668,0.12558569704294203,-0.16010829050019382
1783174334682412000,6.193412109375,-0.00549596706777811,0.023818097960948942,-0.10750146655887365
1783174334692480800,6.203480712890625,-0.030035072779655454,-0.011792144602537155,-0.09938143459782003
1783174334702548700,6.213548828125,0.000839081172645092,0.006798574098944664,-0.10328487177714706
1783174334712618000,6.223617919921875,-0.04124561810195446,0.042886955568194385,-0.11759462522380053
1783174334722686700,6.233686767578125,-0.0428667895630002,0.1144336039096117,-0.1380954153303057
1783174334732754700,6.243754638671875,-0.013943185156583784,0.16754676993787287,-0.17273381718695163
1783174334742824000,6.253823974609375,0.004118541234731674,0.13689502656459807,-0.13519012234285474
1783174334752892000,6.263891845703125,0.0053171033695340155,0.0712286684334278,-0.0965653542637825
1783174334762961000,6.2739609375,-0.04743424360901117,0.07839139966964721,-0.08460947046689689
1783174334773028900,6.28402880859375,-0.023892039979994294,0.06345277373492718,-0.047564299729466436
1783174334783097900,6.294097900390625,0.06287789645642042,0.031732524347305294,0.030533231560140848
1783174334793165800,6.304165771484375,0.07205313655883074,0.06983633729219436,0.02776822382621467
1783174334803234800,6.31423486328125,0.21274317149221897,0.06666355247497559,0.036984307395666834
1783174334813303800,6.3243037109375,0.31574995698034763,-0.01896890436410904,-0.03345058031156659
1783174334823371800,6.334371826171875,0.2366086157262325,-0.05129471842944622,-0.07156915243417024
1783174334833440800,6.344440673828125,0.059949149528145784,-0.001301145726442337,-0.17414572981148957
1783174334843508700,6.3545087890625,-0.1826663053974509,0.01830313393175602,-0.25264906542301174
1783174334853577700,6.36457763671875,-0.1912242903843522,0.013511808001995087,-0.19642142063602805
1783174334863645700,6.374645751953125,-0.2110468889683485,0.05531798259615898,-0.20549510006010532
1783174334873715000,6.38471484375,-0.24478783052861688,0.14221885193586348,-0.3189516756311059
1783174334883784000,6.394783935546875,-0.21692601013481616,0.22835867377519606,-0.3735806530497968
1783174334893851600,6.4048515625,-0.13185410978794096,0.15448387474715708,-0.20189795235097407
1783174334903921000,6.4149208984375,-0.10424304928481579,0.06428396386206149,-0.11817081767655908
1783174334913988900,6.42498876953125,0.030492461158335208,-0.0017079729616641998,-0.10726254323646425
1783174334924057600,6.4350576171875,0.14154752854555844,-0.028089199408888814,-0.05776822529248893
1783174334934125800,6.445125732421875,0.17502222038507462,0.008255202648043632,-0.034096111673489214
1783174334944194800,6.45519482421875,0.1724696132928133,0.00251227508187294,-0.054067690274119375
1783174334954263800,6.465263916015625,-0.07448211727142333,-0.004635843107104301,-0.1759598665613681
1783174334964331800,6.475331787109375,-0.26770897964984175,0.06446224303841591,-0.23693602104969322
1783174334974400800,6.48540087890625,-0.2502399584546685,0.1393856743365526,-0.2468772770885378
1783174334984469000,6.495468994140625,-0.14091156872957944,0.15764087747335434,-0.1648964746247977
1783174334994537700,6.505537841796875,0.014140169033408164,0.11975918284654617,-0.10684745962955057
1783174335004605700,6.515605712890625,0.03196428727656603,0.0812199010938406,-0.09546959491632878
1783174335014675000,6.525675048828125,0.024423078116774556,0.052071548020839686,-0.09858129719607532
1783174335024743000,6.535742919921875,0.02003156515955925,0.01614800172448158,-0.13607070456966758
1783174335034811600,6.545811767578125,-0.041964580026268954,0.0199812962770462,-0.15841529591195283
1783174335044881000,6.555880859375,-0.12229016262888907,0.024430092379450798,-0.21740743697620926
1783174335054948900,6.565948974609375,-0.15669979723095892,0.05567103381752968,-0.19875622025914488
1783174335065017900,6.576017822265625,-0.06687222678959369,0.02178922248184681,-0.10197159722149371
1783174335075085800,6.5860859375,0.022806290569901466,0.05990414134263992,-0.0650569209959358
1783174335085154800,6.59615478515625,0.047691433240473265,0.08080372150838375,-0.03908895152471959
1783174335095222800,6.606222900390625,0.04546206675320864,0.06974281378984451,-0.02705167305469513
1783174335105291800,6.616291748046875,-0.0944394481509924,0.0804267048895359,-0.14250395248755812
1783174335115360800,6.62636083984375,-0.17015432208776474,0.07380699448883533,-0.19774309769384563
1783174335125429000,6.636428955078125,-0.10251987875401973,0.06983341468274593,-0.157789784424752
1783174335135497700,6.646497802734375,0.017478373545408248,0.05138064314723015,-0.1369349932488054
1783174335145565700,6.656565673828125,0.04901040688455104,0.014233108013868331,-0.13817878276482223
1783174335155635000,6.666635009765625,-0.0011298808127641678,0.03958732950091362,-0.1422634947951883
1783174335165703000,6.676702880859375,-0.09217413356751203,0.06783668790757656,-0.20420739833712576
1783174335175771600,6.686771728515625,-0.06703033996075392,0.08584756089448928,-0.10739691020585596
1783174335185839900,6.69683984375,-0.04060585889369249,0.13028466851413248,-0.1125562657304108
1783174335195908900,6.706908935546875,-0.010819792439043522,0.1311860012680292,-0.12224873463995754
1783174335205977900,6.716977783203125,-0.02178951474279165,0.09753975225389003,-0.11363792348727583
1783174335216045800,6.7270458984375,-0.09245061242133379,0.07636252419054508,-0.16004077822193502
1783174335226114800,6.73711474609375,-0.11174626452177762,0.10837035834789276,-0.23173940225467085
1783174335236183000,6.74718310546875,-0.05648614959269762,0.06521919888556003,-0.2093511909663677
1783174335246251800,6.757251708984375,-0.0006052724167704582,0.03216331698000431,-0.13161584405265747
1783174335256320300,6.7673203125,0.029103929409384725,0.03776420572698116,-0.06746347068101168
1783174335266389200,6.77738916015625,0.04508943404853344,0.013982348123192786,-0.05305617514401674
1783174335276458200,6.787458251953125,0.01771393586695194,0.08429857788681984,-0.12320764279998839
1783174335286526200,6.797526123046875,-0.0055865679606795305,0.1240846448302269,-0.08996149901933967
1783174335296595500,6.807595458984375,0.04428454740643501,0.07525193260014057,-0.03998538890779018
1783174335306663200,6.8176630859375,0.02225274834036827,0.050292263388633726,-0.09214045049361884
1783174335316732400,6.827732421875,-0.0641968701004982,0.019821137279272077,-0.11081475582532584
1783174335326800400,6.83780029296875,-0.07316957336813211,-0.032251579785346984,-0.12789506996385752
1783174335336869000,6.847869140625,0.015889935310184955,-0.04500643194019794,-0.12530037729553878
1783174335346938400,6.8579384765625,0.025658172869682312,-0.031472996628284455,-0.0390498616233468
1783174335357006300,6.86800634765625,0.03159253135472536,-0.009050736939907074,-0.06098521457761526
1783174335367075300,6.878075439453125,-0.05525514649301767,0.07557868033647537,-0.11313852259777486
1783174335377143300,6.888143310546875,-0.008398702771961688,0.1130786821693182,-0.12512370555438102
1783174335387212300,6.89821240234375,0.04433540081083774,0.08246434819698334,-0.09589125439450144
1783174335397280300,6.9082802734375,0.02365267826616764,0.05427051936984062,-0.14593494984954594
1783174335407349200,6.918349365234375,-0.013540449574589728,0.0181079036206007,-0.23868016130328176
1783174335417418200,6.928418212890625,-0.03462356961369514,-0.06036942076683044,-0.18028481708839533
1783174335427486500,6.938486572265625,-0.08422025195360183,-0.044215573823451995,-0.09302227482944726
1783174335437555200,6.94855517578125,-0.10287088414877653,0.04405366126000881,-0.07285590430907905
1783174335447623200,6.958623046875,-0.09257131619155406,0.0833767868667841,-0.06324797187782824
1783174335457692400,6.9686923828125,-0.05021802910864353,0.13489771526753902,-0.04062712087742984
1783174335467760400,6.978760498046875,-0.020142332057654855,0.1434381645977497,-0.06039828153513371
1783174335477829000,6.9888291015625,0.023607962341606614,0.1463923382282257,-0.0656138972915709
1783174335487897300,6.9988974609375,0.02902618799805641,0.12422960625886917,-0.13627769838385284
1783174335497966300,7.00896630859375,0.014570961666107177,0.11184241837263106,-0.14968385405428708
1783174335508035300,7.019035400390625,-0.029793372978270054,0.08183774073123931,-0.1596606928631663
1783174335518103300,7.029103271484375,-0.09831921219378709,0.07015490172207355,-0.16916903737746178
1783174335528172300,7.03917236328125,-0.12419102781414985,0.07077040327191353,-0.18554317600801587
1783174335538240500,7.049240478515625,-0.14988544104099272,0.021945874348282813,-0.1388954796668142
1783174335548309200,7.059309326171875,-0.151996149584651,0.041516836258769035,-0.09672639004439115
1783174335558377200,7.069377197265625,-0.0986433295816183,0.03567044831812381,-0.08528788118511438
1783174335568446500,7.079446533203125,-0.053956631115078924,0.0777642076820135,-0.07309796943664551
1783174335578515200,7.08951513671875,0.028474691595137117,0.033738603472709655,-0.02474113109000027
1783174335588583200,7.099583251953125,0.08299421728998423,0.028884733700752258,-0.031709362667426466
1783174335598652400,7.10965234375,-0.0023851415708661078,0.08058861745297909,-0.10975092598609626
1783174335608720400,7.119720458984375,-0.05832067154347896,0.10908639766275882,-0.13951763015314936
1783174335618789400,7.129789306640625,-0.06888648922145366,0.12654548198580742,-0.17565357709117232
1783174335628857300,7.139857421875,-0.06391892994195222,0.10619885952770709,-0.18560944617725908
1783174335638926300,7.14992626953125,-0.046430619524419306,0.04274900840222835,-0.11218297543860971
1783174335648994300,7.159994384765625,-0.03374006477743387,-0.010635375782847404,-0.10371230340898037
1783174335659063300,7.170063232421875,-0.07419365571886301,0.009290390914678573,-0.09389956912063062
1783174335669132300,7.18013232421875,-0.053794426290690894,0.03953881418406963,-0.10282901776842772
1783174335679200500,7.190200439453125,0.008774550347030162,0.07049801607131957,-0.0803848385091871
1783174335689269200,7.200269287109375,-0.018667583329975604,0.06734101334512234,-0.10480521321222186
1783174335699337200,7.210337158203125,-0.04967617731690407,0.04296002080440521,-0.07188231003656984
1783174335709406500,7.220406494140625,-0.02399374678879976,0.018935586616396903,-0.006210398947447538
1783174335719474400,7.230474365234375,-0.07221300329566001,0.07339724464416504,-0.0827415577031672
1783174335729543200,7.240543212890625,-0.11445844608992338,0.12312836701869964,-0.12739165048636494
1783174335739612400,7.2506123046875,-0.12950930022746324,0.1923065326631069,-0.11143391063697636
1783174335749680400,7.260680419921875,-0.07720218988507986,0.18772037391662597,-0.19105185642689465
1783174335759749400,7.270749267578125,-0.021148294229805468,0.09767010063529014,-0.1936399001587182
1783174335769817300,7.2808173828125,0.011074351722002029,0.057364978253841396,-0.22037571219727395
1783174335779886300,7.29088623046875,0.027462299682199952,0.016193009909987448,-0.17855236727260052
1783174335789954300,7.300954345703125,-0.016125789892673492,0.018706454035639763,-0.17256730151362717
1783174335800023300,7.311023193359375,-0.019082886132597923,-0.043509471380710596,-0.1579256126988679
1783174335810092300,7.32109228515625,-0.006839490631222724,-0.018883564168214798,-0.06279153334721922
1783174335820160500,7.331160400390625,0.006604512831568717,0.016299392893910407,-0.03762399353869259
1783174335830229200,7.341229248046875,-0.0307280234798789,0.06547521947324275,-0.029317864421010014
1783174335840297200,7.351297119140625,-0.06124240420907735,0.121935942363739,-0.008200330655649304
1783174335850366500,7.361366455078125,-0.049691959407925604,0.1275964523434639,-0.05436798839494586
1783174335860434200,7.37143408203125,0.0026376550272107125,0.03374737130105495,-0.07671462556384503
1783174335870503400,7.38150341796875,0.05385580108910799,-0.016891513568162916,-0.10488295462355017
1783174335880571400,7.3915712890625,-0.003229483440518379,0.03898351838886738,-0.16556187973096967
1783174335890640400,7.401640380859375,-0.06788549548536539,0.10183248101174831,-0.17463994306921957
1783174335900709400,7.41170947265625,-0.061682841452956196,0.11086392872929572,-0.1827067104730755
1783174335910777300,7.42177734375,-0.03029839989095926,0.11059271057248114,-0.17184417487084866
1783174335920846300,7.431846435546875,-0.0004851531684398651,0.06881693111658096,-0.11409582332260906
1783174335930914300,7.441914306640625,0.00516658898293972,0.0385334365338087,-0.09410378645583986
1783174335940983300,7.4519833984375,-0.017705168038606642,0.04230360272228718,-0.16375380739569664
1783174335951051300,7.46205126953125,-0.04602934524714947,0.07369184367656707,-0.19665011482536793
1783174335961120300,7.472120361328125,-0.10001549471765755,0.10681436107754706,-0.13482545374892652
1783174335971189200,7.482189208984375,-0.06711012719869613,0.08304711652100086,-0.048042657830938695
1783174335981257500,7.492257568359375,0.025521102486550807,0.04695931957364082,-0.0517941923841834
1783174335991326200,7.502326171875,-0.006804711578786373,0.033251696738600726,-0.0508618799701333
1783174336001394200,7.512394287109375,-0.05972001694738865,0.04414601571857929,-0.06868994373604655
1783174336011463400,7.52246337890625,-0.0968874258249998,0.02671440392434597,-0.07782185615338384
1783174336021531400,7.532531494140625,-0.03599193535745144,0.02636369079053402,-0.07803074966371058
1783174336031600000,7.54260009765625,0.042679742558300496,0.027574820145964622,-0.10108261249251663
1783174336041669400,7.55266943359375,0.007205109073221683,0.044562195304036135,-0.15340879286155104
1783174336051737300,7.5627373046875,-0.07775514759272337,0.047238721036911006,-0.16325959413796662
1783174336061806000,7.57280615234375,-0.07609568994790315,0.052425183764100075,-0.16966259304806589
1783174336071874300,7.582874267578125,-0.07099193706810474,0.05779927801787853,-0.15252667626477778
1783174336081943300,7.592943359375,-0.04397942698001861,0.0505243185788393,-0.08813004580847919
1783174336092011300,7.60301123046875,-0.04347469232827425,0.06645254007279873,-0.12775208129659293
1783174336102080300,7.613080322265625,0.03547171087563038,0.05275777671933174,-0.09183825267665087
1783174336112149200,7.623149169921875,0.05378390489667654,0.050180035185813904,-0.12930435223989187
1783174336122217500,7.633217529296875,-0.11503946084827184,0.05423837066590786,-0.17137253877110778
1783174336132286200,7.6432861328125,-0.12842471986114978,0.026567688930034635,-0.18824154824651776
1783174336142354200,7.653354248046875,-0.07824585371911526,0.017009586989879606,-0.20533063021339476
1783174336152423400,7.66342333984375,-0.043321255332231516,0.03638531858921051,-0.22057057718224823
1783174336162491400,7.673491455078125,-0.005774199487268925,0.04163724776804447,-0.13373816996887325
1783174336172560100,7.68356005859375,0.016368366476893423,0.1024210945546627,-0.09834171628654002
1783174336182628400,7.69362841796875,0.04366758455187082,0.08911270017027854,-0.1280710110526532
1783174336192697300,7.703697265625,0.025988135476410386,0.0301899710804224,-0.08314034776240586
1783174336202766300,7.713766357421875,-0.04535977542251348,0.033228900384902955,-0.09968407080620527
1783174336212834300,7.723834228515625,-0.0776467187821865,0.0452741429656744,-0.10707673834078013
1783174336222903300,7.7339033203125,-0.01797229454219341,0.030796704801917076,-0.040279476483538745
1783174336232971500,7.743971435546875,0.03900602248162031,0.019871406161785125,-0.04505801599696278
1783174336243040300,7.754040283203125,0.024853286227583885,0.04618073641657829,-0.040805984575673936
1783174336253108200,7.764108154296875,-0.06717880852073431,0.0559141949236393,-0.11661306684054433
1783174336263176400,7.774176513671875,-0.04903612584769725,0.053582537105679506,-0.08318053364232182
1783174336273245400,7.784245361328125,0.034173487758636475,0.06852233208417892,-0.07503200623914599
1783174336283313400,7.7943134765625,0.046665889585018154,0.07433657132089137,-0.07485474997609853
1783174336293382400,7.80438232421875,-0.004613046753406525,0.12132336342334747,-0.12222396552488207
1783174336303450400,7.814450439453125,-0.06616583208590746,0.14763210915625094,-0.22138277034796774
1783174336313519400,7.824519287109375,-0.07970248226821422,0.10338730923831463,-0.1844181175008416
1783174336323587300,7.83458740234375,-0.04428805453777313,0.06642214493453502,-0.16524601871483027
1783174336333656600,7.844656494140625,0.01911532709747553,-0.02400631400942802,-0.15423406470455228
1783174336343724500,7.854724609375,0.0068634560286998745,-0.03985094887316227,-0.12103855513259767
1783174336353793300,7.864793212890625,-0.09247428555786609,0.006788052704930305,-0.13898228116743266
1783174336363862500,7.874862548828125,-0.12275193492174148,0.044732291173934936,-0.09395568322204052
1783174336373930500,7.884930419921875,-0.0645493367999792,0.07455927416086197,-0.03424867188669741
1783174336383999200,7.894999267578125,-0.025851357354223725,0.11069149477183818,-0.06426569755300879
1783174336394067500,7.9050673828125,-0.000618131898343563,0.1163029049128294,-0.064421034245193
1783174336404136400,7.915136474609375,-0.02244534830302,0.12717559658288954,-0.07358356099650264
1783174336414204400,7.925204345703125,-0.02444558220952749,0.11214520071148872,-0.17336517389304934
1783174336424273400,7.9352734375,-0.024037878191471098,0.08752221610844135,-0.18778437906354664
1783174336434342400,7.94534228515625,-0.03696136491149664,0.05889759464859962,-0.159666465016827
1783174336444410600,7.95541064453125,0.03335106545984745,0.0225999543428421,-0.16226203446798027
1783174336454479400,7.965479248046875,0.07248071432113647,-0.0011029928058385848,-0.0944192821457982
1783174336464547300,7.97554736328125,-0.013458616510033607,0.0428512997329235,-0.1553776817817241
1783174336474616600,7.985616455078125,-0.10314677848070859,-0.008632803788781165,-0.16992482418082652
1783174336484684500,7.9956845703125,-0.16181231793910264,-0.011958148819208144,-0.1418812905445695
1783174336494753300,8.005753173828126,-0.09331833516657352,0.059192778202891344,-0.19005751162730156
1783174336504822500,8.015822509765625,-0.05305529836118221,0.025225042149424552,-0.12927702584154904
1783174336514890500,8.025890380859375,-0.00407645565867424,0.006032850423455238,-0.03742766724899411
1783174336524959500,8.03595947265625,-0.018765198485553265,0.10201952801644802,-0.07353555713631213
1783174336535027500,8.04602734375,-0.05549158559739589,0.1508364581555128,-0.10388744078017771
1783174336545096400,8.056096435546875,0.05572510209232569,0.17782208023667334,-0.06796141026578843
1783174336555164400,8.066164306640625,0.19451018018722532,0.15528116260468958,-0.0595057166095823
1783174336565233400,8.0762333984375,0.14548457573354243,0.09786825355589389,-0.059070686193183064
1783174336575301400,8.08630126953125,0.048289399133622644,0.044778468403220174,-0.13287475807256996
1783174336585370600,8.09637060546875,-0.06560732142031192,0.0012298340559005736,-0.16508052595481276
1783174336595439400,8.106439453125,-0.060732116599380964,-0.02855564787685871,-0.10428191999047993
1783174336605507300,8.11650732421875,-0.029304420417547224,-0.005235562565922737,-0.0779438020326197
1783174336615576600,8.12657666015625,0.04377513657957315,0.027960604593157766,-0.04161693563237786
1783174336625644500,8.13664453125,-0.025330840611457822,0.08477204061746597,-0.0938210970569402
1783174336635713300,8.14671337890625,-0.10255378102362156,0.07136018585860729,-0.11178908075019717
1783174336645781500,8.156781494140626,-0.06710311293601989,0.06818506295382976,-0.11634762083739042
1783174336655850500,8.1668505859375,-0.030351006861031055,0.0996720881074667,-0.14146810663379727
1783174336665919500,8.17691943359375,0.0019444120660424232,0.09984802919626236,-0.18854053119309244
1783174336675987500,8.186987548828125,-0.02432721652686596,0.06977554701566696,-0.18409078524261713
1783174336686056400,8.197056396484374,0.0034428339302539825,-0.0184258835285902,-0.12821801830790935
1783174336696124700,8.207124755859375,0.0012122983992099762,-0.011684592574834823,-0.10494542540051043
1783174336706193400,8.217193359375,-0.06278992591202259,0.02797171050906181,-0.10656710831820965
1783174336716261400,8.227261474609374,-0.08141980758011341,0.0499316133826971,-0.14300174594186246
1783174336726330600,8.23733056640625,-0.013309271167218684,0.08588613933920859,-0.13936689657084644
1783174336736399400,8.2473994140625,0.0012780571117997168,0.11316752949655055,-0.15247465381659567
1783174336746467300,8.25746728515625,-0.05891396126151085,0.08758417542874812,-0.12250124809630214
1783174336756536600,8.26753662109375,-0.07115589545816182,0.08521803081929682,-0.09080379506237804
1783174336766604500,8.2776044921875,-0.06694529202580451,0.11455167733132839,-0.11035342192389071
1783174336776673500,8.287673583984375,-0.06329787543416023,0.06189210028946399,-0.0960489291742444
1783174336786741500,8.297741455078125,-0.035896073767542835,0.07238660629689693,-0.13910619980804623
1783174336796810500,8.307810546875,-0.07809037089645862,0.05754442647397518,-0.061644409138709305
1783174336806878200,8.317878173828126,-0.0939642318546772,0.08195406058728695,-0.1392654089577496
1783174336816947500,8.327947509765625,-0.13449965586066245,0.03577741582393646,-0.1676110673457384
1783174336827016400,8.338016357421875,-0.12822598241865635,0.03594166647493839,-0.11228102898560463
1783174336837084400,8.34808447265625,-0.08433774085342884,0.0631207653015852,-0.14933087589815258
1783174336847153400,8.3581533203125,-0.062091714514791965,0.10815993046760558,-0.1247097909912467
1783174336857221400,8.368221435546875,-0.06250964766591786,0.13173778993189333,-0.15891645036712287
1783174336867290600,8.37829052734375,-0.02292582529634237,0.11552724436521529,-0.14011924930810926
1783174336877358300,8.3883583984375,0.06501432396322489,0.06633329760730267,-0.07272752868905663
1783174336887427300,8.39842724609375,0.06545037729293107,0.03148994776308536,-0.10850516370870172
1783174336897496600,8.40849658203125,-0.05391659136563539,-0.015621932023763656,-0.12248283565677702
1783174336907564300,8.418564208984375,-0.2060167858466506,-0.007620411875844001,-0.08703772052712738
1783174336917633500,8.428633544921874,-0.17304273700565098,0.042380759611725806,-0.0810572578780353
1783174336927701500,8.438701416015626,-0.07406272281557322,0.08256547048389912,-0.14136325801983474
1783174336937770200,8.448770263671875,0.08076806567311287,0.0590770428687334,-0.09762487325407564
1783174336947838500,8.45883837890625,0.11514613609313964,0.00890402194559574,-0.04869388828128576
1783174336957907500,8.468907470703124,0.009776128605008125,0.03480067974627018,-0.04625285180471837
1783174336967976400,8.4789765625,-0.06378215181976557,0.05839549034535885,-0.08007299608103931
1783174336978044400,8.48904443359375,-0.039926059935986996,0.037895723152160644,-0.05820215973034501
1783174336988113400,8.499113525390625,0.02413549334704876,0.017962942191958427,-0.01743796846978366
1783174336998181400,8.509181396484376,0.025276187814772127,0.08737842372357844,-0.11845489531494677
1783174337008250400,8.51925048828125,-0.022469605961441992,0.15027297905385492,-0.19880605075024066
1783174337018318300,8.529318359375,-0.12074264092594385,0.15113514884114265,-0.2518188982091844
1783174337028387600,8.5393876953125,-0.05443155515044927,0.0497054034113884,-0.17971498131118713
1783174337038455600,8.54945556640625,0.053327977822721,-0.04639408690631389,-0.06827237591110169
1783174337048524300,8.559524169921875,-0.00215542446821928,-0.019847440764307975,-0.05574490277133882
1783174337058593500,8.569593505859375,-0.10422668267190456,0.05177168829143047,-0.1054927570849657
1783174337068661500,8.57966162109375,-0.0951166167601943,0.06234335118830204,-0.045060573280230165
1783174337078730200,8.589730224609376,-0.0047530397459864615,0.08861118038892746,-0.0002959872718900442
1783174337088798500,8.599798583984375,0.035083588340878484,0.09240706554055213,-0.11017397370375692
1783174337098867500,8.609867431640625,0.06839139918088913,0.09078969347178935,-0.1062177834238857
1783174337108935400,8.619935302734374,0.047965281745791434,0.06996727019548415,-0.15263788155429064
1783174337119004400,8.63000439453125,-0.04234071986228227,0.04776245265007019,-0.19952778915353117
1783174337129073400,8.640073486328125,0.029924890403449533,0.0857382553011179,-0.1641059818342328
1783174337139141600,8.6501416015625,-0.05304886862039566,0.1320540162742138,-0.1796727496046573
1783174337149210400,8.66021044921875,-0.035380233199894424,0.01933481506705284,-0.11434059186391532
1783174337159278300,8.6702783203125,-0.0563517095580697,-0.005085924962162971,-0.11708163420036434
1783174337169347600,8.68034765625,-0.09717647189944982,0.012970540732145309,-0.051507849723473186
1783174337179415600,8.69041552734375,0.0037920857593417164,0.03132452806830406,0.032933497634902595
1783174337189484300,8.700484375,0.005442483314871788,0.07199614567458629,-0.0811045310858637
1783174337199553500,8.710553466796876,-0.16984394096434116,0.08138824339807033,-0.12309804494567214
1783174337209621500,8.72062158203125,-0.21790508430004119,0.01795885053873062,-0.15046411771178245
1783174337219690500,8.7306904296875,-0.09384148225784301,-0.013463877207040786,-0.1226549042880535
1783174337229758500,8.740758544921874,0.056905836309492586,-0.023121347868442534,-0.08926124179549515
1783174337239827500,8.750827392578126,-0.014061550839245318,-0.010928221249580383,-0.08948160654790699
1783174337249895400,8.7608955078125,-0.09746756380051373,0.07848258508443832,-0.12572415566556155
1783174337259965400,8.77096533203125,-0.07389145790189504,0.11088789412677287,-0.1229167700946331
1783174337270033700,8.78103369140625,0.01931172645241022,0.12096680507063864,-0.13883783119544385
1783174337280102400,8.791102294921876,0.05175649072229862,0.1507236454308033,-0.10832513096667826
1783174337290171400,8.80117138671875,0.07443886265158653,0.10521978536248207,-0.06703706196248531
1783174337300239600,8.811239501953125,0.1143073471814394,0.06949556103050708,-0.02304031852148473
1783174337310308400,8.821308349609374,0.050019876188039776,0.05230009607970714,-0.0911336846038699
1783174337320376300,8.831376220703126,0.005163666373491287,0.05767302128970623,-0.1295926676619798
1783174337330445600,8.841445556640625,-0.024240122765302657,-0.009430676168203353,-0.1167829435147345
1783174337340513500,8.851513427734375,-0.08062398102730513,0.01376256789267063,-0.11322839283831417
1783174337350582500,8.86158251953125,-0.10045037900358438,0.023103812211751937,-0.1389339119810611
1783174337360651500,8.871651611328126,-0.10094459226131439,0.009350012147426605,-0.12696706839874386
1783174337370719500,8.881719482421875,-0.09183072695732117,0.0941208837211132,-0.11974310849457978
1783174337380788500,8.89178857421875,-0.06834989812672138,0.12496785740554332,-0.1544961497068405
1783174337390856400,8.9018564453125,0.01530541342049837,0.0847398919135332,-0.07966558432392776
1783174337400925400,8.911925537109376,0.05218757561594248,0.0797077429652214,-0.11206424442976713
1783174337410993700,8.92199365234375,-0.013666706302762031,0.03366495371460915,-0.1309740390177816
1783174337421062400,8.9320625,-0.0027022446960210797,0.04021335244476795,-0.12507467878088355
1783174337431131600,8.942131591796874,-0.048532560239732264,0.10891630179286002,-0.18312310925424097
1783174337441199600,8.95219970703125,-0.08174363270699977,0.10461714329421519,-0.16079992602616547
1783174337451268400,8.962268310546875,-0.035487492966651914,0.05613339063227176,-0.09850238674096763
1783174337461336300,8.97233642578125,0.035411797381937504,-0.013276245680451392,-0.12477547663860022
