time,seconds_elapsed,z,y,x
1783174328570792000,0.0817919921875,-0.15928852558135986,0.10514412075281143,0.5429015159606934
1783174328580860000,0.09185986328125,-0.19031088054180145,0.19488918781280518,0.5674787759780884
1783174328590929200,0.10192919921875,-0.18772026896476746,0.32468143105506897,0.5644139647483826
1783174328600998000,0.111997802734375,-0.1331118792295456,0.4060039818286896,0.4947073757648468
1783174328611065900,0.12206591796875,-0.07857201993465424,0.4251026213169098,0.41620945930480957
1783174328621135000,0.132135009765625,-0.0638471394777298,0.4437796473503113,0.38619616627693176
1783174328631202800,0.142202880859375,-0.05156524106860161,0.4574885666370392,0.3506767451763153
1783174328641271800,0.152271728515625,-0.0184837207198143,0.3841179609298706,0.2561611533164978
1783174328651340000,0.162340087890625,0.027499740943312645,0.26536256074905396,0.09569734334945679
1783174328661409000,0.172408935546875,0.056675735861063004,0.08313069492578506,-0.11261511594057083
1783174328671478000,0.18247802734375,0.051070038229227066,-0.08151202648878098,-0.2627218961715698
1783174328681546000,0.1925458984375,-0.017713284119963646,-0.03599648177623749,-0.19812479615211487
1783174328691615000,0.202614990234375,-0.11557423323392868,0.1780240535736084,-0.026193663477897644
1783174328701683000,0.212682861328125,-0.182061105966568,0.334438681602478,0.025780320167541504
1783174328711752000,0.222751953125,-0.193412184715271,0.34075844287872314,-0.0677664503455162
1783174328721820000,0.23281982421875,-0.15735219419002533,0.22418418526649475,-0.19889011979103088
1783174328731889000,0.242888916015625,-0.1372130960226059,0.07814228534698486,-0.2707507312297821
1783174328741958000,0.2529580078125,-0.11265715956687927,-0.046697117388248444,-0.2557579278945923
1783174328752025900,0.26302587890625,-0.07233072817325592,-0.07169189304113388,-0.17222954332828522
1783174328762094800,0.2730947265625,-0.015977436676621437,-0.030389994382858276,-0.11406505107879639
1783174328772162800,0.283162841796875,0.05713118612766266,-0.013287930749356747,-0.1533849835395813
1783174328782232000,0.293232177734375,0.11884647607803345,-0.01845446228981018,-0.22720861434936523
1783174328792301000,0.303301025390625,0.15224908292293549,0.013409880921244621,-0.2729290723800659
1783174328802368800,0.31336865234375,0.14913904666900635,0.03185972571372986,-0.28277772665023804
1783174328812438000,0.32343798828125,0.1318127065896988,-0.015044882893562317,-0.2681952118873596
1783174328822506000,0.333506103515625,0.12269563227891922,-0.10268978029489517,-0.23965437710285187
1783174328832574700,0.34357470703125,0.11049821227788925,-0.22232268750667572,-0.23674355447292328
1783174328842643000,0.353642822265625,0.08487540483474731,-0.35190385580062866,-0.20989783108234406
1783174328852712000,0.3637119140625,0.05308260768651962,-0.3848298490047455,-0.08960956335067749
1783174328862781000,0.373781005859375,0.009755105711519718,-0.4022946059703827,0.026499202474951744
1783174328872849000,0.383848876953125,-0.023030364885926247,-0.42910295724868774,0.03863352909684181
1783174328882918000,0.39391796875,-0.016400691121816635,-0.44369789958000183,-0.01602998375892639
1783174328892986000,0.403986083984375,0.04784415289759636,-0.3843960165977478,-0.05156625062227249
1783174328903054800,0.414054931640625,0.1349087506532669,-0.29017603397369385,-0.07134635001420975
1783174328913122800,0.424122802734375,0.20152077078819275,-0.23162998259067535,-0.08143464475870132
1783174328923192000,0.434192138671875,0.19814974069595337,-0.21918903291225433,-0.06996014714241028
1783174328933260800,0.4442607421875,0.14379116892814636,-0.23564425110816956,-0.060918066650629044
1783174328943328800,0.454328857421875,0.08799581974744797,-0.2539609372615814,-0.055936623364686966
1783174328953398000,0.46439794921875,0.055815696716308594,-0.2632231116294861,-0.02674000896513462
1783174328963466000,0.474466064453125,0.057379502803087234,-0.26694008708000183,0.0010990796145051718
1783174328973535000,0.484534912109375,0.09041038900613785,-0.28192901611328125,-0.009631664492189884
1783174328983603000,0.49460302734375,0.11870834231376648,-0.27197813987731934,-0.06985212862491608
1783174328993672000,0.504671875,0.12948784232139587,-0.23872943222522736,-0.14024533331394196
1783174329003741000,0.514740966796875,0.10576440393924713,-0.13194359838962555,-0.18090380728244781
1783174329013809000,0.524808837890625,0.05052737891674042,-0.030501127243041992,-0.20197004079818726
1783174329023878000,0.5348779296875,-0.04277992993593216,0.03936583921313286,-0.19383488595485687
1783174329033946000,0.544946044921875,-0.12895600497722626,0.08402673900127411,-0.1635143756866455
1783174329044014800,0.555014892578125,-0.15010656416416168,0.11013449728488922,-0.17800596356391907
1783174329054084000,0.565083984375,-0.11963280290365219,0.16703231632709503,-0.27151235938072205
1783174329064152000,0.575152099609375,-0.06945298612117767,0.2933202087879181,-0.4501316547393799
1783174329074220800,0.585220703125,-0.05841905623674393,0.3585035502910614,-0.6378172636032104
1783174329084288800,0.595288818359375,-0.0625741183757782,0.3471139967441559,-0.7350780367851257
1783174329094358000,0.60535791015625,-0.08146701753139496,0.3210132420063019,-0.7119063138961792
1783174329104426000,0.615426025390625,-0.14257271587848663,0.26969626545906067,-0.6066685318946838
1783174329114495000,0.625494873046875,-0.24925445020198822,0.2407977133989334,-0.4297705292701721
1783174329124564000,0.63556396484375,-0.34186163544654846,0.2798745334148407,-0.23404313623905182
1783174329134632000,0.6456318359375,-0.39887678623199463,0.31983551383018494,-0.12123362720012665
1783174329144701000,0.655700927734375,-0.3794482350349426,0.31387534737586975,-0.10028893500566483
1783174329154769000,0.665768798828125,-0.31040552258491516,0.2805306315422058,-0.13351984322071075
1783174329164838000,0.675837890625,-0.19707845151424408,0.18436655402183533,-0.193256676197052
1783174329174906000,0.685906005859375,-0.06750763952732086,0.08556494861841202,-0.2570585608482361
1783174329184974800,0.695974853515625,0.02789691463112831,-0.02633548527956009,-0.2980235815048218
1783174329195044000,0.706044189453125,0.08580435067415237,-0.1188448816537857,-0.3010138273239136
1783174329205112000,0.716112060546875,0.10498656332492828,-0.13515514135360718,-0.22744932770729065
1783174329215180800,0.726180908203125,0.06573010981082916,-0.06393049657344818,-0.052577465772628784
1783174329225249000,0.7362490234375,0.020132267847657204,0.01218370534479618,0.16671760380268097
1783174329235318000,0.746318115234375,-0.007703975774347782,-0.0054064104333519936,0.3271442949771881
1783174329245386000,0.756385986328125,-0.028224430978298187,-0.08221756666898727,0.3810381591320038
1783174329255454500,0.766454345703125,-0.01385534554719925,-0.1486075222492218,0.3413253724575043
1783174329265523700,0.776523681640625,0.014733422547578812,-0.16411855816841125,0.23497922718524933
1783174329275591700,0.786591796875,0.01649789698421955,-0.18655115365982056,0.0794064849615097
1783174329285660400,0.796660400390625,0.06103900074958801,-0.16803552210330963,-0.030886996537446976
1783174329295728600,0.806728759765625,0.10991614311933517,-0.15718290209770203,-0.06840185075998306
1783174329305797600,0.816797607421875,0.11457747220993042,-0.15121743083000183,-0.056208036839962006
1783174329315865600,0.826865478515625,0.0857062041759491,-0.14903871715068817,-0.0018430212512612343
1783174329325934600,0.8369345703125,0.04213077202439308,-0.15535813570022583,0.06821516156196594
1783174329336003600,0.847003662109375,0.011393682099878788,-0.15331196784973145,0.12759904563426971
1783174329346071800,0.85707177734375,-0.01882547326385975,-0.16098719835281372,0.16343720257282257
1783174329356140500,0.867140625,-0.04109015315771103,-0.19377607107162476,0.17792242765426636
1783174329366208500,0.87720849609375,-0.023563625290989876,-0.09163025766611099,0.20352153480052948
1783174329376277800,0.88727783203125,0.026054373010993004,-0.06724785268306732,0.16804473102092743
1783174329386345700,0.897345703125,0.05986133962869644,-0.15311722457408905,0.11003176122903824
1783174329396414500,0.90741455078125,0.0902131050825119,-0.11864285916090012,0.0859721228480339
1783174329406483700,0.917483642578125,0.08877047151327133,-0.07505995780229568,0.04518767073750496
1783174329416551700,0.9275517578125,0.061039358377456665,-0.11432843655347824,-0.023272119462490082
1783174329426620700,0.93762060546875,0.030406080186367035,-0.12927089631557465,-0.08900532871484756
1783174329436688600,0.947688720703125,0.011201453395187855,-0.10684721171855927,-0.1629340499639511
1783174329446757600,0.957757568359375,-0.0049130674451589584,-0.08768577128648758,-0.24610163271427155
1783174329456826600,0.96782666015625,0.0257525946944952,-0.08119096606969833,-0.29261013865470886
1783174329466894600,0.97789453125,0.02007979527115822,-0.015330994501709938,-0.2511279284954071
1783174329476963600,0.987963623046875,-0.01723400503396988,0.003971301019191742,-0.14191921055316925
1783174329487031800,0.99803173828125,-0.0044010295532643795,0.002535590436309576,-0.0017179031856358051
1783174329497100500,1.0081005859375,0.017486384138464928,-0.02778489701449871,0.09489954262971878
1783174329507168500,1.01816845703125,0.036172185093164444,-0.06391866505146027,0.13938258588314056
1783174329517237800,1.02823779296875,0.04324447736144066,-0.10316380858421326,0.14132961630821228
1783174329527306500,1.038306396484375,0.05829722806811333,-0.1350206583738327,0.14247217774391174
1783174329537374500,1.04837451171875,0.08079162240028381,-0.12056954205036163,0.1248476505279541
1783174329547443700,1.058443603515625,0.08891772478818893,-0.08560463786125183,0.0736616924405098
1783174329557511700,1.06851171875,0.06949150562286377,-0.12833431363105774,0.022539623081684113
1783174329567580700,1.07858056640625,0.07136743515729904,-0.13852143287658691,0.024604372680187225
1783174329577648600,1.088648681640625,0.07291845977306366,-0.12331318110227585,0.07665372639894485
1783174329587717600,1.098717529296875,0.06451538950204849,-0.11627710610628128,0.1279297024011612
1783174329597786600,1.10878662109375,0.046393249183893204,-0.13559569418430328,0.16589681804180145
1783174329607854600,1.1188544921875,0.03588708117604256,-0.15853910148143768,0.19878606498241425
1783174329617923600,1.128923583984375,0.03854930400848389,-0.16364729404449463,0.2151765674352646
1783174329627991600,1.138991455078125,0.0476117767393589,-0.1713307797908783,0.21729803085327148
1783174329638060500,1.149060546875,0.056694600731134415,-0.17770390212535858,0.2171642929315567
1783174329648128500,1.15912841796875,0.05347616970539093,-0.16129429638385773,0.21631741523742676
1783174329658197800,1.16919775390625,0.04142852872610092,-0.1532335877418518,0.19256167113780975
1783174329668266500,1.1792666015625,0.04071826487779617,-0.1278664469718933,0.151633158326149
1783174329678334700,1.189334716796875,0.046981316059827805,-0.11430524289608002,0.10581401735544205
1783174329688403700,1.19940380859375,0.05091986432671547,-0.1035655066370964,0.06857610493898392
1783174329698471400,1.209471435546875,0.047674283385276794,-0.10704469680786133,0.059693604707717896
1783174329708540700,1.219540771484375,0.03800274804234505,-0.08597669005393982,0.08442717790603638
1783174329718608600,1.229608642578125,0.03104744851589203,-0.05300174653530121,0.12423839420080185
1783174329728677600,1.239677734375,0.027783477678894997,-0.030958494171500206,0.1449223756790161
1783174329738746600,1.24974658203125,0.026058651506900787,-0.0215598214417696,0.13958871364593506
1783174329748814600,1.259814697265625,0.02614307403564453,-0.005362475290894508,0.1344328373670578
1783174329758883800,1.2698837890625,0.024450402706861496,0.0011445730924606323,0.135836660861969
1783174329768951600,1.27995166015625,0.023007769137620926,0.008399023674428463,0.12250619381666183
1783174329779020500,1.2900205078125,0.021999118849635124,0.014763880521059036,0.09109478443861008
1783174329789088800,1.3000888671875,0.031134560704231262,0.007759233936667442,0.04231925681233406
1783174329799157500,1.310157470703125,0.035742681473493576,0.0003631599247455597,0.003372848965227604
1783174329809226500,1.3202265625,0.04440594092011452,-0.0024222400970757008,-0.003288515843451023
1783174329819294700,1.330294677734375,0.04389464110136032,-0.004504138603806496,0.03546203672885895
1783174329829363700,1.34036376953125,0.032306961715221405,-0.01024937629699707,0.091151662170887
1783174329839431400,1.350431396484375,0.023531019687652588,-0.015571864321827888,0.14349053800106049
1783174329849500700,1.360500732421875,0.0281705129891634,-0.019300023093819618,0.16317209601402283
1783174329859568600,1.370568603515625,0.03502072021365166,-0.01927962340414524,0.14960592985153198
1783174329869637600,1.3806376953125,0.033990345895290375,-0.026298651471734047,0.12452000379562378
1783174329879706600,1.39070654296875,0.028616325929760933,-0.01713567227125168,0.09370461106300354
1783174329889774600,1.400774658203125,0.021215932443737984,-0.006424172315746546,0.06270302087068558
1783174329899843600,1.410843505859375,0.01436019316315651,-0.00755933066830039,0.05035587400197983
1783174329909911600,1.42091162109375,0.009408044628798962,-0.01690196618437767,0.0526757538318634
1783174329919980500,1.43098046875,0.004584304057061672,-0.035180237144231796,0.07746800035238266
1783174329930048800,1.441048828125,0.0028838757425546646,-0.035341888666152954,0.11581113189458847
1783174329940117500,1.451117431640625,-0.004527959506958723,-0.017171422019600868,0.1298879086971283
1783174329950186800,1.461186767578125,-0.0028744025621563196,-0.017820168286561966,0.11858545243740082
1783174329960254700,1.471254638671875,0.029113778844475746,-0.027565304189920425,0.09529535472393036
1783174329970323500,1.481323486328125,0.04026150330901146,-0.031575758010149,0.06736598163843155
1783174329980391400,1.491391357421875,0.033448923379182816,-0.03436803072690964,0.05451162904500961
1783174329990460700,1.501460693359375,0.029116226360201836,-0.026927420869469643,0.06431126594543457
1783174330000528600,1.511528564453125,0.02879464626312256,-0.008954539895057678,0.08103573322296143
1783174330010597600,1.52159765625,0.03390472009778023,-0.011516500264406204,0.0856722965836525
1783174330020666600,1.53166650390625,0.0509256087243557,-0.020270656794309616,0.08740212023258209
1783174330030734600,1.541734619140625,0.058128926903009415,-0.01937929540872574,0.08803009241819382
1783174330040803600,1.551803466796875,0.0445038340985775,-0.033665213733911514,0.09848076850175858
1783174330050871600,1.56187158203125,0.03386743366718292,-0.04048476740717888,0.1140245720744133
1783174330060940500,1.5719404296875,0.031650759279727936,-0.04924418032169342,0.13072465360164642
1783174330071008800,1.5820087890625,0.034284889698028564,-0.047220177948474884,0.12876935303211212
1783174330081077500,1.592077392578125,0.03028983063995838,-0.04124516621232033,0.12230540066957474
1783174330091146800,1.602146728515625,0.026500951498746872,-0.0336034893989563,0.1066926121711731
1783174330101214700,1.612214599609375,0.022938895970582962,-0.030330684036016464,0.10638673603534698
1783174330111283500,1.622283447265625,0.032893259078264236,-0.0157429501414299,0.11107709258794785
1783174330121351700,1.6323515625,0.042546868324279785,-0.009280460886657238,0.10453770309686661
1783174330131420700,1.642420654296875,0.047363992780447006,-0.01624329760670662,0.078151635825634
1783174330141488600,1.652488525390625,0.041200581938028336,-0.022641049697995186,0.0569525770843029
1783174330151557600,1.6625576171875,0.03020891547203064,-0.021894831210374832,0.052463285624980927
1783174330161626600,1.672626708984375,0.02154715359210968,-0.025125639513134956,0.055183425545692444
1783174330171694600,1.682694580078125,0.01956682652235031,-0.01684853434562683,0.06295613199472427
1783174330181763600,1.692763671875,0.017769433557987213,-0.01566997915506363,0.052593544125556946
1783174330191831600,1.70283154296875,0.029143795371055603,-0.02140696346759796,0.0290213692933321
1783174330201900800,1.71290087890625,0.04494906961917877,-0.02605796419084072,0.007822949439287186
1783174330211968800,1.72296875,0.05855888873338699,-0.01834651455283165,0.0011139143025502563
1783174330222037500,1.73303759765625,0.06193849444389343,-0.016778655350208282,0.001845409395173192
1783174330232106800,1.743106689453125,0.04939660057425499,-0.011100529693067074,0.003091768827289343
1783174330242174700,1.7531748046875,0.023282306268811226,0.0007321685552597046,0.02868695557117462
1783174330252244000,1.763243896484375,0.0007082876400090754,0.015723101794719696,0.05364050716161728
1783174330262312200,1.773312255859375,-0.0013563751708716154,0.026391662657260895,0.06091200187802315
1783174330272381200,1.783381103515625,0.0044157602824270725,0.03460671752691269,0.049512606114149094
1783174330282449000,1.793448974609375,0.0076467846520245075,0.05103623867034912,0.02976248972117901
1783174330292518100,1.80351806640625,0.0017649270594120026,0.05465361475944519,-0.007028014399111271
1783174330302587100,1.813587158203125,0.0023905476555228233,0.04957769811153412,-0.04236221686005592
1783174330312654800,1.82365478515625,0.0037261229008436203,0.048721492290496826,-0.06160595268011093
1783174330322724000,1.83372412109375,0.0006204379023984075,0.04738343879580498,-0.0488213449716568
1783174330332792000,1.8437919921875,0.0009679803624749184,0.05113503709435463,-0.015566186048090458
1783174330342861000,1.853861083984375,-0.003080505644902587,0.0363987572491169,0.01019236445426941
1783174330352929000,1.863928955078125,0.0037507687229663134,0.019409652799367905,0.01585610955953598
1783174330362998000,1.873998046875,0.020420052111148834,0.012525809928774834,0.02008756622672081
1783174330373066200,1.884066162109375,0.02706889994442463,0.013270695693790913,0.014623027294874191
1783174330383135000,1.894135009765625,0.02540767192840576,0.00879131443798542,0.011800001375377178
1783174330393204000,1.904203857421875,0.02539382316172123,0.010664315894246101,0.01073180790990591
1783174330403272200,1.914272216796875,0.01874915137887001,0.016197895631194115,0.00511334091424942
1783174330413341000,1.9243408203125,0.01432777103036642,0.02062353678047657,-0.011643268167972565
1783174330423409000,1.934408935546875,0.0161808580160141,0.016045337542891502,-0.026482103392481804
1783174330433478100,1.94447802734375,0.014962728135287762,0.0008972776122391224,-0.031843844801187515
1783174330443546000,1.954546142578125,0.007186282426118851,-0.011254636570811272,-0.023936236277222633
1783174330453615000,1.964614990234375,0.0034237680956721306,-0.016816914081573486,-0.011868922971189022
1783174330463684000,1.97468408203125,-0.0013106975238770247,-0.015573106706142426,0.016063224524259567
1783174330473752000,1.984751953125,-0.00337251671589911,-0.013681462034583092,0.02426735870540142
1783174330483821000,1.994821044921875,0.0030195163562893867,-0.011151927523314953,0.026585375890135765
1783174330493889000,2.004888916015625,0.018377965316176414,-0.02241683378815651,0.012662636116147041
1783174330503958000,2.0149580078125,0.030959049239754677,-0.029490916058421135,-0.0025447269435971975
1783174330514026200,2.025026123046875,0.026193056255578995,-0.043703146278858185,-0.010374420322477818
1783174330524095000,2.035094970703125,0.02413286082446575,-0.04572911560535431,-0.01098831556737423
1783174330534164000,2.0451640625,0.021755723282694817,-0.033195480704307556,0.0077984207309782505
1783174330544232200,2.055232177734375,0.01652834191918373,-0.010086705908179283,0.034217432141304016
1783174330554301000,2.065301025390625,0.018952084705233574,0.0018088361248373985,0.04550177603960037
1783174330564369000,2.075368896484375,0.04080639407038689,0.010949848219752312,0.03578553348779678
1783174330574438100,2.085438232421875,0.04983211308717728,0.014482798054814339,0.01256303209811449
1783174330584506000,2.095506103515625,0.04463614150881767,0.01977931335568428,-0.006707631982862949
1783174330594575000,2.1055751953125,0.03613133728504181,0.034969717264175415,-0.01065603457391262
1783174330604644000,2.11564404296875,0.021961988881230354,0.03291349112987518,-0.013640373945236206
1783174330614712000,2.125712158203125,0.008445912972092628,0.015002668835222721,-0.014216415584087372
1783174330624781000,2.135781005859375,0.0024841437116265297,0.0008041160181164742,-0.00021070451475679874
1783174330634849000,2.14584912109375,-0.0006384126027114689,0.005240143276751041,0.01997605711221695
1783174330644918000,2.15591796875,0.004838730674237013,0.009450005367398262,0.021762503311038017
1783174330654986200,2.165986328125,0.0072670006193220615,0.003819017671048641,0.004915345925837755
1783174330665055000,2.176054931640625,0.01355756726115942,-0.0004912451840937138,-0.014586182311177254
1783174330675124200,2.186124267578125,0.024829929694533348,-0.006798942107707262,-0.02251015044748783
1783174330685192200,2.196192138671875,0.03386318311095238,-0.010488002561032772,-0.021312374621629715
1783174330695261000,2.206260986328125,0.03844621777534485,-0.01185713242739439,-0.017590073868632317
1783174330705329200,2.2163291015625,0.03146299719810486,-0.02272760309278965,-0.01798717863857746
1783174330715398100,2.226398193359375,0.023013852536678314,-0.039299655705690384,-0.013833979144692421
1783174330725466000,2.236466064453125,0.014603064395487309,-0.04519830644130707,-0.009381333366036415
1783174330735535000,2.24653515625,0.003401808673515916,-0.043981507420539856,-0.012638113461434841
1783174330745603000,2.25660302734375,-0.004416484385728836,-0.04353415220975876,-0.020922333002090454
1783174330755672000,2.266672119140625,0.004841729067265987,-0.037444569170475006,-0.03207991272211075
1783174330765741000,2.276740966796875,0.01919044367969036,-0.04670864716172218,-0.04738331213593483
1783174330775809000,2.28680908203125,0.029337620362639427,-0.042492594569921494,-0.06129380315542221
1783174330785878300,2.296878173828125,0.021141400560736656,-0.04193195328116417,-0.06161992624402046
1783174330795946200,2.3069462890625,0.014423842541873455,-0.03906292840838432,-0.04459966719150543
1783174330806015000,2.317014892578125,0.012292565777897835,-0.03417437523603439,-0.022054217755794525
1783174330816083000,2.3270830078125,0.006662377156317234,-0.03131014481186867,0.0003405699972063303
1783174330826152200,2.337152099609375,-0.0008874785271473229,-0.027231553569436073,0.008870374411344528
1783174330836221000,2.347220947265625,-0.013210990466177464,-0.021089773625135422,0.008151853457093239
1783174330846289200,2.3572890625,-0.008497031405568123,-0.009187951683998108,-0.0044924188405275345
1783174330856358100,2.367358154296875,0.006426790729165077,0.00725733395665884,-0.021700967103242874
1783174330866426000,2.377426025390625,0.018880849704146385,0.006912244018167257,-0.034418702125549316
1783174330876495000,2.3874951171875,0.01267568301409483,0.006990008521825075,-0.03206899017095566
1783174330886563000,2.39756298828125,0.0005822689854539931,0.015474572777748108,-0.01349850557744503
1783174330896632000,2.407632080078125,-0.023797905072569847,0.01525113359093666,0.010844118893146515
1783174330906701000,2.417701171875,-0.041355207562446594,0.020672349259257317,0.025523798540234566
1783174330916769000,2.42776904296875,-0.04967572167515755,0.02718430943787098,0.02415519952774048
1783174330926838300,2.43783837890625,-0.03414667397737503,0.026084592565894127,0.009433550760149956
1783174330936906000,2.447906005859375,-0.016192175447940826,0.023122625425457954,-0.005448458716273308
1783174330946975000,2.45797509765625,-0.01142671424895525,0.016429301351308823,-0.005258309654891491
1783174330957043200,2.468043212890625,-0.015014893375337124,0.007902280427515507,0.0045721023343503475
1783174330967112200,2.4781123046875,-0.017798783257603645,0.003854605834931135,0.02048502303659916
1783174330977181000,2.488180908203125,-0.01879453845322132,0.005320143420249224,0.022991590201854706
1783174330987249200,2.498249267578125,-0.017430279403924942,0.0030064373277127743,0.02016822062432766
1783174330997318100,2.508318115234375,-0.016492847353219986,-0.0007384992204606533,0.0197525005787611
1783174331007385900,2.5183857421875,-0.024710020050406456,-0.0027037221007049084,0.02580721117556095
1783174331017455000,2.528455078125,-0.028661884367465973,0.0023333807475864887,0.040634628385305405
1783174331027523000,2.538523193359375,-0.022564664483070374,0.017788629978895187,0.04415995255112648
1783174331037592000,2.548592041015625,-0.011264339089393616,0.022182578220963478,0.03658006340265274
1783174331047660000,2.558659912109375,-0.00382806989364326,0.024121347814798355,0.026893900707364082
1783174331057729000,2.56872900390625,0.0046879202127456665,0.025726433843374252,0.007390506099909544
1783174331067798000,2.578798095703125,0.0036995946429669857,0.016998622566461563,-0.017943479120731354
1783174331077866000,2.588865966796875,0.002075865166261792,0.012572715058922768,-0.03916088119149208
1783174331087935000,2.59893505859375,-0.0005385267431847751,0.021072011440992355,-0.045582327991724014
1783174331098003200,2.609003173828125,-0.004130331799387932,0.019095413386821747,-0.03105904534459114
1783174331108072000,2.619072021484375,-0.006954125128686428,0.014809252694249153,0.00046204798854887486
1783174331118140000,2.629139892578125,-0.00002484605647623539,0.01551845297217369,0.027007903903722763
1783174331128209200,2.639209228515625,0.0006745515274815261,0.021694112569093704,0.032370369881391525
1783174331138278000,2.64927783203125,-0.0006165489903651178,0.02396259270608425,0.018079848960042
1783174331148346000,2.65934619140625,-0.006359552498906851,0.023470818996429443,-0.002694556722417474
1783174331158415000,2.6694150390625,-0.01058439165353775,0.0234479159116745,-0.008816897869110107
1783174331168483000,2.679483154296875,-0.015875112265348434,0.021308662369847298,-0.004838130436837673
1783174331178552000,2.689552001953125,-0.012745631858706474,0.02402615174651146,0.011100622825324535
1783174331188620000,2.6996201171875,-0.013220362365245819,0.016949165612459183,0.030217017978429794
1783174331198689000,2.70968896484375,-0.008930808864533901,0.015985101461410522,0.035698868334293365
1783174331208758000,2.719758056640625,-0.00945507362484932,0.014931386336684227,0.0245489701628685
1783174331218826000,2.729825927734375,-0.0020341752097010612,0.01245571207255125,-0.0009681074880063534
1783174331228895200,2.739895263671875,-0.0005938088288530707,0.01352284662425518,-0.02635274827480316
1783174331238963200,2.749963134765625,-0.005338762886822224,0.01778550259768963,-0.023118603974580765
1783174331249032000,2.760031982421875,-0.00622931495308876,0.01993066444993019,0.02736518532037735
1783174331259100000,2.770099853515625,-0.003124069655314088,0.012595520354807377,0.068944051861763
1783174331269169200,2.780169189453125,-0.001446999842301011,0.0007715695537626743,0.07499890774488449
1783174331279237000,2.790237060546875,0.0008968482143245637,-0.009178265929222107,0.058157071471214294
1783174331289306000,2.80030615234375,0.007616965565830469,-0.0065740738064050674,0.044874709099531174
1783174331299375000,2.810375,0.010415682569146156,-0.003682413138449192,0.03353070840239525
1783174331309443000,2.820443115234375,0.008657232858240604,0.002341803163290024,0.03227057307958603
1783174331319512000,2.830511962890625,0.00869371835142374,0.013402976095676422,0.02187599241733551
1783174331329580000,2.840580078125,0.013355588540434837,0.011554400436580181,-0.003624036442488432
1783174331339649000,2.85064892578125,0.019232653081417084,0.010239331051707268,-0.02492213435471058
1783174331349717200,2.86071728515625,0.014774872921407223,0.010317831300199032,-0.022038733586668968
1783174331359786000,2.870785888671875,-0.0003686601994559169,0.0176140945404768,0.008009713143110275
1783174331369855200,2.880855224609375,-0.013574132695794106,0.012612628750503063,0.04301738366484642
1783174331379923200,2.890923095703125,-0.020741766318678856,0.00004969863221049309,0.059550024569034576
1783174331389992000,2.900991943359375,-0.01725020632147789,-0.0038711056113243103,0.05718757212162018
1783174331400060200,2.91106005859375,0.0004235957167111337,-0.0004113931208848953,0.035205040127038956
1783174331410129200,2.921129150390625,0.00941991712898016,0.0039680637419223785,-0.0018481665756553411
1783174331420197000,2.931197021484375,0.010039635002613068,0.0050019025802612305,-0.026706112548708916
1783174331430266000,2.94126611328125,0.017430156469345093,0.01018716860562563,-0.030719082802534103
1783174331440335000,2.951335205078125,0.015880996361374855,0.005383091978728771,-0.020983895286917686
1783174331450403000,2.961403076171875,0.0024401412811130285,-0.0017427075654268265,-0.01233131717890501
1783174331460472000,2.97147216796875,-0.012209109030663967,-0.018930748105049133,0.006242900155484676
1783174331470540000,2.9815400390625,-0.024289971217513084,-0.028640754520893097,0.05267465114593506
1783174331480609300,2.991609375,-0.030738549306988716,-0.017667198553681374,0.09367774426937103
1783174331490677000,3.001677001953125,-0.016976699233055115,-0.011199858039617538,0.1004953682422638
1783174331500746000,3.01174609375,0.008591776713728905,-0.014303239062428474,0.05594014748930931
1783174331510814000,3.02181396484375,0.025673111900687218,-0.020298877730965614,0.005972052924335003
1783174331520883200,3.03188330078125,0.026608413085341454,-0.013266002759337425,-0.02212616056203842
1783174331530952000,3.041951904296875,0.015513935126364231,-0.0034146117977797985,-0.018209300935268402
1783174331541020200,3.052020263671875,0.006993417628109455,-0.0007786150090396404,0.005036632996052504
1783174331551089200,3.062089111328125,0.0016361932503059506,0.005361583549529314,0.03943231329321861
1783174331561156900,3.072156982421875,0.00641150726005435,0.011708429083228111,0.059968478977680206
1783174331571226000,3.08222607421875,0.0035985223948955536,0.012851555831730366,0.05990106239914894
1783174331581294000,3.092294189453125,-0.0012982320040464401,0.01814698427915573,0.04425578936934471
1783174331591363000,3.102363037109375,0.00035499801742844284,0.022658605128526688,0.028429385274648666
1783174331601432000,3.11243212890625,0.006906107999384403,0.0367046482861042,0.0156446173787117
1783174331611500000,3.1225,0.012994498014450073,0.040912434458732605,0.004775910638272762
1783174331621569300,3.1325693359375,0.014280005358159542,0.037501461803913116,0.025330454111099243
1783174331631637000,3.142636962890625,0.012316836044192314,0.03699502348899841,0.04818033427000046
1783174331641706000,3.1527060546875,0.009787632152438164,0.034782733768224716,0.04854998365044594
1783174331651774200,3.162774169921875,0.01162890624254942,0.038029782474040985,0.027240892872214317
1783174331661843000,3.172843017578125,0.01289843488484621,0.03298415616154671,0.009178003296256065
1783174331671912000,3.182911865234375,0.016222085803747177,0.031102793291211128,0.002809548983350396
1783174331681980200,3.192980224609375,0.024495461955666542,0.02889077179133892,0.0018169886898249388
1783174331692049200,3.203049072265625,0.027272049337625504,0.0344851128757,0.00672203628346324
1783174331702116900,3.213116943359375,0.03532677888870239,0.04279923439025879,0.0030008014291524887
1783174331712186000,3.22318603515625,0.03549029678106308,0.050179921090602875,0.012343969196081161
1783174331722254000,3.233254150390625,0.028726400807499886,0.049691762775182724,0.02226344496011734
1783174331732323000,3.243322998046875,0.017818110063672066,0.052240051329135895,0.03423047810792923
1783174331742391000,3.25339111328125,0.018411729484796524,0.055547431111335754,0.03098408691585064
1783174331752460000,3.2634599609375,0.018596956506371498,0.04551476240158081,0.009621728211641312
1783174331762529000,3.273529052734375,0.01872212439775467,0.033752910792827606,-0.02113778330385685
1783174331772597000,3.283596923828125,0.014079874381422997,0.027592360973358154,-0.030406920239329338
1783174331782666000,3.293666015625,0.016854356974363327,0.03201427683234215,-0.01946505531668663
1783174331792734200,3.303734130859375,0.02299102582037449,0.03277188912034035,-0.0072551872581243515
1783174331802803000,3.313802978515625,0.02600812166929245,0.02267131768167019,-0.010772956535220146
1783174331812871000,3.323870849609375,0.022629454731941223,0.012385530397295952,-0.014556345529854298
1783174331822940200,3.333940185546875,0.010765071958303452,0.022443225607275963,-0.012409304268658161
1783174331833009000,3.3440087890625,0.0035136614460498095,0.015220563858747482,-0.014275158755481243
1783174331843077000,3.3540771484375,0.009780345484614372,0.012296678498387337,-0.015496484003961086
1783174331853146000,3.36414599609375,0.023385455831885338,0.020015789195895195,-0.019332770258188248
1783174331863214000,3.374214111328125,0.025673910975456238,0.013374397531151772,-0.014312712475657463
1783174331873283000,3.384282958984375,0.02234223671257496,0.010829971171915531,-0.005547218024730682
1783174331883351000,3.39435107421875,0.01951182819902897,0.010674442164599895,0.005875612609088421
1783174331893420000,3.404419921875,0.02073702961206436,0.0036418121308088303,0.01434183306992054
1783174331903489000,3.414489013671875,0.008657729253172874,-0.006101895123720169,0.028038203716278076
1783174331913557000,3.424556884765625,-0.003614331828430295,-0.0038195108063519,0.03702816367149353
1783174331923626200,3.434626220703125,-0.012948178686201572,0.0009390255436301231,0.02625833824276924
1783174331933694200,3.444694091796875,-0.0146719915792346,0.009346148930490017,0.0012945887865498662
1783174331943763000,3.454762939453125,0.0010417242301627994,-0.0036095972172915936,-0.01726151816546917
1783174331953831000,3.464830810546875,0.014787698164582253,-0.016658587381243706,-0.00903044082224369
1783174331963900200,3.474900146484375,0.021908193826675415,-0.042583659291267395,0.0042920224368572235
1783174331973968100,3.484968017578125,0.01039586216211319,-0.052723560482263565,0.03663333132863045
1783174331984037000,3.495037109375,-0.00432955427095294,-0.0466049462556839,0.06788551807403564
1783174331994106000,3.505106201171875,-0.017901796847581863,-0.041470739990472794,0.08211023360490799
1783174332004174000,3.515174072265625,-0.025083011016249657,-0.043409522622823715,0.08515182882547379
1783174332014243000,3.5252431640625,-0.02471676468849182,-0.02630852349102497,0.07694080471992493
1783174332024311000,3.53531103515625,-0.00411401828750968,-0.020431727170944214,0.0563146211206913
1783174332034380000,3.545380126953125,0.0043909926898777485,-0.00020532729104161263,0.03198261559009552
1783174332044448300,3.5554482421875,0.019836528226733208,-0.002811762969940901,0.010115664452314377
1783174332054517000,3.56551708984375,0.040623437613248825,0.011798331514000893,0.008868161588907242
1783174332064586200,3.575586181640625,0.05212429538369179,-0.006574817467480898,0.013694342225790024
1783174332074654200,3.585654296875,0.045837923884391785,0.0007823416963219643,0.031257208436727524
1783174332084723000,3.595722900390625,0.01980765350162983,0.0014507952146232128,0.049806125462055206
1783174332094791200,3.605791259765625,-0.0025914886500686407,0.004008634947240353,0.04710487648844719
1783174332104860200,3.615860107421875,-0.006273841485381126,0.002792102750390768,0.03910314291715622
1783174332114928000,3.62592822265625,0.0006125096115283668,0.014666814357042313,0.026160523295402527
1783174332124997000,3.6359970703125,0.019557971507310867,0.01796247623860836,0.013044454157352448
1783174332135065000,3.646065185546875,0.04086681455373764,0.01605471409857273,0.008270209655165672
1783174332145134000,3.656134033203125,0.050102125853300095,0.007830873131752014,-0.0058631859719753265
1783174332155203000,3.666203125,0.044843077659606934,0.00009241420775651932,-0.031240295618772507
1783174332165271000,3.67627099609375,0.04546518996357918,-0.0036948672495782375,-0.05365106463432312
1783174332175340300,3.68634033203125,0.057230185717344284,-0.011417824774980545,-0.08040297776460648
1783174332185408000,3.696407958984375,0.07202458381652832,-0.03233402594923973,-0.08999861031770706
1783174332195477000,3.70647705078125,0.06991323083639145,-0.03580226004123688,-0.06327405571937561
1783174332205545200,3.716545166015625,0.053626928478479385,-0.018918883055448532,-0.018214434385299683
1783174332215614200,3.7266142578125,0.051645003259181976,-0.00783027894794941,0.017982451245188713
1783174332225683000,3.736682861328125,0.05560272932052612,-0.008230287581682205,0.02850326895713806
1783174332235751200,3.746751220703125,0.051962465047836304,-0.0002943468280136585,0.02372140996158123
1783174332245820200,3.756820068359375,0.031323231756687164,0.0063124229200184345,0.030049080029129982
1783174332255888000,3.766887939453125,0.01626218855381012,0.015784461051225662,0.03995030000805855
1783174332265956600,3.77695654296875,0.010356094688177109,0.027282126247882843,0.03504129499197006
1783174332276024600,3.787024658203125,0.014280907809734344,0.03230734169483185,0.012551924213767052
1783174332286093800,3.79709375,0.023670414462685585,0.018337463960051537,0.007619750220328569
1783174332296162600,3.80716259765625,0.038909751921892166,0.030748095363378525,0.01719164103269577
1783174332306230800,3.817230712890625,0.03694460541009903,0.03950377181172371,0.026082072407007217
1783174332316299800,3.8272998046875,0.0216579157859087,0.042046044021844864,0.0192148108035326
1783174332326367700,3.83736767578125,0.01865706592798233,0.03376574441790581,0.01235237903892994
1783174332336436700,3.847436767578125,-0.003158699255436659,0.03357751667499542,0.025091268122196198
1783174332346504700,3.857504638671875,-0.018146703019738197,0.02837849222123623,0.06266847252845764
1783174332356573700,3.86757373046875,-0.02252567932009697,0.02126789465546608,0.10427320748567581
1783174332366642700,3.877642578125,-0.006447376683354378,0.010435487143695354,0.12409085035324097
1783174332376710700,3.887710693359375,0.006015865132212639,0.01053754985332489,0.11226055771112442
1783174332386780000,3.89777978515625,0.016952136531472206,0.01218870934098959,0.07638804614543915
1783174332396847600,3.90784765625,0.022803425788879395,0.01712864823639393,0.04352547228336334
1783174332406916600,3.91791650390625,0.011474073864519596,0.017713477835059166,0.018208667635917664
1783174332416984800,3.92798486328125,0.006363888271152973,0.012842725962400436,0.002633476397022605
1783174332427053600,3.938053466796875,0.022711701691150665,0.012096241116523743,-0.00843222439289093
1783174332437121500,3.94812158203125,0.05762976408004761,-0.0026117032393813133,-0.016696583479642868
1783174332447190800,3.958190673828125,0.0702425017952919,-0.002664966508746147,0.003873939160257578
1783174332457259800,3.968259765625,0.05569005385041237,-0.007054129149764776,0.02906336821615696
1783174332467327500,3.978327392578125,0.03397810086607933,-0.008568935096263885,0.04139913246035576
1783174332477396700,3.988396728515625,0.02151608094573021,-0.018298689275979996,0.03121284395456314
1783174332487464700,3.998464599609375,0.03175593540072441,-0.01977115124464035,0.004131691996008158
1783174332497533700,4.00853369140625,0.03953618183732033,-0.02456783317029476,-0.011803333647549152
1783174332507601700,4.0186015625,0.048725418746471405,-0.031691789627075195,-0.0047691259533166885
1783174332517670700,4.028670654296875,0.0346502847969532,-0.026480823755264282,0.014402933418750763
1783174332527739600,4.03873974609375,0.009949198924005032,-0.018957659602165222,0.036304771900177
1783174332537807600,4.0488076171875,-0.0007918364135548472,-0.010728863999247551,0.04249924421310425
1783174332547876600,4.058876708984375,0.01057799719274044,-0.008631093427538872,0.022148167714476585
1783174332557944800,4.06894482421875,0.02795637585222721,-0.0027435938827693462,-0.00558135099709034
1783174332568013600,4.079013671875,0.0455942265689373,0.0026631560176610947,-0.022441556677222252
1783174332578081500,4.08908154296875,0.05086268112063408,0.003057886380702257,-0.026760291308164597
1783174332588150800,4.09915087890625,0.045496147125959396,-0.002639414742588997,-0.016891948878765106
1783174332598218800,4.10921875,0.03593036159873009,-0.008797547779977322,-0.014307921752333641
1783174332608287700,4.119287841796875,0.02770146168768406,-0.016652807593345642,-0.004480856936424971
1783174332618356700,4.129356689453125,0.00719982897862792,-0.01395176537334919,0.019255634397268295
1783174332628424700,4.1394248046875,-0.005169222597032785,-0.018198976293206215,0.03759842365980148
1783174332638493700,4.14949365234375,0.01825050264596939,-0.015544166788458824,0.044156763702631
1783174332648561700,4.159561767578125,0.015686679631471634,0.001853997353464365,0.028213217854499817
1783174332658630700,4.169630615234375,0.013068278320133686,-0.0051096654497087,0.0039014415815472603
1783174332668699000,4.179698974609375,0.03347102180123329,-0.01222190447151661,-0.008111545816063881
1783174332678767600,4.189767578125,0.028391357511281967,-0.008786633610725403,-0.008437592536211014
1783174332688836900,4.1998369140625,0.020505737513303757,-0.013619473204016685,0.006301406305283308
1783174332698904800,4.20990478515625,0.014080105349421501,-0.017532119527459145,0.031185796484351158
1783174332708973600,4.2199736328125,0.0063388291746377945,-0.018135592341423035,0.07789231836795807
1783174332719041500,4.23004150390625,-0.014788422733545303,-0.020557744428515434,0.12365173548460007
1783174332729110800,4.24011083984375,-0.02247910015285015,-0.009480591863393784,0.131566122174263
1783174332739178800,4.2501787109375,0.004537665750831366,0.00023759109899401665,0.09104083478450775
1783174332749247700,4.260247802734375,0.02882462926208973,0.010442025028169155,0.031362589448690414
1783174332759315700,4.270315673828125,0.03940931335091591,0.013599945232272148,-0.01535450667142868
1783174332769384700,4.280384765625,0.04846326261758804,0.019043711945414543,-0.02185794524848461
1783174332779453700,4.29045361328125,0.06992746144533157,0.018178705126047134,-0.005292538553476334
1783174332789521700,4.300521728515625,0.06112944334745407,0.022805415093898773,0.014080093242228031
1783174332799590700,4.310590576171875,0.053725261241197586,0.022264279425144196,0.026939231902360916
1783174332809659000,4.320658935546875,0.02185920812189579,0.026770614087581635,0.04212244227528572
1783174332819727600,4.3307275390625,-0.004993762355297804,0.032956019043922424,0.066815085709095
1783174332829795600,4.340795654296875,-0.012511598877608776,0.041492246091365814,0.07203221321105957
1783174332839864800,4.35086474609375,-0.007306993473321199,0.04407952353358269,0.05075078457593918
1783174332849933600,4.36093359375,0.009232568554580212,0.051642101258039474,0.013932050205767155
1783174332860001800,4.371001708984375,0.025541363283991814,0.051187776029109955,-0.01153514813631773
1783174332870070800,4.38107080078125,0.03256784379482269,0.03623838722705841,-0.0033065134193748236
1783174332880138800,4.391138671875,0.0385640412569046,0.014967653900384903,0.032028038054704666
1783174332890207700,4.401207763671875,0.022831415757536888,0.008591247722506523,0.06230578199028969
1783174332900275700,4.411275634765625,0.016616929322481155,0.00778990238904953,0.06783983111381531
1783174332910344700,4.4213447265625,0.0030920659191906452,0.007231703959405422,0.04848717153072357
1783174332920413700,4.43141357421875,-0.003759576240554452,0.002883553970605135,0.0171201191842556
1783174332930481700,4.441481689453125,-0.008810261264443398,0.009593654423952103,0.01103852316737175
1783174332940551000,4.451551025390625,-0.005997680593281984,0.004124229773879051,0.017247002571821213
1783174332950618600,4.46161865234375,-0.005597940180450678,-0.00244206003844738,0.02830231562256813
1783174332960687600,4.4716875,-0.003735479898750782,-0.012458909302949905,0.029205087572336197
1783174332970755600,4.481755615234375,-0.005066793877631426,-0.013597944751381874,0.01898786798119545
1783174332980824800,4.491824951171875,-0.007910440675914288,-0.013313300907611847,0.023839503526687622
1783174332990892500,4.501892578125,-0.010966950096189976,-0.00941896066069603,0.034323036670684814
1783174333000961800,4.5119619140625,-0.010082428343594074,-0.012210283428430557,0.036130521446466446
1783174333011030800,4.52203076171875,-0.0076959701254963875,-0.016948312520980835,0.021510034799575806
1783174333021098500,4.532098388671875,-0.004605232272297144,-0.01452990435063839,-0.0005101228598505259
1783174333031167700,4.542167724609375,0.004932612646371126,-0.010341815650463104,-0.017846236005425453
1783174333041235700,4.552235595703125,0.0048655010759830475,-0.015395697206258774,-0.024064984172582626
1783174333051304700,4.5623046875,0.004974424373358488,-0.020523346960544586,-0.00901386234909296
1783174333061372700,4.57237255859375,0.007952386513352394,-0.01823924481868744,-0.00023250444792211056
1783174333071441700,4.582441650390625,0.009238960221409798,-0.01765548065304756,-0.0016106904949992895
1783174333081510700,4.5925107421875,0.0027271872386336327,-0.011894481256604195,0.006491823587566614
1783174333091578600,4.60257861328125,-0.0020129731856286526,-0.0014335843734443188,0.019165540114045143
1783174333101647600,4.612647705078125,-0.009153645485639572,-0.005922300741076469,0.018845997750759125
1783174333111715800,4.6227158203125,-0.004652636591345072,-0.009164432063698769,0.012720461003482342
1783174333121784600,4.63278466796875,0.002378622302785516,-0.008154533803462982,0.0026822537183761597
1783174333131852500,4.6428525390625,0.003997824154794216,-0.012909341603517532,0.00413021445274353
1783174333141921800,4.652921875,0.0070890928618609905,-0.014851325191557407,0.007202890235930681
1783174333151989800,4.66298974609375,0.003318589646369219,-0.028782587498426437,-0.0053038462065160275
1783174333162058500,4.67305859375,0.0017925382126122713,-0.04893210530281067,-0.0007512059528380632
1783174333172127700,4.683127685546875,-0.0019263001158833504,-0.05484272539615631,0.0151350824162364
1783174333182195700,4.69319580078125,-0.0076461061835289,-0.050183989107608795,0.02969742938876152
1783174333192264700,4.7032646484375,-0.012614499777555466,-0.03747085854411125,0.042357031255960464
1783174333202332700,4.713332763671875,-0.007190604228526354,-0.0203868318349123,0.033800143748521805
1783174333212401700,4.723401611328125,0.0010036765597760677,-0.008555471897125244,0.01595057174563408
1783174333222470000,4.733469970703125,0.012291346676647663,0.007535620126873255,-0.004605759400874376
1783174333232538600,4.74353857421875,0.021740509197115898,0.027185488492250443,-0.01898789405822754
1783174333242607600,4.753607666015625,0.02414357289671898,0.03472502529621124,-0.015542023815214634
1783174333252675800,4.76367578125,0.018942419439554214,0.04559018462896347,0.0004712971858680248
1783174333262744600,4.77374462890625,0.013259722851216793,0.05750083923339844,0.00849505327641964
1783174333272812500,4.7838125,0.013416050933301449,0.05641426891088486,0.002537029329687357
1783174333282881800,4.7938818359375,0.01151098869740963,0.055940911173820496,0.0034812716767191887
1783174333292949800,4.80394970703125,0.00781132560223341,0.05951806902885437,0.010753565467894077
1783174333303018800,4.814018798828125,0.009229200892150402,0.0619175024330616,0.013338440097868443
1783174333313086700,4.824086669921875,0.0103868767619133,0.05699891224503517,0.015660449862480164
1783174333323155700,4.83415576171875,0.006882835179567337,0.0644320398569107,0.011635908856987953
1783174333333224700,4.844224609375,0.0009884609607979655,0.06289033591747284,0.004135382827371359
1783174333343292700,4.854292724609375,-0.0028692050836980343,0.05337677150964737,-0.006874277722090483
1783174333353361700,4.864361572265625,-0.00034639250952750444,0.02930845506489277,-0.006051361095160246
1783174333363430000,4.874429931640625,0.006274886894971132,0.009940622374415398,0.010730892419815063
1783174333373498600,4.88449853515625,0.005814692936837673,0.0005164947360754013,0.020367274060845375
1783174333383566600,4.894566650390625,0.0029999720863997936,-0.004124491009861231,0.020392611622810364
1783174333393635800,4.9046357421875,0.0010281677823513746,-0.004660585429519415,0.010261149145662785
1783174333403704600,4.91470458984375,-0.00475205946713686,-0.007786184083670378,-0.00010265829041600227
1783174333413772500,4.9247724609375,0.0021702945232391357,0.0005441838875412941,-0.006433524657040834
1783174333423841800,4.934841796875,0.006208145059645176,0.004261810332536697,-0.013464609161019325
1783174333433909800,4.94490966796875,0.015793927013874054,-0.00005650520324707031,-0.022618958726525307
1783174333443978800,4.954978759765625,0.010247327387332916,-0.014895252883434296,-0.03182291239500046
1783174333454046700,4.965046630859375,0.00679826783016324,-0.03178714960813522,-0.03305835276842117
1783174333464115700,4.97511572265625,0.0015330258756875992,-0.03829599544405937,-0.011865878477692604
1783174333474183700,4.98518359375,0.0017005386762320995,-0.034577157348394394,0.02955959178507328
1783174333484251000,4.9952509765625,0.008322754874825478,-0.032004810869693756,0.04855751991271973
1783174333494319600,5.005319580078125,0.011342745274305344,-0.034888092428445816,0.03655431047081947
1783174333504387600,5.0153876953125,0.012113498523831367,-0.025089647620916367,0.00873846560716629
1783174333514456800,5.025456787109375,0.01525762677192688,-0.01614169031381607,-0.02105271816253662
1783174333524525600,5.035525634765625,0.02229742519557476,-0.008581243455410004,-0.04139634221792221
1783174333534593500,5.045593505859375,0.024559780955314636,-0.003535351250320673,-0.038227975368499756
1783174333544662800,5.055662841796875,0.028371170163154602,0.00580807588994503,-0.03353183716535568
1783174333554730800,5.065730712890625,0.03360214829444885,0.014132584445178509,-0.033373910933732986
1783174333564799700,5.0757998046875,0.04100816324353218,0.014729028567671776,-0.04035569354891777
1783174333574867700,5.08586767578125,0.03000051900744438,0.012308480218052864,-0.03958896920084953
1783174333584936700,5.095936767578125,0.019608398899435997,0.010274589993059635,-0.02747553586959839
1783174333595005700,5.106005615234375,0.008982120081782341,0.012044260278344154,-0.009720242582261562
1783174333605073700,5.11607373046875,0.0034339819103479385,0.009990857914090157,0.004453064873814583
1783174333615142700,5.126142578125,0.004146910272538662,0.00826592929661274,0.006762291770428419
1783174333625211000,5.1362109375,0.0065940972417593,0.007030739914625883,0.0005798724014312029
1783174333635279600,5.146279541015625,0.009400003589689732,-0.003211510833352804,-0.007501224055886269
1783174333645347600,5.15634765625,0.0049231699667871,-0.011023934930562973,0.0006496121641248465
1783174333655416800,5.166416748046875,-0.0032423485536128283,-0.009010318666696548,0.005935454275459051
1783174333665485600,5.176485595703125,-0.0036735308822244406,-0.017901990562677383,0.008591307327151299
1783174333675553800,5.1865537109375,0.0069988202303647995,-0.026453668251633644,0.00044283317402005196
1783174333685622800,5.196622802734375,0.013779863715171814,-0.02156718634068966,-0.006601645611226559
1783174333695690800,5.206690673828125,0.002686732914298773,-0.007785328663885593,-0.016960810869932175
1783174333705759700,5.216759765625,0.011230257339775562,-0.009615341201424599,-0.019796693697571754
1783174333715827700,5.22682763671875,0.008526615798473358,-0.006091978866606951,-0.01819933019578457
1783174333725896700,5.236896728515625,-0.0029003641102463007,-0.01708168163895607,0.0008488892344757915
1783174333735964700,5.246964599609375,-0.011216350831091404,-0.021508386358618736,0.01570240408182144
1783174333746033700,5.25703369140625,-0.019960522651672363,-0.02729351632297039,0.022630807012319565
1783174333756103000,5.26710302734375,-0.022126737982034683,-0.02855132706463337,0.020099740475416183
1783174333766170600,5.277170654296875,-0.006885938346385956,-0.024253210052847862,0.0012877392582595348
1783174333776239600,5.287239501953125,0.00704772025346756,-0.011396266520023346,-0.014806275255978107
1783174333786307800,5.297307861328125,0.009978365153074265,-0.005835207179188728,-0.013861803337931633
1783174333796376800,5.307376953125,0.004073870833963156,-0.001556307077407837,-0.003195843892171979
1783174333806444500,5.317444580078125,-0.007258514408022165,-0.0017132791690528393,0.007206881418824196
1783174333816513800,5.327513671875,-0.008946425281465054,0.004456998780369759,0.0035895095206797123
1783174333826582800,5.337582763671875,-0.011881986632943153,0.01204388216137886,-0.004234245978295803
1783174333836650500,5.347650390625,-0.009698194451630116,0.026991672813892365,-0.012595240026712418
1783174333846719700,5.3577197265625,0.00287798373028636,0.02764205075800419,-0.01963561400771141
1783174333856787700,5.36778759765625,0.012747125700116158,0.011654828675091267,-0.025487644597887993
1783174333866858800,5.377858642578125,0.010943563655018806,-0.006905034184455872,-0.015808530151844025
1783174333876926700,5.3879267578125,0.003101885784417391,-0.01230858825147152,-0.0012370450422167778
1783174333886995700,5.39799560546875,-0.006057412829250097,-0.011566266417503357,0.0005195343401283026
1783174333897063700,5.408063720703125,-0.015612567774951458,-0.023654622957110405,-0.007795386947691441
1783174333907132700,5.418132568359375,-0.022735483944416046,-0.02353600598871708,-0.018338005989789963
1783174333917201000,5.428200927734375,-0.005858500488102436,-0.03198008984327316,-0.015224768780171871
1783174333927269600,5.43826953125,0.005198969971388578,-0.031165001913905144,-0.014128915965557098
1783174333937337600,5.448337646484375,0.008487974293529987,-0.037248194217681885,-0.00890858843922615
1783174333947406800,5.45840673828125,0.004608942661434412,-0.03617946058511734,-0.014786372892558575
1783174333957475600,5.4684755859375,0.0031964019872248173,-0.031332772225141525,-0.02754850685596466
1783174333967543600,5.47854345703125,0.0013555992627516389,-0.04059727489948273,-0.041631534695625305
1783174333977612800,5.48861279296875,0.004311974626034498,-0.0407879576086998,-0.03812335059046745
1783174333987680800,5.4986806640625,0.006977102253586054,-0.04653175175189972,-0.03481532260775566
1783174333997749800,5.508749755859375,0.008780328556895256,-0.05442589521408081,-0.017558038234710693
1783174334007817700,5.518817626953125,-0.0009546328219585121,-0.05813654512166977,-0.002228697296231985
1783174334017886700,5.52888671875,-0.004315009340643883,-0.056131184101104736,0.004021475091576576
1783174334027955700,5.538955810546875,0.002755494322627783,-0.05134260281920433,-0.002995534101501107
1783174334038023700,5.549023681640625,0.005678846035152674,-0.04139542952179909,-0.01717819832265377
1783174334048092700,5.5590927734375,0.010650014504790306,-0.029235338792204857,-0.023503512144088745
1783174334058161000,5.569160888671875,0.016047177836298943,-0.027731718495488167,-0.019673088565468788
1783174334068229600,5.579229736328125,0.010092339478433132,-0.0302923321723938,-0.005892404820770025
1783174334078297600,5.589297607421875,0.009974361397325993,-0.0363912396132946,0.005385282915085554
1783174334088366800,5.599366943359375,0.015333639457821846,-0.040838416665792465,0.008196474052965641
1783174334098434600,5.6094345703125,0.01740264892578125,-0.04081897437572479,0.002491449937224388
1783174334108503600,5.619503662109375,0.018742872402071953,-0.03551819548010826,-0.006061059422791004
1783174334118572800,5.62957275390625,0.015388352796435356,-0.03761224076151848,-0.0131980637088418
1783174334128640800,5.639640869140625,0.02532607689499855,-0.045799341052770615,-0.01811007596552372
1783174334138709800,5.649709716796875,0.040993452072143555,-0.05020340904593468,-0.014875667169690132
1783174334148777700,5.65977783203125,0.06515024602413177,-0.05033892020583153,-0.004309539683163166
1783174334158846700,5.6698466796875,0.07749266922473907,-0.05052587389945984,0.012650002725422382
1783174334168914700,5.679914794921875,0.07992707937955856,-0.05742800235748291,0.031401701271533966
1783174334178983700,5.689983642578125,0.07331152260303497,-0.060880258679389954,0.0409398078918457
1783174334189052700,5.700052734375,0.05520269647240639,-0.06696274131536484,0.04657125473022461
1783174334199120600,5.71012060546875,0.04272765293717384,-0.0518580861389637,0.05462652072310448
1783174334209189600,5.720189697265625,0.03455033898353577,-0.023960627615451813,0.05288306251168251
1783174334219257600,5.730257568359375,0.0314197912812233,-0.002268646378070116,0.04748137295246124
1783174334229326800,5.740326904296875,0.029300818219780922,0.003426369745284319,0.03391321375966072
1783174334239394600,5.75039453125,0.027798529714345932,0.0021251491270959377,0.021063994616270065
1783174334249463800,5.7604638671875,0.017738869413733482,-0.002876912709325552,0.017211617901921272
1783174334259533000,5.770532958984375,0.006041198968887329,-0.004947786685079336,0.030601724982261658
1783174334269600800,5.780600830078125,0.008865635842084885,-0.0031326734460890293,0.024243202060461044
1783174334279669800,5.790669677734375,0.01828416995704174,-0.00980762206017971,0.011808902025222778
1783174334289737700,5.80073779296875,0.027813348919153214,-0.0162688996642828,-0.002123617334291339
1783174334299806700,5.810806640625,0.031505025923252106,-0.017253469675779343,-0.006632881239056587
1783174334309874700,5.820874755859375,0.03454407677054405,-0.008408289402723312,0.0032500734087079763
1783174334319944000,5.83094384765625,0.038483425974845886,-0.004823143128305674,0.001455369172617793
1783174334330012000,5.841011962890625,0.04404471442103386,-0.0022953199222683907,-0.013861116021871567
1783174334340080600,5.85108056640625,0.04488973319530487,-0.0026425961405038834,-0.027121527120471
1783174334350150000,5.86114990234375,0.03518294170498848,-0.010736854746937752,-0.031949423253536224
1783174334360217900,5.8712177734375,0.015002040192484856,-0.012510785833001137,-0.021668821573257446
1783174334370286600,5.88128662109375,-0.0008952185744419694,-0.01953839138150215,-0.000040682265534996986
1783174334380354800,5.891354736328125,-0.011544400826096535,-0.020704323425889015,0.012563526630401611
1783174334390423800,5.901423828125,-0.0031047819647938013,-0.02669346146285534,-0.00024704053066670895
1783174334400491800,5.91149169921875,0.007737479172646999,-0.035823848098516464,-0.03385480120778084
1783174334410560800,5.921560791015625,0.013837405480444431,-0.039885297417640686,-0.05533577501773834
1783174334420629800,5.931629638671875,0.009920960292220116,-0.039694614708423615,-0.05744979530572891
1783174334430698000,5.941697998046875,-0.011183531954884529,-0.03248962387442589,-0.03398042917251587
1783174334440766700,5.9517666015625,-0.030902110040187836,-0.033607617020606995,-0.0049429163336753845
1783174334450834700,5.961834716796875,-0.02793911285698414,-0.0379314087331295,0.004999920725822449
1783174334460904000,5.971904052734375,-0.010754533112049103,-0.036861617118120193,-0.005138999782502651
1783174334470972000,5.981971923828125,0.0014202464371919632,-0.03950347751379013,-0.010232373140752316
1783174334481040600,5.99204052734375,-0.0006775256479158998,-0.046021830290555954,0.0019963299855589867
1783174334491108900,6.00210888671875,-0.011310944333672523,-0.055705830454826355,0.02068445459008217
1783174334501177900,6.012177734375,-0.023306088522076607,-0.06622637808322906,0.04963621124625206
1783174334511246800,6.022246826171875,-0.027941010892391205,-0.05758435279130936,0.06703951954841614
1783174334521314800,6.032314697265625,-0.02238299325108528,-0.050287555903196335,0.06770424544811249
1783174334531383800,6.0423837890625,-0.01817769929766655,-0.037873607128858566,0.06892971694469452
1783174334541452000,6.0524521484375,-0.02377193607389927,-0.03842008858919144,0.07387440651655197
1783174334551520800,6.062520751953125,-0.02627013437449932,-0.027036309242248535,0.07569063454866409
1783174334561588700,6.072588623046875,-0.030206553637981415,-0.021609054878354073,0.06612163037061691
1783174334571658000,6.082657958984375,-0.025901321321725845,-0.012464972212910652,0.05081078037619591
1783174334581726700,6.092726806640625,-0.02261737734079361,-0.013144344091415405,0.036303211003541946
1783174334591794700,6.102794677734375,-0.015815947204828262,-0.0006809253245592117,0.02364003099501133
1783174334601864000,6.112864013671875,-0.0189861748367548,0.00037901243194937706,0.0048021613620221615
1783174334611932000,6.122931884765625,-0.006447873543947935,0.00806648563593626,-0.0015759197995066643
1783174334622001000,6.1330009765625,0.0010451963171362877,0.01881447061896324,0.016195088624954224
1783174334632068900,6.14306884765625,-0.000643429346382618,0.018700363114476204,0.030204275622963905
1783174334642137900,6.153137939453125,-0.01584315486252308,0.00928555615246296,0.0347532220184803
1783174334652206800,6.163206787109375,-0.028581183403730392,0.008006698451936245,0.04808066412806511
1783174334662274800,6.17327490234375,-0.027408327907323837,0.016513368114829063,0.05209670960903168
1783174334672343800,6.18334375,-0.013945970684289932,0.024574708193540573,0.04797908663749695
1783174334682412000,6.193412109375,0.005745974835008383,0.03593681752681732,0.02903868444263935
1783174334692480800,6.203480712890625,0.02604643628001213,0.04022965580224991,0.0028548981063067913
1783174334702548700,6.213548828125,0.0374908372759819,0.03673505783081055,-0.005102360621094704
1783174334712618000,6.223617919921875,0.035016871988773346,0.0355423241853714,-0.00466990377753973
1783174334722686700,6.233686767578125,0.020981214940547943,0.03369196131825447,-0.0068984366953372955
1783174334732754700,6.243754638671875,0.011643442325294018,0.029469750821590424,-0.010170352645218372
1783174334742824000,6.253823974609375,0.011378457769751549,0.022363372147083282,0.001861276337876916
1783174334752892000,6.263891845703125,0.016133146360516548,0.011097646318376064,0.00926383025944233
1783174334762961000,6.2739609375,0.023775886744260788,-0.005081057548522949,0.006938624195754528
1783174334773028900,6.28402880859375,0.036599770188331604,-0.012755634263157845,-0.0005981943104416132
1783174334783097900,6.294097900390625,0.044964227825403214,-0.01975974813103676,-0.01022845134139061
1783174334793165800,6.304165771484375,0.06055990234017372,-0.02962600253522396,-0.07117892056703568
1783174334803234800,6.31423486328125,0.07550876587629318,-0.02294626273214817,-0.15675532817840576
1783174334813303800,6.3243037109375,0.09158437699079514,-0.013355329632759094,-0.20738428831100464
1783174334823371800,6.334371826171875,0.09487258642911911,0.001992467325180769,-0.19418911635875702
1783174334833440800,6.344440673828125,0.087521992623806,-0.0056073954328894615,-0.14174401760101318
1783174334843508700,6.3545087890625,0.08113919198513031,-0.019796984270215034,-0.08163248002529144
1783174334853577700,6.36457763671875,0.07970383763313293,-0.030852628871798515,-0.0280092004686594
1783174334863645700,6.374645751953125,0.060882482677698135,-0.0332726389169693,0.008154129609465599
1783174334873715000,6.38471484375,0.02806093730032444,-0.041539836674928665,0.02308559976518154
1783174334883784000,6.394783935546875,0.0032693047542124987,-0.04668186977505684,0.029374388977885246
1783174334893851600,6.4048515625,-0.010446722619235516,-0.037367139011621475,0.02474680356681347
1783174334903921000,6.4149208984375,-0.009887458756566048,-0.018358029425144196,-0.010474832728505135
1783174334913988900,6.42498876953125,0.01183713972568512,0.006622961722314358,-0.06830636411905289
1783174334924057600,6.4350576171875,0.02911279909312725,0.023779045790433884,-0.1183980256319046
1783174334934125800,6.445125732421875,0.04707632586359978,0.0402715764939785,-0.17367589473724365
1783174334944194800,6.45519482421875,0.05149344727396965,0.03573887422680855,-0.1709195226430893
1783174334954263800,6.465263916015625,0.03885893151164055,0.01428237371146679,-0.11756075918674469
1783174334964331800,6.475331787109375,0.014791143126785755,-0.013651788234710693,-0.039867836982011795
1783174334974400800,6.48540087890625,-0.005306624341756105,-0.027937445789575577,0.01567060686647892
1783174334984469000,6.495468994140625,-0.014535808935761452,-0.037848930805921555,0.043203696608543396
1783174334994537700,6.505537841796875,-0.019456524401903152,-0.036919236183166504,0.059242960065603256
1783174335004605700,6.515605712890625,-0.011983959004282951,-0.03514637053012848,0.05829674005508423
1783174335014675000,6.525675048828125,-0.0042865220457315445,-0.036481570452451706,0.05270101875066757
1783174335024743000,6.535742919921875,0.004871556535363197,-0.03636705130338669,0.05337746441364288
1783174335034811600,6.545811767578125,0.0019744145683944225,-0.04125439003109932,0.06246332824230194
1783174335044881000,6.555880859375,-0.0019026151858270168,-0.04139234125614166,0.07513810694217682
1783174335054948900,6.565948974609375,0.0018848211038857698,-0.03771834075450897,0.07961998134851456
1783174335065017900,6.576017822265625,0.014206734485924244,-0.03507568687200546,0.05310635268688202
1783174335075085800,6.5860859375,0.019156381487846375,-0.028578218072652817,0.022635679692029953
1783174335085154800,6.59615478515625,0.0157062578946352,-0.02112695947289467,0.009626670740544796
1783174335095222800,6.606222900390625,-0.005174042657017708,-0.011249883100390434,0.03845306858420372
1783174335105291800,6.616291748046875,-0.022526666522026062,0.000005433801561594009,0.06090724468231201
1783174335115360800,6.62636083984375,-0.025675853714346886,-0.002137345727533102,0.05306263640522957
1783174335125429000,6.636428955078125,-0.014237578958272934,0.0002648257650434971,0.018101457506418228
1783174335135497700,6.646497802734375,0.006494367495179176,0.00729358708485961,-0.01044063176959753
1783174335145565700,6.656565673828125,0.012456119991838932,0.013397019356489182,-0.017827708274126053
1783174335155635000,6.666635009765625,0.005844212602823973,0.013563782908022404,0.0004464846570044756
1783174335165703000,6.676702880859375,0.01092738751322031,0.004949788097292185,0.008613068610429764
1783174335175771600,6.686771728515625,0.013093593530356884,0.007969561032950878,0.003832315094769001
1783174335185839900,6.69683984375,0.008245840668678284,0.011976286768913269,0.000007482944056391716
1783174335195908900,6.706908935546875,0.008180378936231136,0.018768735229969025,0.004959556274116039
1783174335205977900,6.716977783203125,0.003094273852184415,0.027686864137649536,0.01242439728230238
1783174335216045800,6.7270458984375,-0.009201918728649616,0.032321199774742126,0.01469451654702425
1783174335226114800,6.73711474609375,-0.004918490536510944,0.029899852350354195,-0.0009084111079573631
1783174335236183000,6.74718310546875,0.008302506990730762,0.023640090599656105,-0.02216602861881256
1783174335246251800,6.757251708984375,0.01625923253595829,0.01668364927172661,-0.025188982486724854
1783174335256320300,6.7673203125,0.01740950345993042,0.02128218486905098,-0.0240367092192173
1783174335266389200,6.77738916015625,0.006071361247450113,0.027047129347920418,-0.015321780927479267
1783174335276458200,6.787458251953125,-0.012170776724815369,0.026642419397830963,-0.015612452290952206
1783174335286526200,6.797526123046875,-0.017283247783780098,0.035617806017398834,-0.020768065005540848
1783174335296595500,6.807595458984375,-0.023102210834622383,0.037718310952186584,-0.029889576137065887
1783174335306663200,6.8176630859375,-0.02422073855996132,0.024074938148260117,-0.029029641300439835
1783174335316732400,6.827732421875,-0.019836101680994034,0.009309026412665844,-0.01796809211373329
1783174335326800400,6.83780029296875,-0.0031122486107051373,0.004743835423141718,-0.017627740278840065
1783174335336869000,6.847869140625,0.01825183443725109,0.00235174223780632,-0.01647888496518135
1783174335346938400,6.8579384765625,0.021043892949819565,0.0016872836276888847,-0.0073905824683606625
1783174335357006300,6.86800634765625,0.01186525821685791,0.00018600281327962875,0.005680019501596689
1783174335367075300,6.878075439453125,0.004887775518000126,-0.01644676923751831,0.0020477341022342443
1783174335377143300,6.888143310546875,-0.004304975736886263,-0.021141447126865387,-0.004240712616592646
1783174335387212300,6.89821240234375,-0.0183440949767828,-0.0144462576135993,-0.011871468275785446
1783174335397280300,6.9082802734375,-0.031483858823776245,0.0023545455187559128,-0.011268684640526772
1783174335407349200,6.918349365234375,-0.032796263694763184,0.0026301825419068336,-0.020256320014595985
1783174335417418200,6.928418212890625,-0.01779196970164776,-0.0036681233905255795,-0.024685608223080635
1783174335427486500,6.938486572265625,-0.008942285552620888,-0.013327674940228462,-0.01265131775289774
1783174335437555200,6.94855517578125,-0.005387111101299524,-0.022281138226389885,-0.00123107829131186
1783174335447623200,6.958623046875,-0.004878181032836437,-0.02748388983309269,0.0075472332537174225
1783174335457692400,6.9686923828125,-0.0040567428804934025,-0.0341859832406044,0.007465706206858158
1783174335467760400,6.978760498046875,0.00457749143242836,-0.019114352762699127,0.0011811790755018592
1783174335477829000,6.9888291015625,0.004292747937142849,-0.004425210878252983,-0.011161165311932564
1783174335487897300,6.9988974609375,0.0035984618589282036,0.0028870305977761745,-0.01678922399878502
1783174335497966300,7.00896630859375,-0.00116386276204139,0.01715966686606407,-0.006777901668101549
1783174335508035300,7.019035400390625,-0.009228712879121304,0.0391741544008255,0.003610823070630431
1783174335518103300,7.029103271484375,-0.010630970820784569,0.05028368532657623,-0.007227026857435703
1783174335528172300,7.03917236328125,-0.0076034897938370705,0.045974425971508026,-0.02071993239223957
1783174335538240500,7.049240478515625,0.0038247276097536087,0.039031874388456345,-0.027158357203006744
1783174335548309200,7.059309326171875,0.011728190816938877,0.02613205462694168,-0.023295709863305092
1783174335558377200,7.069377197265625,0.017214087769389153,0.01220750529319048,-0.016333481296896935
1783174335568446500,7.079446533203125,0.024397166445851326,0.007166673894971609,-0.005665657110512257
1783174335578515200,7.08951513671875,0.02786574326455593,0.014172070659697056,0.004292055498808622
1783174335588583200,7.099583251953125,0.016414683312177658,0.013468196615576744,0.01476706750690937
1783174335598652400,7.10965234375,0.0013357886346057057,0.006773591507226229,0.02592875435948372
1783174335608720400,7.119720458984375,-0.015332669951021671,-0.002057716716080904,0.01344412099570036
1783174335618789400,7.129789306640625,-0.026346463710069656,-0.0053327674977481365,0.0013406247599050403
1783174335628857300,7.139857421875,-0.017968958243727684,-0.008893946185708046,-0.008380712009966373
1783174335638926300,7.14992626953125,-0.0011170688085258007,-0.01419580914080143,-0.0015702443197369576
1783174335648994300,7.159994384765625,0.0044321599416434765,-0.02194800414144993,0.00679501099511981
1783174335659063300,7.170063232421875,0.0032423713710159063,-0.025955164805054665,0.01602255553007126
1783174335669132300,7.18013232421875,0.0002340646751690656,-0.013103283941745758,0.009202200919389725
1783174335679200500,7.190200439453125,-0.003297742223367095,-0.001048533245921135,0.007386078126728535
1783174335689269200,7.200269287109375,0.005636896938085556,0.011345552280545235,-0.006034655496478081
1783174335699337200,7.210337158203125,0.026152661070227623,0.019737817347049713,-0.018183879554271698
1783174335709406500,7.220406494140625,0.04267464578151703,0.025046030059456825,-0.022012438625097275
1783174335719474400,7.230474365234375,0.04110897332429886,0.011527824215590954,-0.025988273322582245
1783174335729543200,7.240543212890625,0.029762841761112213,0.0015782546252012253,-0.008486777544021606
1783174335739612400,7.2506123046875,0.01273480523377657,-0.003597920760512352,0.009840639308094978
1783174335749680400,7.260680419921875,0.004920291714370251,-0.004746808670461178,0.021802760660648346
1783174335759749400,7.270749267578125,0.0017958027310669422,-0.005593126639723778,0.021090054884552956
1783174335769817300,7.2808173828125,0.0027425566222518682,-0.016890788450837135,0.014218033291399479
1783174335779886300,7.29088623046875,0.007355176843702793,-0.019684281200170517,0.009628836065530777
1783174335789954300,7.300954345703125,0.015593133866786957,-0.023156244307756424,0.004244457930326462
1783174335800023300,7.311023193359375,0.02970438078045845,-0.020843157544732094,0.002625875174999237
1783174335810092300,7.32109228515625,0.03156246989965439,-0.018374672159552574,0.0019536931067705154
1783174335820160500,7.331160400390625,0.021153831854462624,-0.020334985107183456,0.009851595386862755
1783174335830229200,7.341229248046875,0.005355160217732191,-0.025942804291844368,0.015827195718884468
1783174335840297200,7.351297119140625,-0.012771954759955406,-0.0320737361907959,0.011072041466832161
1783174335850366500,7.361366455078125,-0.008137522265315056,-0.037115901708602905,0.0015962481265887618
1783174335860434200,7.37143408203125,0.0065702833235263824,-0.027611222118139267,-0.00015938072465360165
1783174335870503400,7.38150341796875,0.0070579079911112785,-0.024470556527376175,0.0018371911719441414
1783174335880571400,7.3915712890625,0.0003039362491108477,-0.0215450469404459,0.013868169859051704
1783174335890640400,7.401640380859375,-0.002268410986289382,-0.017227530479431152,0.013856185600161552
1783174335900709400,7.41170947265625,-0.00359708140604198,-0.017369449138641357,0.007524562068283558
1783174335910777300,7.42177734375,0.0030200749170035124,-0.012527022510766983,-0.008133758790791035
1783174335920846300,7.431846435546875,0.014061042107641697,-0.01070394366979599,-0.011779287829995155
1783174335930914300,7.441914306640625,0.016734857112169266,-0.0030553448013961315,-0.01998075842857361
1783174335940983300,7.4519833984375,0.007174322847276926,0.0020647933706641197,-0.017542826011776924
1783174335951051300,7.46205126953125,0.001304715871810913,-0.0019307471811771393,-0.008849202655255795
1783174335961120300,7.472120361328125,0.0029999208636581898,-0.003096034750342369,-0.0175994373857975
1783174335971189200,7.482189208984375,0.01101923082023859,0.004846310708671808,-0.02179950848221779
1783174335981257500,7.492257568359375,0.018316825851798058,0.014846746809780598,-0.02530369535088539
1783174335991326200,7.502326171875,0.015710122883319855,0.007214659824967384,-0.013733058236539364
1783174336001394200,7.512394287109375,0.009235893376171589,0.0013357950374484062,0.010060157626867294
1783174336011463400,7.52246337890625,0.01326765213161707,0.006090336479246616,0.011081214062869549
1783174336021531400,7.532531494140625,0.014087527990341187,0.015636339783668518,0.0012438055127859116
1783174336031600000,7.54260009765625,0.015380227006971836,0.022604767233133316,0.0027604757342487574
1783174336041669400,7.55266943359375,0.013449864462018013,0.018702058121562004,0.0027885891031473875
1783174336051737300,7.5627373046875,0.00891876220703125,0.014996802434325218,0.011939742602407932
1783174336061806000,7.57280615234375,0.0070181237533688545,0.02479461394250393,0.01477417815476656
1783174336071874300,7.582874267578125,0.004107289016246796,0.03381473943591118,0.016808034852147102
1783174336081943300,7.592943359375,0.002667102962732315,0.04153290390968323,0.006689545698463917
1783174336092011300,7.60301123046875,0.0063238893635571,0.05141109973192215,-0.03833651915192604
1783174336102080300,7.613080322265625,0.005762760993093252,0.055776018649339676,-0.07035517692565918
1783174336112149200,7.623149169921875,0.002556212479248643,0.062486808747053146,-0.06959895044565201
1783174336122217500,7.633217529296875,-0.0010979878716170788,0.05452560633420944,-0.056608203798532486
1783174336132286200,7.6432861328125,-0.006299940869212151,0.049171581864356995,-0.03968008607625961
1783174336142354200,7.653354248046875,-0.012799574062228203,0.0495222732424736,-0.02067588083446026
1783174336152423400,7.66342333984375,-0.015087761916220188,0.04782157763838768,-0.0172012560069561
1783174336162491400,7.673491455078125,-0.012401757761836052,0.0437072217464447,-0.029163675382733345
1783174336172560100,7.68356005859375,-0.010352456010878086,0.038010984659194946,-0.04124857112765312
1783174336182628400,7.69362841796875,-0.0035536978393793106,0.0381181500852108,-0.045308519154787064
1783174336192697300,7.703697265625,-0.00046576245222240686,0.02921147271990776,-0.04007301107048988
1783174336202766300,7.713766357421875,0.003926486242562532,0.00737423961982131,-0.04333949461579323
1783174336212834300,7.723834228515625,0.010323133319616318,-0.007930947467684746,-0.04998807609081268
1783174336222903300,7.7339033203125,0.0137899499386549,-0.00322534516453743,-0.04978860169649124
1783174336232971500,7.743971435546875,0.011556356213986874,0.005629665683954954,-0.032419733703136444
1783174336243040300,7.754040283203125,0.0013755559921264648,0.003581996075809002,-0.003403570270165801
1783174336253108200,7.764108154296875,0.006988434121012688,-0.0122840516269207,0.0011847898131236434
1783174336263176400,7.774176513671875,0.016282720491290092,-0.02042265236377716,-0.011495883576571941
1783174336273245400,7.784245361328125,0.02246498130261898,-0.03279969096183777,-0.012163271196186543
1783174336283313400,7.7943134765625,0.019341077655553818,-0.03170930594205856,0.003692536847665906
1783174336293382400,7.80438232421875,0.0007165264687500894,-0.03721778839826584,0.018482401967048645
1783174336303450400,7.814450439453125,-0.008405366912484169,-0.04667268693447113,0.021841375157237053
1783174336313519400,7.824519287109375,-0.01172526367008686,-0.046758707612752914,0.01948554441332817
1783174336323587300,7.83458740234375,-0.005187348462641239,-0.03690093010663986,0.012883104383945465
1783174336333656600,7.844656494140625,0.003378975670784712,-0.023041309788823128,0.012381364591419697
1783174336343724500,7.854724609375,0.005144753493368626,-0.01863180100917816,0.018275322392582893
1783174336353793300,7.864793212890625,0.004268573597073555,-0.030888468027114868,0.01867160014808178
1783174336363862500,7.874862548828125,0.008124074898660183,-0.02903403714299202,0.014837528578937054
1783174336373930500,7.884930419921875,0.009406919591128826,-0.025342896580696106,0.010836395435035229
1783174336383999200,7.894999267578125,0.004891452379524708,-0.028097357600927353,0.009030884131789207
1783174336394067500,7.9050673828125,0.005567096173763275,-0.03264470398426056,0.010821860283613205
1783174336404136400,7.915136474609375,-0.004164694808423519,-0.025567850098013878,0.01616518385708332
1783174336414204400,7.925204345703125,-0.019027264788746834,-0.012514900416135788,0.02549237385392189
1783174336424273400,7.9352734375,-0.024767888709902763,0.0014750929549336433,0.02967716194689274
1783174336434342400,7.94534228515625,-0.01951107569038868,0.018235165625810623,-0.008557840250432491
1783174336444410600,7.95541064453125,-0.01135577168315649,0.033813197165727615,-0.04360717907547951
1783174336454479400,7.965479248046875,-0.008897940628230572,0.05741759389638901,-0.05564440041780472
1783174336464547300,7.97554736328125,-0.006653023883700371,0.066312275826931,-0.04627387970685959
1783174336474616600,7.985616455078125,-0.007758502848446369,0.07070649415254593,-0.02413502335548401
1783174336484684500,7.9956845703125,-0.018799392506480217,0.07712424546480179,-0.01949358358979225
1783174336494753300,8.005753173828126,-0.007589881774038076,0.07617749273777008,-0.030299628153443336
1783174336504822500,8.015822509765625,0.008331027813255787,0.06926526129245758,-0.044129159301519394
1783174336514890500,8.025890380859375,0.011767304502427578,0.053697485476732254,-0.03489464521408081
1783174336524959500,8.03595947265625,0.004409548826515675,0.027468441054224968,-0.013381934724748135
1783174336535027500,8.04602734375,0.0013056346215307713,0.003774563781917095,-0.009464956820011139
1783174336545096400,8.056096435546875,0.0016134448815137148,-0.0057084765285253525,-0.020997434854507446
1783174336555164400,8.066164306640625,0.013557189144194126,-0.007146316580474377,-0.025012681260704994
1783174336565233400,8.0762333984375,0.02221318520605564,-0.02735300362110138,-0.01605422981083393
1783174336575301400,8.08630126953125,0.02383718080818653,-0.03390730917453766,0.0025713869836181402
1783174336585370600,8.09637060546875,0.03062046505510807,-0.03856709599494934,0.03612542897462845
1783174336595439400,8.106439453125,0.04128003492951393,-0.04071493446826935,0.04443715512752533
1783174336605507300,8.11650732421875,0.04381376504898071,-0.04552407190203667,0.027013156563043594
1783174336615576600,8.12657666015625,0.04573816433548927,-0.04299886152148247,0.01710859313607216
1783174336625644500,8.13664453125,0.037752971053123474,-0.04867549613118172,0.01377720758318901
1783174336635713300,8.14671337890625,0.031554996967315674,-0.05386386811733246,0.01707499846816063
1783174336645781500,8.156781494140626,0.023509595543146133,-0.047197189182043076,0.010789784602820873
1783174336655850500,8.1668505859375,0.013863359577953815,-0.04182612895965576,0.005515393801033497
1783174336665919500,8.17691943359375,0.007583375554531813,-0.030920039862394333,0.011608291417360306
1783174336675987500,8.186987548828125,0.016053559258580208,-0.02500569447875023,0.004471286199986935
1783174336686056400,8.197056396484374,0.029519034549593925,-0.02043117955327034,-0.011338835582137108
1783174336696124700,8.207124755859375,0.034271445125341415,-0.02983294054865837,-0.014551140367984772
1783174336706193400,8.217193359375,0.035443298518657684,-0.03036552667617798,-0.018710697069764137
1783174336716261400,8.227261474609374,0.03625689446926117,-0.03394268453121185,-0.02859555371105671
1783174336726330600,8.23733056640625,0.03141627088189125,-0.029306165874004364,-0.022351540625095367
1783174336736399400,8.2473994140625,0.026688892394304276,-0.023005392402410507,-0.001977824606001377
1783174336746467300,8.25746728515625,0.014258717186748981,-0.02347649820148945,0.022642910480499268
1783174336756536600,8.26753662109375,0.003104866249486804,-0.01687132567167282,0.03059431165456772
1783174336766604500,8.2776044921875,0.003197424579411745,-0.012545840814709663,0.030646808445453644
1783174336776673500,8.287673583984375,0.0041196770034730434,-0.025560444220900536,0.01954142563045025
1783174336786741500,8.297741455078125,0.008788456209003925,-0.01288005243986845,0.006545089650899172
1783174336796810500,8.307810546875,0.01227453351020813,-0.0010699992999434471,0.0047224219888448715
1783174336806878200,8.317878173828126,0.009378114715218544,0.004941967315971851,0.01325845904648304
1783174336816947500,8.327947509765625,0.011329146102070808,0.0117037333548069,0.017635364085435867
1783174336827016400,8.338016357421875,0.016729047521948814,0.019799161702394485,0.010732336901128292
1783174336837084400,8.34808447265625,0.016502147540450096,0.029586277902126312,0.010357363149523735
1783174336847153400,8.3581533203125,0.0063322484493255615,0.03844268620014191,0.014394452795386314
1783174336857221400,8.368221435546875,-0.00024549319641664624,0.041427820920944214,0.01160452514886856
1783174336867290600,8.37829052734375,0.002087169559672475,0.05369593948125839,-0.004191482439637184
1783174336877358300,8.3883583984375,0.009762932546436787,0.07477139681577682,-0.02684912271797657
1783174336887427300,8.39842724609375,0.01614633947610855,0.07503553479909897,-0.026484647765755653
1783174336897496600,8.40849658203125,0.017787912860512733,0.07437613606452942,-0.0024181948974728584
1783174336907564300,8.418564208984375,0.01580280065536499,0.0655842274427414,0.01729782670736313
1783174336917633500,8.428633544921874,0.00993878673762083,0.05808902531862259,0.01778119057416916
1783174336927701500,8.438701416015626,0.005808121059089899,0.05906389653682709,-0.006741843186318874
1783174336937770200,8.448770263671875,0.005477622617036104,0.06249697506427765,-0.021572720259428024
1783174336947838500,8.45883837890625,0.012566227465867996,0.0651092380285263,-0.015019170939922333
1783174336957907500,8.468907470703124,0.011700167320668697,0.05056331679224968,-0.00660624448210001
1783174336967976400,8.4789765625,0.0203351229429245,0.022990861907601357,-0.007737176958471537
1783174336978044400,8.48904443359375,0.033661846071481705,0.011247653514146805,-0.012248305603861809
1783174336988113400,8.499113525390625,0.03347108140587807,-0.0017948485910892487,-0.017993006855249405
1783174336998181400,8.509181396484376,0.01489260233938694,-0.018810052424669266,-0.007633042987436056
1783174337008250400,8.51925048828125,-0.013510226272046566,-0.01797615736722946,0.011050554923713207
1783174337018318300,8.529318359375,-0.020375587046146393,-0.014407523907721043,0.009907260537147522
1783174337028387600,8.5393876953125,-0.015850378200411797,-0.002539230976253748,0.00011244812048971653
1783174337038455600,8.54945556640625,-0.008469427935779095,0.009915840812027454,0.0008243111660704017
1783174337048524300,8.559524169921875,-0.010538842529058456,0.013652263209223747,-0.0007873568683862686
1783174337058593500,8.569593505859375,-0.006100950762629509,-0.005548862274736166,-0.014554036781191826
1783174337068661500,8.57966162109375,0.002845457289367914,-0.011661825701594353,-0.033574674278497696
1783174337078730200,8.589730224609376,0.010659171268343925,-0.020567435771226883,-0.04974405840039253
1783174337088798500,8.599798583984375,0.018682977184653282,-0.03638702630996704,-0.07499835640192032
1783174337098867500,8.609867431640625,0.016591062769293785,-0.0421660877764225,-0.0853750929236412
1783174337108935400,8.619935302734374,0.009687754325568676,-0.0472993329167366,-0.07240770757198334
1783174337119004400,8.63000439453125,0.005671440623700619,-0.06813431531190872,-0.06462861597537994
1783174337129073400,8.640073486328125,-0.0013363407924771309,-0.07243101298809052,-0.04526127129793167
1783174337139141600,8.6501416015625,0.0067591359838843346,-0.07755254209041595,-0.00728725828230381
1783174337149210400,8.66021044921875,0.006978924386203289,-0.06119172275066376,0.026693765074014664
1783174337159278300,8.6702783203125,0.01609519124031067,-0.056957028806209564,0.018509071320295334
1783174337169347600,8.68034765625,0.03671758994460106,-0.05363558977842331,-0.020044902339577675
1783174337179415600,8.69041552734375,0.036645155400037766,-0.030487127602100372,-0.05465880408883095
1783174337189484300,8.700484375,0.01773226074874401,-0.015933269634842873,-0.048015132546424866
1783174337199553500,8.710553466796876,0.0035285581834614277,-0.008882017806172371,-0.021649040281772614
1783174337209621500,8.72062158203125,0.004524064715951681,-0.0045331669971346855,-0.01855778694152832
1783174337219690500,8.7306904296875,0.014057914726436138,0.006843857001513243,-0.03906146436929703
1783174337229758500,8.740758544921874,0.018816854804754257,0.018992125988006592,-0.04498414695262909
1783174337239827500,8.750827392578126,0.008201762102544308,0.017208874225616455,-0.02212357334792614
1783174337249895400,8.7608955078125,0.005096740089356899,0.012357587926089764,-0.006360935978591442
1783174337259965400,8.77096533203125,0.00495053268969059,0.0033648917451500893,-0.006365463137626648
1783174337270033700,8.78103369140625,0.005359808914363384,-0.0009015477262437344,-0.006135289557278156
1783174337280102400,8.791102294921876,0.016026567667722702,-0.004007592331618071,-0.014569520018994808
1783174337290171400,8.80117138671875,0.02751767821609974,-0.0053382618352770805,-0.029638368636369705
1783174337300239600,8.811239501953125,0.027800505980849266,-0.0003142086789011955,-0.02016550675034523
1783174337310308400,8.821308349609374,0.022640088573098183,0.007460372056812048,-0.009072752669453621
1783174337320376300,8.831376220703126,0.02929985523223877,0.0033042426221072674,-0.006441815290600061
1783174337330445600,8.841445556640625,0.034343454986810684,-0.0046965801157057285,-0.004513836465775967
1783174337340513500,8.851513427734375,0.02786850929260254,-0.0025250385515391827,0.0017493858467787504
1783174337350582500,8.86158251953125,0.016959842294454575,0.001752937212586403,0.016623666509985924
1783174337360651500,8.871651611328126,0.002854143036529422,0.006680850405246019,0.02514604851603508
1783174337370719500,8.881719482421875,-0.013433053158223629,0.0033973269164562225,0.019430525600910187
1783174337380788500,8.89178857421875,-0.01259442325681448,0.009690642356872559,-0.0017743634525686502
1783174337390856400,8.9018564453125,-0.008371260017156601,0.017067912966012955,-0.010212741792201996
1783174337400925400,8.911925537109376,-0.007930240593850613,0.027190588414669037,-0.008748002350330353
1783174337410993700,8.92199365234375,-0.009740564972162247,0.024925164878368378,-0.012980561703443527
1783174337421062400,8.9320625,-0.0234111025929451,0.03677303344011307,-0.0160589087754488
1783174337431131600,8.942131591796874,-0.03381267189979553,0.036048345267772675,-0.013545186258852482
1783174337441199600,8.95219970703125,-0.025278838351368904,0.042178675532341,-0.013102035038173199
1783174337451268400,8.962268310546875,-0.03180763125419617,0.04143986105918884,0.010711492970585823
1783174337461336300,8.97233642578125,-0.021680159494280815,0.056980736553668976,0.061322472989559174
1783174337471405600,8.982405517578124,-0.02448369562625885,0.043338801711797714,0.0957808867096901
