time,seconds_elapsed,z,y,x
1783170493024983300,0.0689833984375,0.44475569159984585,-0.34505525418072935,-0.025042196395806966
1783170493035053600,0.079053466796875,0.44996261259317394,-0.3341046749688685,-0.01941920541487634
1783170493045123300,0.089123291015625,0.40832185769379137,-0.2662057354800403,0.01247976154051721
1783170493055193000,0.099193115234375,0.3814648304283619,-0.19281448218524455,0.033959223953448234
1783170493065262300,0.109262451171875,0.3290829012840986,-0.14780001306906343,0.03151573979146778
1783170493075332000,0.11933203125,0.37513679645061493,-0.09718407068401574,0.05523015818223357
1783170493085401300,0.1294013671875,0.5076444017112255,-0.111165542024374,0.08581387782059609
1783170493095471400,0.139471435546875,0.6781921070307493,-0.1238274551987648,0.11753536931723356
1783170493105540400,0.149540283203125,0.7925462159633636,-0.18694982793554663,0.18803616186752914
1783170493115610400,0.1596103515625,0.8312415650606155,-0.23900004090741275,0.2143797597181052
1783170493125679400,0.169679443359375,0.9332944108247756,-0.34556159626767036,0.16915383980832993
1783170493135749400,0.179749267578125,1.0262667090326547,-0.4898113695092499,0.09943082669749856
1783170493145818000,0.189818115234375,1.0096101732641458,-0.617221797761321,0.02585062670186162
1783170493155888400,0.199888427734375,0.9042436729073524,-0.7066641682773828,-0.05904277527295053
1783170493165957000,0.20995703125,0.7723620905905961,-0.7366175541229546,-0.08699453897252678
1783170493176027400,0.22002734375,0.5916396127372979,-0.7401520118594169,-0.07302512339614331
1783170493186096000,0.23009619140625,0.4403834678649902,-0.7612390774212777,-0.02183927216865122
1783170493196166400,0.24016650390625,0.34489714100956914,-0.7499312092043459,0.016196078649908303
1783170493206235100,0.250235107421875,0.26924948709011076,-0.7756278143882751,0.006263298178464174
1783170493216305200,0.26030517578125,0.22398469647467134,-0.8420337388403714,-0.035115444783866405
1783170493226374400,0.27037451171875,0.08064590059816837,-0.9100351157903671,-0.09902246509231627
1783170493236444200,0.280444091796875,-0.06591361089050769,-1.0178500322125852,-0.19539792280718682
1783170493246513400,0.290513427734375,-0.13104571601450443,-1.0676496897786856,-0.2093498027268797
1783170493256583200,0.300583251953125,-0.09162088359892367,-1.0700031210370362,-0.18407368797734378
1783170493266652400,0.31065234375,-0.02808160062432289,-1.088948060003668,-0.13156038753837346
1783170493276722200,0.32072216796875,0.04589373616874218,-1.0981680160306393,-0.10048782493714242
1783170493286791400,0.33079150390625,-0.008951368218660355,-1.045110233451426,-0.0454712729729712
1783170493296861200,0.340861083984375,-0.14670973361432552,-0.9987168771974742,-0.0005502542939037085
1783170493306930200,0.35093017578125,-0.15672084001898764,-1.011213516807556,0.02766965882256627
1783170493317000400,0.36100048828125,-0.14291852463781832,-0.9783926127016543,0.10770013093613087
1783170493327069200,0.371069091796875,-0.06244798060655594,-1.0022267850145696,0.1109190929826349
1783170493337139500,0.381139404296875,0.01571545552611351,-1.0254602149553596,0.13958901488892733
1783170493347208200,0.391208251953125,0.11365268266499041,-1.0651591881372033,0.1588929964262992
1783170493357278500,0.401278564453125,0.20701836410462854,-1.108707822484523,0.11571874834932386
1783170493367347200,0.41134716796875,0.373124287584424,-1.1765880572728813,0.08386610475368797
1783170493377417200,0.421417236328125,0.5341425325363874,-1.225930764851719,0.06682780312597751
1783170493387486200,0.431486328125,0.5984715045839548,-1.2254941270001232,0.08227649747468531
1783170493397556200,0.44155615234375,0.6493488743841648,-1.2132925248138606,0.09422503821533172
1783170493407626500,0.45162646484375,0.7132178277045488,-1.2057656364403664,0.11521226013191044
1783170493417695200,0.4616953125,0.7489391294270753,-1.2342331676423548,0.0716464554540813
1783170493427765200,0.47176513671875,0.6752385179221629,-1.3003428856268524,0.011031170167401433
1783170493437834200,0.481834228515625,0.5688625482618809,-1.3544544150426983,-0.009797536719217896
1783170493447904300,0.491904296875,0.5693056158542633,-1.3443860254928468,-0.0100162940364331
1783170493457973200,0.50197314453125,0.6359077935308217,-1.3453515095241366,0.03505823470391333
1783170493468043300,0.512043212890625,0.6300111367076635,-1.3508251186296343,0.0643352921904996
1783170493478112300,0.5221123046875,0.472374350887537,-1.3629901881977915,0.06079568335488438
1783170493488182300,0.532182373046875,0.35196810230910774,-1.3212563481874764,0.028975115397945044
1783170493498251300,0.542251220703125,0.24265140302181243,-1.2500386395394802,-0.016604513320326805
1783170493508321300,0.5523212890625,0.21946984939873218,-1.1810691482096909,-0.04415069189369678
1783170493518390300,0.562390380859375,0.14893676201403142,-1.0920261522747576,-0.06688216366171837
1783170493528460300,0.572460205078125,0.11461363665163517,-1.002856607350707,-0.0289950622074306
1783170493538529300,0.582529296875,0.15130524471104145,-0.8693487390063702,0.04472242736704647
1783170493548599300,0.592599365234375,0.23855332005321978,-0.7346839557118714,0.06268745191823691
1783170493558668300,0.602668212890625,0.32259353926479817,-0.5182007209084928,0.17825937567539513
1783170493568738300,0.61273828125,0.4132119678229093,-0.39984614416286346,0.27409247014187277
1783170493578807300,0.622807373046875,0.45809798825383186,-0.36020021634250876,0.31945768892448395
1783170493588877300,0.632877197265625,0.446745404112339,-0.33846550052687524,0.4009650286575779
1783170493598946300,0.6429462890625,0.3837158242255449,-0.2951969982951879,0.3861947084944695
1783170493609016000,0.65301611328125,0.3940262058377266,-0.17117855056896805,0.35767657961640503
1783170493619085300,0.663085205078125,0.14308160624504088,-0.1113106495834887,0.2519746732927859
1783170493629155000,0.673155029296875,-0.30881635832488535,-0.09708090257048606,0.18357596758827566
1783170493639224300,0.683224365234375,-0.6398194140166044,0.019759470219910143,0.18078155109677463
1783170493649294300,0.69329443359375,-0.8128302945792675,0.21326967958435414,0.20678426308780906
1783170493659363300,0.70336328125,-0.8289327035963535,0.4571168682619929,0.22777199646104127
1783170493669433300,0.713433349609375,-0.8391437164872885,0.6340436070941389,0.25562994439732284
1783170493679502300,0.72350244140625,-0.8899047664314508,0.7615579341121017,0.19698760315142572
1783170493689572400,0.733572265625,-0.9368798680961131,0.804161688824743,0.07368647338170557
1783170493699641300,0.743641357421875,-0.9380781379699706,0.7858896806836128,-0.07135868802126497
1783170493709711400,0.75371142578125,-0.6918155587136745,0.7230695057637989,-0.13188614889401942
1783170493719780000,0.763780029296875,-0.3904138605594635,0.6141936821117997,-0.16459639569967985
1783170493729850400,0.773850341796875,-0.19902678082883357,0.5370224718868732,-0.1674468532273546
1783170493739919000,0.783919189453125,-0.27128128517866135,0.48759939254820345,-0.21195954683385787
1783170493749989400,0.7939892578125,-0.34225744015574455,0.4889629359863698,-0.2573237609694712
1783170493760058000,0.80405810546875,-0.3066495356798172,0.5485246936321259,-0.24415420880019664
1783170493770128100,0.814128173828125,-0.1903764413833618,0.5945687980569899,-0.2738816586690955
1783170493780197400,0.824197265625,-0.07312953361868858,0.5587397981762886,-0.3504903579067439
1783170493790267100,0.83426708984375,-0.012108370944857597,0.4757743685893714,-0.4615517089042812
1783170493800336400,0.84433642578125,0.0005307458758354186,0.34886925951093434,-0.6049907502848655
1783170493810406100,0.85440625,-0.14534078334867953,0.25022782962545753,-0.7289569563671946
1783170493820476400,0.864476318359375,-0.398285032325983,0.24323168712779877,-0.7989420544803142
1783170493830545200,0.874545166015625,-0.578610619816184,0.30187764510288834,-0.8245540501207113
1783170493840615200,0.884615234375,-0.572182048073411,0.3999621717579663,-0.8133852250482887
1783170493850684200,0.89468408203125,-0.34836569390296934,0.47153366227969523,-0.7471355871364473
1783170493860754200,0.904754150390625,-0.10061667548120021,0.44475481481701135,-0.7639227635473013
1783170493870823400,0.914823486328125,0.12991349711418151,0.32722003002166744,-0.7961151604913175
1783170493880893200,0.92489306640625,0.27222937968373295,0.20087445452213287,-0.9017908729277551
1783170493890962400,0.93496240234375,0.3435708608418703,0.07462751709148287,-0.9962144659224897
1783170493901032200,0.9450322265625,0.28145430414676664,-0.03884878609329462,-1.0948094993829727
1783170493911101400,0.955101318359375,0.1412771871715784,-0.04104249674528837,-1.133759700024128
1783170493921171200,0.965171142578125,-0.043455110844969745,-0.008576981948316097,-1.0637431107942015
1783170493931240400,0.975240478515625,-0.21964637500941753,0.08359452127069235,-0.9898765681378543
1783170493941310200,0.985310302734375,-0.33727672913372514,0.169626937212795,-0.9429030008431524
1783170493951379200,0.995379150390625,-0.3062479691416025,0.18403101787939666,-0.8903723839432001
1783170493961449500,1.005449462890625,-0.2923755111336708,0.17348390490189194,-0.9335467050854116
1783170493971518200,1.015518310546875,-0.25151801556646824,0.16715835514217614,-0.9917872971300035
1783170493981588500,1.02558837890625,-0.17471885352432726,0.17482859750911592,-0.9859298032734543
1783170493991657200,1.0356572265625,-0.06874328135848044,0.1425767254628241,-1.009844931868091
1783170494001727200,1.045727294921875,0.03996376159787178,0.10632453173398972,-0.9617410453692078
1783170494011796200,1.055796142578125,0.13008067037463186,0.0814852740317583,-0.8885593431718647
1783170494021866200,1.0658662109375,0.28265783471763134,0.08485606563910841,-0.8405011224456131
1783170494031935200,1.075935302734375,0.49620881546139717,0.029667554641515013,-0.7075217349547892
1783170494042005200,1.086005126953125,0.7058715565949678,-0.033345366371423005,-0.6172444479845464
1783170494052074800,1.09607470703125,0.8258926052480936,-0.1548018546551466,-0.587470035435073
1783170494062144800,1.106144775390625,0.8194570192426442,-0.3053347998194396,-0.618869418837875
1783170494072214000,1.116214111328125,0.7206827567577362,-0.47880569910928605,-0.6420248151063919
1783170494082283800,1.12628369140625,0.6584960574358701,-0.5731970703348517,-0.6122767060419544
1783170494092352800,1.136352783203125,0.6616577363371848,-0.5880507944650948,-0.538363657362759
1783170494102422800,1.1464228515625,0.630620208516717,-0.6198842949688435,-0.4184073445089161
1783170494112491800,1.15649169921875,0.39242812299132346,-0.6280791457317769,-0.3474965098530054
1783170494122561800,1.166561767578125,0.11474047790169715,-0.5693817498303949,-0.2729424598565325
1783170494132630800,1.176630859375,-0.02574409758746624,-0.5032546423196792,-0.23801435433831064
1783170494142700800,1.18670068359375,-0.1314081195861101,-0.48230786201134324,-0.2000807103285566
1783170494152769800,1.196769775390625,-0.20423720895349978,-0.5089408712625503,-0.23522227593436837
1783170494162839800,1.20683984375,-0.23250293397307395,-0.5629495248258114,-0.33040213065650315
1783170494172908800,1.21690869140625,-0.20979192047119138,-0.610200959213823,-0.4661092260781675
1783170494182978800,1.226978759765625,-0.10933306590020656,-0.6834311767280101,-0.5633554752781987
1783170494193047800,1.2370478515625,-0.06264730257093906,-0.7967664640069008,-0.6672643241725862
1783170494203117800,1.247117919921875,-0.13053776649236679,-0.9148230807192623,-0.7773050268854945
1783170494213186800,1.257186767578125,-0.06859598184227943,-0.9325273719750344,-0.7673124059855938
1783170494223256800,1.2672568359375,0.0012163900524377821,-0.91397873884961,-0.7166352349326014
1783170494233325800,1.277325927734375,0.05783318028748035,-0.8796062213875353,-0.6722991034694016
1783170494243395800,1.287395751953125,0.2940624413073063,-0.8524138246878981,-0.5917807747736573
1783170494253464600,1.297464599609375,0.5749953519284725,-0.8250231289371848,-0.5076107551699504
1783170494263534800,1.307534912109375,0.6812731219112873,-0.8579547999411821,-0.4697491900157183
1783170494273603600,1.317603515625,0.6609948885142802,-0.8963745469674468,-0.5195115112461149
1783170494283673900,1.327673828125,0.5641244138240814,-0.9437235965110361,-0.5835572459055111
1783170494293743900,1.337743896484375,0.38198330134451386,-1.020044765777886,-0.6302621888592839
1783170494303812900,1.347812744140625,0.25475743587911126,-1.0072519197002052,-0.6986370752967893
1783170494313883000,1.3578828125,0.31455460971593857,-0.9569150865174829,-0.7178492138322442
1783170494323951600,1.36795166015625,0.4315478349804878,-0.938082083492726,-0.7229289282493293
1783170494334022000,1.37802197265625,0.4714800323963165,-0.8860597814410924,-0.7274604341991245
1783170494344090600,1.388090576171875,0.3656552668780088,-0.793802645765245,-0.769019356033951
1783170494354161000,1.398160888671875,0.09900748671889305,-0.6802803114816546,-0.6767787331014872
1783170494364229600,1.408229736328125,-0.20026538271307945,-0.6273584302417934,-0.4964695487568155
1783170494374299600,1.418299560546875,-0.16827391516864298,-0.5008839676655829,-0.2955572464423254
1783170494384368600,1.42836865234375,-0.02894552397727966,-0.37195933545827864,-0.13889452981874345
1783170494394438700,1.438438720703125,-0.04267945029735565,-0.31686537087634203,-0.0963575201993808
1783170494404508000,1.4485078125,-0.2506552612572908,-0.3893228504523635,-0.055708315354306245
1783170494414577700,1.45857763671875,-0.685941698244214,-0.49725788612291216,-0.03540123945530504
1783170494424647000,1.46864697265625,-1.1283224774062632,-0.5079273103058338,0.026664920493122187
1783170494434716700,1.478716552734375,-1.4281512271553276,-0.4634058854036033,-0.003890787760308012
1783170494444786000,1.488785888671875,-1.5223580355942248,-0.3543653727091849,0.021830970131186768
1783170494454855700,1.498855712890625,-1.5619956339776515,-0.20373422786742448,0.04781676752003841
1783170494464925000,1.508925048828125,-1.7337573912620543,-0.029596681362390517,-0.008624296255339867
1783170494474994700,1.51899462890625,-1.9503402870476245,0.0761575031377375,-0.08611049528014846
1783170494485063700,1.529063720703125,-1.9788450815200804,0.24290201678201553,0.005938806331297382
1783170494495134000,1.539134033203125,-1.8379899191528557,0.46232948834374543,0.18795535171627997
1783170494505202700,1.54920263671875,-1.6653034482389688,0.7123977434933185,0.33725375011693687
1783170494515273000,1.55927294921875,-1.5452642794072626,0.8376200140513479,0.5147007134309038
1783170494525341700,1.569341796875,-1.491866451218724,0.8980607464887201,0.6512012242525815
1783170494535411700,1.57941162109375,-1.4835790998667477,0.9955267028540372,0.7154560350853949
1783170494545480700,1.589480712890625,-1.373364574956894,1.1174158834666013,0.796248796808347
1783170494555550700,1.59955078125,-1.2246698050051927,1.1685615488141774,0.8992270868543535
1783170494565619700,1.60961962890625,-1.1601467716902494,1.1720751098930835,0.9061246643483638
1783170494575689700,1.619689697265625,-0.893951411473751,1.2461013000905512,0.804253897152841
1783170494585758700,1.6297587890625,-0.34317923117578025,1.2190456815131008,0.7149734392002225
1783170494595828700,1.639828857421875,0.3043991264045238,1.0611864851139485,0.7236930444896221
1783170494605897700,1.649897705078125,0.8028016525179147,0.9126610803797841,0.7504486572071909
1783170494615967700,1.6599677734375,1.1361404576808214,0.8068005128957331,0.805587483844161
1783170494626037000,1.670037109375,1.3376035257458685,0.7314733231022954,0.9560996784813701
1783170494636106800,1.680106689453125,1.4009598533689975,0.7025111402511596,1.1117475555066019
1783170494646175700,1.69017578125,1.349119191494584,0.6780965377017856,1.1808807129655032
1783170494656245800,1.700245849609375,1.228071137881279,0.6541096590451896,1.2438386158555745
1783170494666314800,1.710314697265625,1.024251862078905,0.6196366038180887,1.2320162222452462
1783170494676384800,1.720384765625,0.6634744303703308,0.5833247888565063,1.1500442606750876
1783170494686453800,1.730453857421875,0.3550421029269695,0.5182034973874687,1.0175288374342024
1783170494696523800,1.740523681640625,0.14036767111122608,0.4304292062141001,0.9017658846169709
1783170494706592800,1.7505927734375,0.006321019715070724,0.3664604457810521,0.7794814210765063
1783170494716662800,1.760662841796875,0.017518705555796623,0.3062297028325498,0.72452204265967
1783170494726731800,1.770731689453125,-0.008547463592886924,0.24993556868061423,0.6881221840884536
1783170494736801800,1.7808017578125,-0.050826516395807264,0.2160257002942264,0.7105985851168632
1783170494746870800,1.790870849609375,-0.21880758609771728,0.23643954276964066,0.7967799080103636
1783170494756940800,1.80094091796875,-0.5794412254214286,0.33172157922461626,0.8449498454827815
1783170494767009800,1.811009765625,-0.849541776382923,0.4546927098549902,0.9100714292127638
1783170494777079800,1.821079833984375,-0.932355668669939,0.5502955026969313,0.9394555638030171
1783170494787148800,1.831148681640625,-0.6778472391158342,0.6011743338018656,0.922709888446331
1783170494797218800,1.84121875,-0.22105507276356218,0.5145398603133857,0.8730701706822961
1783170494807287800,1.851287841796875,0.18052432493269444,0.3429863389521837,0.7849652593150734
1783170494817357800,1.86135791015625,0.44110885953009127,0.18372940458431838,0.6720816613264381
1783170494827426600,1.871426513671875,0.5471785397201776,0.011889613627642393,0.5655191561181098
1783170494837496800,1.881496826171875,0.6046551616549491,-0.06769947139397263,0.484056240048632
1783170494847565800,1.89156591796875,0.6322843423366546,-0.07500789471119641,0.5145976549152285
1783170494857635800,1.9016357421875,0.5443073681980372,0.0006171089850366115,0.5482775139380246
1783170494867704800,1.911704833984375,0.3997112657368183,0.08107128640338777,0.5528975384214893
1783170494877774600,1.921774658203125,0.2213812359780073,0.10712357315719127,0.47929768387731164
1783170494887843800,1.93184375,0.21100246530473232,0.09416194638386369,0.35886911386922
1783170494897913600,1.94191357421875,0.36402094367444515,0.03106514647975564,0.30627750576334073
1783170494907982800,1.95198291015625,0.6046154141664505,-0.054223903749138117,0.22442453093035145
1783170494918052600,1.962052490234375,0.7998556621938944,-0.11050883168131112,0.17677876346250995
1783170494928121900,1.972121826171875,0.8607745335370302,-0.1419002875059843,0.15908893912350758
1783170494938192000,1.98219189453125,0.8555728732407093,-0.13285159639269112,0.16623671025261283
1783170494948260900,1.9922607421875,0.673231854274869,-0.10678367367833852,0.17884239972773938
1783170494958331000,2.002330810546875,0.5162333663582801,-0.06255845524370669,0.19493916445532813
1783170494968400000,2.01239990234375,0.4682113859891891,-0.020263912610709665,0.2170471888290718
1783170494978470000,2.022469970703125,0.5153343716919422,-0.06312690278142691,0.22182729924507438
1783170494988538600,2.03253857421875,0.472364998537302,-0.20043781667053698,0.14754793800413607
1783170494998609000,2.04260888671875,0.43631987168788905,-0.33395196862518783,0.11848899851394816
1783170495008677600,2.052677734375,0.4360574213594198,-0.41163755811303854,0.10524165013441815
1783170495018748000,2.062747802734375,0.4829729017913341,-0.46482671198695896,0.15759263615114613
1783170495028816600,2.072816650390625,0.47952656072974204,-0.45417555411309,0.2375732595073059
1783170495038887000,2.082886962890625,0.48346039304733274,-0.40376638634651896,0.3344228375399485
1783170495048955400,2.092955322265625,0.45136604965031146,-0.3668148121766746,0.39227969096396115
1783170495059025400,2.103025390625,0.38753450573086734,-0.4018656672917306,0.3972809698499739
1783170495069094400,2.113094482421875,0.3121650842308998,-0.4801077216185629,0.35509313899446276
1783170495079164400,2.123164306640625,0.29388474665284153,-0.5426492257274687,0.316233210452646
1783170495089234400,2.133234375,0.2714607333987951,-0.6154306765608489,0.3394943686505779
1783170495099303400,2.143303466796875,0.14726561393141746,-0.6112001993842423,0.43773415893260387
1783170495109372400,2.153372314453125,-0.08093523893356323,-0.4904102121852338,0.5002999206999317
1783170495119442400,2.1634423828125,-0.2890437363624573,-0.3530770864643156,0.5580743930701166
1783170495129512400,2.173512451171875,-0.3439133906692266,-0.28949717921838164,0.619693521637097
1783170495139581400,2.18358154296875,-0.3874374750971794,-0.2651369372047484,0.6139613346606493
1783170495149651500,2.1936513671875,-0.4612210887104273,-0.2832031936407089,0.49421395184975114
1783170495159720400,2.203720458984375,-0.449660414776206,-0.34281390499472614,0.3618524405289441
1783170495169790500,2.21379052734375,-0.4043535385847091,-0.4219932401716709,0.25861802029740066
1783170495179859500,2.223859375,-0.3146744367033243,-0.4614027288876474,0.2515837377464399
1783170495189929500,2.233929443359375,-0.19177637130916117,-0.46386678091362116,0.44859008213095364
1783170495199998500,2.24399853515625,-0.029316110855340957,-0.49387160468548535,0.7494298355534672
1783170495210068500,2.254068359375,0.17848375901579855,-0.43404082084000106,0.9197022310629487
1783170495220137500,2.264137451171875,0.18591361675560472,-0.37173210257366296,0.939678047447279
1783170495230207500,2.27420751953125,-0.01137538049519062,-0.5093586582832038,0.9049265406049788
1783170495240276200,2.284276123046875,-0.29548867471814155,-0.7529045259267091,0.794528402756527
1783170495250346500,2.294346435546875,-0.49372401290833945,-0.8687215470187365,0.6244812673702835
1783170495260415500,2.30441552734375,-0.6165127727091312,-0.8509040046468377,0.5644480197552592
1783170495270485500,2.314485595703125,-0.9064011432021856,-0.7182898702718317,0.51322991022598
1783170495280554500,2.324554443359375,-1.2564222030967473,-0.5864568032719194,0.47379806354772297
1783170495290624300,2.334624267578125,-1.5714315708428621,-0.40619653610289097,0.5391205036120489
1783170495300693500,2.344693603515625,-1.7491092741727827,-0.20128698084577917,0.5674294101862236
1783170495310763300,2.35476318359375,-1.781326951688528,-0.02713438290208578,0.5343645777892321
1783170495320832500,2.36483251953125,-1.6123007568478582,0.11502017162591219,0.43773868897724894
1783170495330902300,2.37490234375,-1.095180086261034,0.22261384651288388,0.4060464235750958
1783170495340971500,2.384971435546875,-0.4179658843517303,0.2681974938191473,0.491088513305597
1783170495351041500,2.39504150390625,0.015931728625297546,0.24442864182740448,0.6001679332382976
1783170495361110500,2.405110595703125,0.28143150779306886,0.284575651037693,0.6362648633401841
1783170495371180500,2.4151806640625,0.6143026954442262,0.3500682600371539,0.7392607621081173
1783170495381249500,2.42524951171875,1.0337976890593767,0.31982714329138395,0.8908363481931388
1783170495391319600,2.435319580078125,1.2870745309919118,0.24719196906089783,0.9585424685236066
1783170495401388300,2.44538818359375,1.4288643438607453,0.21586071899086234,0.9945926368743181
1783170495411458600,2.45545849609375,1.5296248117268085,0.18163637782782316,1.0357958771392703
1783170495421527300,2.46552734375,1.491409939622879,0.17778876248896122,1.0730933421373368
1783170495431597600,2.47559765625,1.2915367710977792,0.2054335791312158,1.0364077254272996
1783170495441666300,2.485666259765625,0.9797124631285666,0.15517024957612155,0.9049823624454438
1783170495451736600,2.495736572265625,0.6212006382644176,0.12243877731934188,0.7294684130206703
1783170495461805300,2.505805419921875,0.2325748301655054,0.1325920686736703,0.5700372180644423
1783170495471875300,2.515875244140625,-0.1560205827951431,0.1872831515431404,0.5075632992990314
1783170495481944300,2.5259443359375,-0.5207271706461906,0.25477204892635347,0.4816735096305608
1783170495492014300,2.536014404296875,-0.9872142170608043,0.3059844958998263,0.40370216200388964
1783170495502083600,2.54608349609375,-1.4795885689258574,0.3468907990448177,0.36659517807662484
1783170495512153300,2.5561533203125,-1.8792367062985895,0.493184937595576,0.395021354354918
1783170495522222600,2.56622265625,-1.9097487489402294,0.6305354528427124,0.4250735609324649
1783170495532292400,2.576292236328125,-1.4913479803025722,0.6537111612468958,0.4617449664540589
1783170495542361600,2.586361572265625,-0.8148083166539668,0.5763794997632503,0.4721124850809574
1783170495552431400,2.596431396484375,-0.19315993462204933,0.48489393298178907,0.43074404431693253
1783170495562500400,2.606500244140625,0.13038695984482765,0.380505922268331,0.36894239878989754
1783170495572570400,2.6165703125,0.29020401231348514,0.28755568976178764,0.34946981921996917
1783170495582639400,2.626639404296875,0.4435422241568565,0.2767072557501495,0.3892425882903859
1783170495592709600,2.636709716796875,0.6188380007863045,0.33289792952761055,0.47313408321365713
1783170495602778400,2.6467783203125,0.7613596350610256,0.3824493114210665,0.5599566996853799
1783170495612848600,2.6568486328125,0.8787304614663124,0.37966596431285143,0.5890955542776734
1783170495622917400,2.66691748046875,0.9705126731067896,0.32287513268515466,0.5430693143030628
1783170495632987400,2.6769873046875,1.0262018271028994,0.1671148082613945,0.4265514514653012
1783170495643056400,2.687056396484375,1.0685165357410906,-0.01666355003118515,0.2672115515217185
1783170495653126400,2.69712646484375,1.034766826352477,-0.17892302721589803,0.13062480545500293
1783170495663195400,2.7071953125,0.9605231940120458,-0.2635185422226786,0.05327772263993975
1783170495673265400,2.717265380859375,0.85230773396492,-0.2792445191428065,0.013679835212393663
1783170495683334400,2.72733447265625,0.6072077687472105,-0.2052019623324275,-0.021952548400952947
1783170495693404400,2.737404296875,0.36299510775804517,-0.12918825157955288,-0.03264531464355532
1783170495703473400,2.747473388671875,0.22404840936064718,-0.13992328834459183,-0.06970011172585655
1783170495713543400,2.75754345703125,0.08793547308444977,-0.174212073045969,-0.1589922190170735
1783170495723612700,2.76761279296875,0.04333353029191494,-0.16478636531382798,-0.18726976233860476
1783170495733682400,2.777682373046875,0.0637912119090557,-0.10148279079124331,-0.13065823280056937
1783170495743751400,2.78775146484375,0.12605156098902226,-0.03957651584595442,-0.030415646762191315
1783170495753821400,2.797821533203125,0.17902327271997928,-0.05571998752579092,-0.028659252098517024
1783170495763890400,2.807890380859375,0.208998139744997,-0.08388459025844931,-0.033378243444429245
1783170495773960400,2.81796044921875,0.20115502502918242,-0.15761442785784602,-0.02177430347392801
1783170495784029400,2.828029541015625,0.2528875503540039,-0.15434242044985294,0.020793411810952237
1783170495794099500,2.838099365234375,0.2734206352949142,-0.16888386376053094,0.05675935877719894
1783170495804168400,2.84816845703125,0.2588654557198286,-0.21737945299074052,0.08345522239785641
1783170495814238500,2.858238525390625,0.19701134935319423,-0.23775369410812852,0.11154148093098774
1783170495824307500,2.868307373046875,0.07475333542823791,-0.2232971526019275,0.11444547701049596
1783170495834377500,2.87837744140625,-0.03920329861938953,-0.20446312666386365,0.11184878418133594
1783170495844446500,2.888446533203125,-0.054553427964448925,-0.20130320132821797,0.05376519106305204
1783170495854516500,2.8985166015625,-0.00860650030374527,-0.23248189118504523,-0.04150360231786035
1783170495864585500,2.90858544921875,0.037273791861534115,-0.31278292386829853,-0.2309641070332378
1783170495874655500,2.918655517578125,-0.04473521378338337,-0.42442894288599486,-0.4404737764969468
1783170495884724500,2.928724365234375,-0.16933949857354164,-0.45089404822438955,-0.6082332393374293
1783170495894794500,2.93879443359375,-0.33639585464596744,-0.41246056493371724,-0.6922817149206996
1783170495904863200,2.94886328125,-0.5557914697647094,-0.4125447360858321,-0.7414164788372815
1783170495914933500,2.95893359375,-0.6024678807437419,-0.44906011079549785,-0.6991308501631021
1783170495925002200,2.969002197265625,-0.38443595519363877,-0.48973874266445633,-0.6230855752281844
1783170495935072500,2.979072509765625,-0.06767419082224368,-0.5385960048139095,-0.5804079515617341
1783170495945141500,2.9891416015625,0.02693184606730938,-0.5989657178416847,-0.629447073084116
1783170495955211500,2.99921142578125,-0.2541629771173,-0.6708829530611634,-0.7159857580479234
1783170495965280500,3.009280517578125,-0.857833803910017,-0.7142495088398456,-0.7552525503575801
1783170495975350300,3.019350341796875,-1.6056997511476276,-0.5719964623734355,-0.7730073296915739
1783170495985419500,3.02941943359375,-2.135209947708249,-0.3770581199020147,-0.7494836115673184
1783170495995489300,3.0394892578125,-2.2048089691132304,-0.22270342449247835,-0.6820071352742612
1783170496005558500,3.04955859375,-2.024925864693522,-0.062488897138833994,-0.5968321033464744
1783170496015628300,3.059628173828125,-1.804645283433795,0.07598053913563489,-0.57219556514211
1783170496025697500,3.069697509765625,-1.6323668087989092,0.17756401382237672,-0.5560964440606534
1783170496035767600,3.079767578125,-1.4764000020176171,0.16125936023145912,-0.5646649869741872
1783170496045836500,3.08983642578125,-1.3067547984957695,0.1613651586934924,-0.540145681941323
1783170496055906300,3.09990625,-0.908819310259819,0.2829407433122396,-0.4381542109755799
1783170496065975600,3.1099755859375,-0.46223231157958505,0.4887912326812744,-0.2571856128741056
1783170496076045600,3.120045654296875,-0.04844225160777568,0.6510545092582702,-0.014966262860316782
1783170496086114300,3.1301142578125,0.2322872453957796,0.8117424993425607,0.14056423486294223
1783170496096184600,3.1401845703125,0.41313305736780165,0.9413701652526855,0.22107058085994793
1783170496106253300,3.15025341796875,0.46890638251602645,0.9202370685920118,0.18822039586063474
1783170496116323600,3.160323486328125,0.42206922801733016,0.8906555847987532,0.07457198751196265
1783170496126392300,3.170392333984375,0.4381114312797785,0.9066486882224678,-0.002999547142162919
1783170496136462300,3.18046240234375,0.5717664530098437,0.9082590460285543,-0.03998034740649163
1783170496146531300,3.19053125,0.7408411631673574,0.9324372094735502,-0.009551909661386162
1783170496156601300,3.200601318359375,0.8220207322508096,0.9605570962816476,0.018120050716120748
1783170496166670300,3.21067041015625,0.8024298965960741,0.9728472535341978,0.036793844591174275
1783170496176740400,3.220740234375,0.7304238140493631,0.9041130322650074,0.0332680450852029
1783170496186809300,3.230809326171875,0.7431599615037441,0.803028739272058,0.09136108188526704
1783170496196879400,3.24087939453125,0.8219768931090832,0.7454778830572962,0.1824077275265008
1783170496206948600,3.250948486328125,0.8982605068445205,0.7030018463775515,0.1925038270671852
1783170496217018400,3.261018310546875,1.0482727891355752,0.6232350667014718,0.28276167868459595
1783170496227087600,3.271087646484375,1.137948383885622,0.5306643350318074,0.29786313049821184
1783170496237157400,3.281157470703125,1.1497907973706722,0.4203188772186637,0.2219897780640982
1783170496247226400,3.291226318359375,1.0792945348650216,0.310415317954123,0.15870134631171823
1783170496257296400,3.30129638671875,0.82461250230968,0.20486820033341646,0.08161165862409397
1783170496267365400,3.311365478515625,0.384403806489706,0.16197890667766332,0.024723558900691566
1783170496277435400,3.321435302734375,-0.030165421161055563,0.19088029925227165,0.0011474256026092916
1783170496287504400,3.33150439453125,-0.3238625362873077,0.24516163227707147,-0.08482008101027458
1783170496297574400,3.341574462890625,-0.4856663786590099,0.2677393747881055,-0.06938268437371589
1783170496307643400,3.351643310546875,-0.5192354707837105,0.27498627717643975,-0.012744289661641232
1783170496317713400,3.36171337890625,-0.6282073021560907,0.27335136945098637,0.055969582939264365
1783170496327782400,3.371782470703125,-0.801887460282445,0.37627807544022795,0.1989440344488248
1783170496337852400,3.381852294921875,-0.8500520639926195,0.5240431633263826,0.343464368260093
1783170496347921400,3.39192138671875,-0.7144236963629722,0.605574906848371,0.49691214142516255
1783170496357991400,3.401991455078125,-0.377163918364048,0.5833084222435951,0.5591262767432257
1783170496368060400,3.412060302734375,0.08591419638991356,0.47443858994096516,0.5098705533280968
1783170496378130400,3.42213037109375,0.4057330102443695,0.27203210354596374,0.43056868775002655
1783170496388199400,3.432199462890625,0.5879273142158985,0.08121697848439216,0.2722271511940285
1783170496398269400,3.44226953125,0.691615067705512,-0.0547834373280406,0.18138611112749203
1783170496408338400,3.45233837890625,0.7484890475720166,-0.09463906237632036,0.14652832176596856
1783170496418408400,3.462408447265625,0.7019768872439861,-0.0414727048560977,0.23544037566445766
1783170496428477200,3.472477294921875,0.5393552987486123,0.10495850407779216,0.3056311706838198
1783170496438547500,3.48254736328125,0.465703202560544,0.15678309160023926,0.310755655824393
1783170496448616400,3.492616455078125,0.4552765010923147,0.12122779409438371,0.27734913385026155
1783170496458686500,3.5026865234375,0.5050158067733049,0.06518441983312367,0.20672014834303407
1783170496468755500,3.51275537109375,0.5232546432971954,0.00748714088499546,0.09483990957750939
1783170496478825200,3.5228251953125,0.484377507892251,-0.105736502712965,-0.05431954614333808
1783170496488894500,3.53289453125,0.39783085881769653,-0.20184329955428837,-0.2015173555355519
1783170496498964200,3.542964111328125,0.339112127867341,-0.2337818678677082,-0.2824836471945047
1783170496509033500,3.553033447265625,0.3556780627429485,-0.22095979569554328,-0.3114457569804042
1783170496519103200,3.563103271484375,0.3368780852049589,-0.1715960453286767,-0.2896029046151787
1783170496529172500,3.57317236328125,0.38305706805586814,-0.11184826359152793,-0.2696686988828704
1783170496539242500,3.583242431640625,0.4028752827256918,-0.07860825729072093,-0.22655242807082832
1783170496549311500,3.5933115234375,0.3527688972979784,-0.060334349453449246,-0.22923830615393817
1783170496559381500,3.603381591796875,0.2930050412088632,-0.0784574506431818,-0.26927142492728307
1783170496569450500,3.613450439453125,0.25931203044354917,-0.14998480976223943,-0.3394265275787562
1783170496579520500,3.6235205078125,0.34875264739394185,-0.1947901661723852,-0.3626271146958694
1783170496589589200,3.63358935546875,0.44699148782789705,-0.24554887802898884,-0.3494104171829298
1783170496599659500,3.643659423828125,0.4732499646782875,-0.28625059851258994,-0.3727997318051755
1783170496609728300,3.653728271484375,0.397492420643568,-0.3154986125677824,-0.39301476377286015
1783170496619798500,3.663798583984375,0.25917759040892124,-0.3101540366694331,-0.44759781969059254
1783170496629867300,3.6738671875,0.12911679377853869,-0.2694713131472468,-0.45475127164181317
1783170496639937300,3.683937255859375,-0.01518646321594715,-0.16619126367568968,-0.49794206899479027
1783170496650006300,3.69400634765625,-0.16373451817333698,-0.07510112595260143,-0.48609264124706386
1783170496660076300,3.704076171875,-0.40118542994260786,0.03741933781206608,-0.4585797073561698
1783170496670145500,3.7141455078125,-0.600779781526327,0.1723530011758208,-0.39794889570679515
1783170496680215300,3.72421533203125,-0.6975286756634712,0.3200859403580427,-0.2846603153801523
1783170496690284500,3.734284423828125,-0.7592360670357942,0.4669429734885692,-0.04875635905824601
1783170496700354300,3.744354248046875,-0.6564893937885761,0.5057157717362046,0.2121406755544245
1783170496710423600,3.754423583984375,-0.4220364947915077,0.34908407130539415,0.34262221834752704
1783170496720493300,3.764493408203125,-0.27267946153879163,0.132158061170578,0.1720329023759812
1783170496730562600,3.7745625,-0.3164519677698612,-0.1589914152994752,-0.2591347559141926
1783170496740632300,3.78463232421875,-0.7312918290555477,-0.554910303016007,-0.6090150373648852
1783170496750701300,3.794701416015625,-1.5134148506820202,-0.8188385950833559,-0.8790428153511136
1783170496760771600,3.804771484375,-2.3556138630867003,-0.5375456189781427,-0.9298884748388081
1783170496770840300,3.81484033203125,-2.88622763697505,0.36107875274270773,-0.7409427969109267
1783170496780910600,3.82491064453125,-2.8808751700311896,1.137675996685028,-0.5027025248622522
1783170496790979300,3.834979248046875,-2.547369191607833,1.4761378439500927,-0.27206370426062493
1783170496801049300,3.84504931640625,-1.997238231822848,1.649627740201354,-0.2920590655956417
1783170496811118300,3.855118408203125,-1.5107552760839462,1.5848121536806226,-0.31771782298721374
1783170496821188400,3.865188232421875,-1.0766776303648948,1.4288476849868892,-0.46847464003525674
1783170496831257300,3.87525732421875,-0.7290548637837171,1.3340087161242962,-0.42462457505594936
1783170496841327400,3.885327392578125,-0.487234650889039,1.2519202155023812,-0.4177462137190625
1783170496851396400,3.895396240234375,-0.34871874512434003,1.1936805002406239,-0.4562826093949377
1783170496861466400,3.90546630859375,-0.20586802502572535,1.1909075283959507,-0.5420150194771588
1783170496871535400,3.915535400390625,-0.11396014117896557,1.2553899374395607,-0.7140289979569614
1783170496881605400,3.92560546875,-0.07122808391153812,1.3411144564762711,-0.9313036753989755
1783170496891674600,3.935674560546875,-0.044214989301562306,1.3053792723588644,-1.0057415882024914
1783170496901744400,3.945744384765625,0.08034545634686946,1.3438484114848077,-1.0547600322630255
1783170496911813400,3.9558134765625,0.26508886027932166,1.3670960160814225,-1.064057364375144
1783170496921883400,3.96588330078125,0.4025754229962826,1.3632698819220066,-1.1046164615176617
1783170496931952400,3.975952392578125,0.41222295678555965,1.3579505865953863,-1.1818952968355267
1783170496942022400,3.9860224609375,0.23571079010367393,1.2893348771393298,-1.3163652151450513
1783170496952091400,3.99609130859375,-0.03275894478559494,1.267299570941925,-1.435470171866566
1783170496962161400,4.006161376953125,-0.281356688991189,1.306402185665816,-1.527189693534374
1783170496972230400,4.01623046875,-0.4303624245882034,1.3464775909446178,-1.5495729363866149
1783170496982300200,4.026300048828125,-0.38510932441055773,1.4637598622836172,-1.572439724972099
1783170496992369400,4.036369384765625,-0.2869108159869909,1.5554340835049747,-1.565016881494969
1783170497002439400,4.046439453125,-0.2510094815224409,1.447925018161535,-1.6657753035344183
1783170497012508400,4.05650830078125,-0.1785422112047672,1.381367994800955,-1.7067466347396372
1783170497022578400,4.066578369140625,-0.15358780269026756,1.407544492456317,-1.8102768595799803
1783170497032647400,4.0766474609375,-0.15511282030045986,1.4455769937306642,-1.7998232701048253
1783170497042717400,4.086717529296875,-0.19689678306281566,1.5129028095066546,-1.7000743173688648
1783170497052786400,4.096786376953125,-0.23709435341656207,1.6143850157760082,-1.6430173821508884
1783170497062856200,4.106856201171875,-0.284801276487112,1.6519800024159252,-1.6358615190468728
1783170497072925400,4.116925537109375,-0.2989811930090189,1.5961546548195182,-1.7003598563119768
1783170497082995200,4.1269951171875,-0.18397300408184528,1.486833863878995,-1.756013062211871
1783170497093064200,4.137064208984375,-0.07596797191500664,1.369705906318873,-1.8520245819851755
1783170497103134500,4.147134521484375,-0.008014379629492759,1.2852563756540416,-1.9305729257822035
1783170497113203200,4.157203125,0.024127310040593146,1.1920350711211563,-1.9370551274083554
1783170497123273500,4.1672734375,-0.008536942198872566,1.159794889512658,-1.8403890892490744
1783170497133342200,4.17734228515625,-0.013445757028460502,1.2019548459805547,-1.7058756971240043
1783170497143412200,4.187412109375,0.03460954108834267,1.2207350959047674,-1.5294520855084062
1783170497153481200,4.197481201171875,0.14762392584979533,1.1870290795274079,-1.4128447908215225
1783170497163551200,4.20755126953125,0.1709533635109663,1.0523698491908609,-1.3293429162703454
1783170497173620200,4.2176201171875,-0.035141456007957456,0.9066710461847484,-1.3892394588284194
1783170497183690200,4.227690185546875,-0.2507347562342882,0.7783129618190229,-1.4279077737882733
1783170497193759200,4.23775927734375,-0.3516384319633245,0.69358636777848,-1.3965611800186335
1783170497203829200,4.247829345703125,-0.2843716528981924,0.764380151925981,-1.2567533347472548
1783170497213898200,4.257898193359375,-0.23279461039602756,0.8341102523647248,-0.9929530529737471
1783170497223968300,4.26796826171875,-0.2931879965603351,0.9088203331731259,-1.066328378047049
1783170497234037200,4.278037353515625,-0.38282384382188317,0.8324709607250989,-0.9772011378947645
1783170497244107300,4.288107177734375,-0.6821119108229875,0.7927392543174326,-0.9668629184275865
1783170497254176300,4.29817626953125,-0.8448696929186582,0.819651372770965,-0.978476710788533
1783170497264246300,4.308246337890625,-0.6687719522565603,0.7194070377334952,-0.904150660861656
1783170497274315300,4.318315185546875,-0.24500293458402156,0.5535213328756392,-0.8649018426001072
1783170497284385300,4.32838525390625,0.08770166432857512,0.40714916065260764,-0.8459381258677691
1783170497294454300,4.338454345703125,0.15048457597792148,0.3681514676079154,-0.8321862254995852
1783170497304524300,4.348524169921875,0.06397942795753479,0.35095088809058067,-0.8566236974678934
1783170497314593300,4.35859326171875,-0.0031897359520196913,0.30800694163814185,-0.8692837840113788
1783170497324663000,4.3686630859375,0.03258066560924053,0.2640308756589889,-0.8249570779636501
1783170497334732300,4.378732177734375,0.20139000282883643,0.2663058348536491,-0.7150896129257976
1783170497344802300,4.38880224609375,0.40691023733019827,0.2738194253541529,-0.626428455915302
1783170497354871300,4.398871337890625,0.5046335294574499,0.24819018631801007,-0.597741729004681
1783170497364941300,4.40894140625,0.5125555546283722,0.16479980931729077,-0.6696063572540879
1783170497375010300,4.41901025390625,0.4239584027647972,0.050705666495114564,-0.7981940125919879
1783170497385080300,4.429080322265625,0.2692120776891708,-0.06859145179763436,-0.8738508727312088
1783170497395149300,4.4391494140625,0.19504560223817824,-0.08155410148426889,-0.8911261249199509
1783170497405219300,4.44921923828125,0.17002163561880587,-0.06764876412004232,-0.8564761787559837
1783170497415288300,4.459288330078125,0.13560615579783916,-0.050808250086754554,-0.8058637435022741
1783170497425358300,4.4693583984375,0.06735211926102638,-0.03185308198705315,-0.8123922684881836
1783170497435427000,4.479427001953125,-0.024254151290655133,-0.086127839140594,-0.8589609082438051
1783170497445497300,4.489497314453125,-0.0889361745595932,-0.18260858386084436,-0.9042464493863284
1783170497455566000,4.499566162109375,-0.33001755178570746,-0.24414734066799282,-0.9777898245029151
1783170497465636400,4.50963623046875,-0.5489882194906472,-0.24866174935251473,-1.081508922978863
1783170497475705300,4.519705322265625,-0.6346954951316118,-0.24310528426915406,-1.1247266448713837
1783170497485775400,4.529775390625,-0.5945972934991121,-0.24702494193091987,-1.0978514243621378
1783170497495844400,4.53984423828125,-0.4705161558002233,-0.25281901516243815,-1.0803275311745704
1783170497505914000,4.5499140625,-0.4703577503681183,-0.3131318834364414,-1.088066089537367
1783170497515983400,4.5599833984375,-0.5736866074174642,-0.322357830812782,-1.0872268622342496
1783170497526053000,4.57005322265625,-0.5968114624172449,-0.30587884356826545,-1.048518069133535
1783170497536122400,4.580122314453125,-0.5266548071295023,-0.3289781257353723,-1.0743783404465763
1783170497546192100,4.590192138671875,-0.4315723848998546,-0.31901158912479877,-1.105625784690678
1783170497556261400,4.600261474609375,-0.3485895657867193,-0.3141037972085178,-1.2013587797835468
1783170497566331400,4.610331298828125,-0.2984884410560131,-0.3328625659532845,-1.2482356817707418
1783170497576400400,4.620400390625,-0.23135317941606043,-0.3557679329834878,-1.2649511081196367
1783170497586470400,4.630470458984375,-0.29571956086456774,-0.3052174570500851,-1.2367504111602903
1783170497596539100,4.6405390625,-0.6613344957321882,-0.22321868053823707,-1.2396787196971475
1783170497606609400,4.650609375,-1.0577367830514908,-0.08504676590561866,-1.2222939427193253
1783170497616678100,4.66067822265625,-1.1108084480255842,0.05491933866739273,-1.0577274307012556
1783170497626748400,4.67074853515625,-0.8841273520737886,0.18147037361115217,-0.8330793018817901
1783170497636817200,4.680817138671875,-0.6675596538573503,0.26131562535092234,-0.7027366926353424
1783170497646887400,4.690887451171875,-0.48111119957268234,0.27930136389657856,-0.5631864023216069
1783170497656956200,4.7009560546875,-0.31318273684084413,0.16884689275100825,-0.4675392588812858
1783170497667026200,4.711026123046875,-0.2104758110821247,0.0018261925138533114,-0.43995574397221204
1783170497677095200,4.72109521484375,-0.13654723604023455,-0.12179302676171064,-0.48682307441346345
1783170497687165200,4.731165283203125,-0.085907766649127,-0.17366715251430867,-0.5904120437037199
1783170497697234400,4.741234375,-0.03887771992683411,-0.07921922879591584,-0.6204964355178177
1783170497707304200,4.75130419921875,-0.13537293156385422,0.09533435116410255,-0.5962681493207812
1783170497717373400,4.76137353515625,-0.4223170652985573,0.31504341614618897,-0.5384006283722818
1783170497727443200,4.771443115234375,-0.6811866126716136,0.619491496258974,-0.41535730928853154
1783170497737512400,4.781512451171875,-0.7065045938014983,0.9485396184906363,-0.21719145613797008
1783170497747582200,4.791582275390625,-0.48132922623753543,1.2528738629654048,0.10255268504507839
1783170497757651500,4.8016513671875,-0.15853753405213356,1.4616281109519302,0.4215448388170451
1783170497767721200,4.81172119140625,0.1622346350044012,1.607284682251513,0.7024634286519139
1783170497777790200,4.821790283203125,0.39616263334453106,1.6214428253330289,0.8862163602422922
1783170497787860500,4.831860595703125,0.5233376454055308,1.4821877916388213,0.9468656939290463
1783170497797929200,4.84192919921875,0.5137906493812799,1.325615420179814,0.8371732201319187
1783170497807999500,4.85199951171875,0.3225771726518869,1.1981553075671196,0.6541414424229413
1783170497818068200,4.862068115234375,0.00804652833342552,1.0790186405330895,0.4316534142468124
1783170497828138200,4.87213818359375,-0.4005722664803266,0.9815281342484057,0.15244403948262333
1783170497838207200,4.882207275390625,-0.7220037762284278,0.9212529676362872,-0.04109305788874626
1783170497848277200,4.89227734375,-0.8390899404734372,0.9731143800377845,-0.104336353591457
1783170497858346200,4.90234619140625,-0.7077507944703102,1.0940868841968476,-0.033497268997505304
1783170497868416300,4.912416259765625,-0.4474246185481548,1.237039018843323,0.06737155461385846
1783170497878485200,4.9224853515625,-0.19473580563664436,1.355749423289299,0.1550928734909743
1783170497888555300,4.93255517578125,0.00457271474301815,1.3960736887626348,0.2219401119697839
1783170497898624300,4.942624267578125,0.018085107266902923,1.319383686183393,0.24885208429284392
1783170497908694300,4.9526943359375,-0.14432429978251457,1.2701950001224875,0.27639380588680507
1783170497918763300,4.96276318359375,-0.29569559546709057,1.291559275190532,0.23643603563830254
1783170497928833300,4.972833251953125,-0.13031097199916838,1.247254269517958,0.23896964576914906
1783170497938902300,4.98290234375,0.1955307554066181,1.1199809116490185,0.2209598687607795
1783170497948972300,4.99297216796875,0.5192383933931589,0.9646554715111851,0.11757095208726823
1783170497959041300,5.003041259765625,0.6965075159221887,0.8115887700855732,-0.020443799222260712
1783170497969111300,5.013111328125,0.7161123801022767,0.648799277677387,-0.10974493463672697
1783170497979180300,5.02318017578125,0.6807610807359218,0.5445169192954897,-0.18469174681045114
1783170497989249300,5.033249267578125,0.6334183148026467,0.5046897896893322,-0.2348276505935937
1783170497999319300,5.0433193359375,0.5889326918661594,0.43686771482899783,-0.2655594734657556
1783170498009389000,5.05338916015625,0.5234294153422117,0.41210444497242565,-0.28546229767911135
1783170498019458300,5.063458251953125,0.42630701171755786,0.39978023931980133,-0.30414529777392746
1783170498029527300,5.07352734375,0.38110008876919743,0.39963659306541083,-0.24552206308729946
1783170498039597300,5.083597412109375,0.30910861926972866,0.4524843861557543,-0.1628260250262916
1783170498049666800,5.093666748046875,0.16370763016641138,0.4927689041405916,-0.12313077817149459
1783170498059736000,5.103736083984375,-0.0009293898046016692,0.4971887664094567,-0.1306385234531015
1783170498069804800,5.1138046875,-0.08262801432609558,0.4554074339956045,-0.23093473480828106
1783170498079875000,5.123875,-0.14996902767121792,0.3637399347759783,-0.3290112242873758
1783170498089944800,5.13394482421875,-0.1923071171849966,0.310493643887341,-0.36223961321562526
1783170498100014000,5.14401416015625,-0.19367139127552507,0.262712194275856,-0.35636787163801487
1783170498110082800,5.154082763671875,-0.14155658863484857,0.24911139281615613,-0.2650762199934572
1783170498120152800,5.16415283203125,-0.034982466053962706,0.28144188305661083,-0.12397409712783991
1783170498130221800,5.174221923828125,0.08022095318436623,0.3081603786341846,0.010162570639327169
1783170498140291800,5.184291748046875,0.13834347180724144,0.25804361794292924,-0.01175173952691257
1783170498150360800,5.19436083984375,0.2099789674758911,0.09947174322977662,-0.0778087044108659
1783170498160430800,5.204430908203125,0.30325054089128967,-0.04031739734113216,-0.13491159766241909
1783170498170499800,5.214499755859375,0.3012269261091947,-0.12003610009178518,-0.22713008182831107
1783170498180569900,5.22456982421875,0.20121873791515826,-0.23825609067231415,-0.3306112068299204
1783170498190639000,5.23463916015625,0.06859890445172787,-0.3421680083066225,-0.39039354842379687
1783170498200708900,5.244708984375,-0.012713351100683211,-0.40999665903821586,-0.4362558665409684
1783170498210778000,5.254778076171875,0.11658932063877582,-0.4026224770084023,-0.4117763820618391
1783170498220847900,5.264847900390625,0.2000064395159483,-0.3965190455667674,-0.2593886028110981
1783170498230916900,5.274916748046875,0.2308662726819515,-0.2927333846606314,-0.09917765565402806
1783170498240987000,5.28498681640625,0.3626239363580942,-0.19987799083068966,0.07739318241253494
1783170498251055900,5.295055908203125,0.4890390699625015,-0.17888327972739934,0.1998980107054114
1783170498261126000,5.3051259765625,0.5432230800926685,-0.2280833639651537,0.23293073093108832
1783170498271195000,5.31519482421875,0.47904491469264027,-0.2794346348874271,0.15021788786575196
1783170498281265000,5.325264892578125,0.36628596599698066,-0.325623554610461,0.04058269721381366
1783170498291334000,5.335333984375,0.1732528726249933,-0.38454423787370323,-0.06918123438432812
1783170498301404000,5.34540380859375,0.037599370554089545,-0.4260134355984628,-0.17222652525193988
1783170498311473000,5.355472900390625,0.035927053427696226,-0.4443555863663554,-0.20687873643822965
1783170498321543000,5.36554296875,-0.014254150801897049,-0.47165933448597785,-0.17042787833213804
1783170498331612000,5.37561181640625,-0.06256430046260357,-0.396660645994544,-0.13462123641371726
1783170498341682000,5.385681884765625,-0.02502864279448986,-0.3714985860787332,-0.13465163155198095
1783170498351751000,5.3957509765625,0.03901215996146202,-0.3878101078018546,-0.11660437207743525
1783170498361821000,5.405821044921875,0.07042904248833656,-0.4279132778704166,-0.19992592162564396
1783170498371890000,5.415889892578125,0.0037806875824928283,-0.4738407701782882,-0.32994813981130716
1783170498381960000,5.4259599609375,-0.11525894881784915,-0.5384902063518763,-0.44054384605847297
1783170498392029000,5.43602880859375,-0.25478140127658844,-0.5485517277695239,-0.5847276413917541
1783170498402099000,5.446098876953125,-0.3780605749428272,-0.5620481920719146,-0.6474399720229208
1783170498412167700,5.456167724609375,-0.4899100075781345,-0.5449813219368458,-0.7082553829915821
1783170498422238000,5.466238037109375,-0.6390004988491534,-0.5468699121624231,-0.6844287363979965
1783170498432307000,5.476306884765625,-0.7754933743536472,-0.4337608348548412,-0.6172990277159959
1783170498442377000,5.486376953125,-0.6653858169496059,-0.23784692534953356,-0.4401031896188855
1783170498452446000,5.496446044921875,-0.4461474382191896,-0.05222644632160663,-0.1826163287758827
1783170498462515700,5.506515625,-0.28482816449403764,0.09969809933155774,0.0866956290911883
1783170498472585000,5.5165849609375,-0.06682195790708065,0.15925503467172383,0.16307941526547073
1783170498482654700,5.52665478515625,0.03224105839133262,0.11452157445400953,0.13248802377730606
1783170498492724000,5.536723876953125,-0.14168576797246932,0.007853343848884106,0.027373963811621067
1783170498502793700,5.546793701171875,-0.4713058448731899,-0.02589139710366726,-0.14361264438182114
1783170498512863000,5.556863037109375,-0.7763111204773188,0.019574761302769184,-0.24348938821591434
1783170498522933000,5.56693310546875,-0.9701134446561336,0.16490706908404826,-0.32432365099303423
1783170498533002000,5.577001953125,-1.1189338868141174,0.36106267839074135,-0.48147440686188636
1783170498543072000,5.587072021484375,-1.1700631855487822,0.54315498329252,-0.610272709275782
1783170498553141000,5.59714111328125,-1.1895037990778683,0.709618049646914,-0.7586321097932756
1783170498563211000,5.6072109375,-1.2584060703903437,0.8846797252595424,-0.9206438958272337
1783170498573279700,5.61727978515625,-1.2082763040870428,1.041025594486296,-1.0110552575059235
1783170498583350000,5.62735009765625,-1.0147656563311815,1.169302430309355,-1.1251337643675505
1783170498593418800,5.637418701171875,-0.8095435279935598,1.2154863815963268,-1.2144757432490587
1783170498603489000,5.647489013671875,-0.6169938342243433,1.251271688465774,-1.3095210483387112
1783170498613557800,5.657557861328125,-0.3743617204248905,1.3106857082039116,-1.3222633332729339
1783170498623627800,5.667627685546875,-0.1357914492368698,1.388038120214641,-1.3046677630886434
1783170498633696800,5.67769677734375,0.10841828914284705,1.4830050993710755,-1.2584113310873508
1783170498643766800,5.687766845703125,0.30952596789896486,1.5754557117924093,-1.141988379991427
1783170498653837000,5.697837158203125,0.3660609250694513,1.5614637190580367,-1.065618257016316
1783170498663905800,5.70790576171875,0.3392711178213358,1.5658090547859669,-0.9742147424951195
1783170498673976000,5.71797607421875,0.2938017445445061,1.4842238275110722,-0.8780792310159653
1783170498684044800,5.728044921875,0.131522101354599,1.438855868782103,-0.9064999274015426
1783170498694114800,5.73811474609375,-0.13418050690889358,1.3884829413726925,-1.0916518390696495
1783170498704183800,5.748183837890625,-0.4065653694152832,1.322781804189086,-1.2837141146481037
1783170498714253800,5.75825390625,-0.602187894758582,1.2906763548761606,-1.4477351946778594
1783170498724322800,5.76832275390625,-0.746584090733528,1.3098302604183554,-1.5350699253901838
1783170498734392800,5.778392822265625,-0.7456739901512861,1.3585378849640488,-1.5422510690659283
1783170498744462000,5.788462158203125,-0.7759048777639865,1.403544024643302,-1.5686413556024432
1783170498754531800,5.79853173828125,-0.927221228390932,1.472657308357954,-1.6354694509893655
1783170498764601000,5.80860107421875,-1.0896107616961002,1.5438094044238329,-1.6506149976730347
1783170498774670800,5.8186708984375,-1.1351976238727568,1.6813383449777959,-1.6176491321384905
1783170498784740000,5.828739990234375,-1.0703910974413156,1.7974150399193167,-1.5170982153698802
1783170498794809900,5.838809814453125,-0.9363532138735056,1.8491209694981574,-1.4083682299293576
1783170498804878800,5.84887890625,-0.7179764204084873,1.9097236144989729,-1.3592057012230156
1783170498814948900,5.858948974609375,-0.4623310957789421,1.9317475225195289,-1.2898279213532804
1783170498825017900,5.869017822265625,-0.148142981287837,1.8543220452725886,-1.2575285569034516
1783170498835088100,5.879088134765625,0.14013386235535144,1.7389008916303514,-1.294185532040894
1783170498845156900,5.889156982421875,0.32551205706000325,1.629188763284683,-1.338803110793978
1783170498855227000,5.899226806640625,0.4884937110394239,1.581951065161079,-1.3657152292475103
1783170498865296000,5.9092958984375,0.6122632985711097,1.5755284847676754,-1.2949001100510358
1783170498875366000,5.919365966796875,0.6245721605241298,1.5246642667099832,-1.1825325718257576
1783170498885435000,5.929434814453125,0.4538070130616426,1.4902138617061078,-1.0913796710647643
1783170498895505000,5.9395048828125,0.3033107466459274,1.465723125180602,-1.005648210830614
1783170498905574000,5.949573974609375,0.12349077059030532,1.4138779332615434,-0.9482457501105963
1783170498915644000,5.959643798828125,-0.04645838431417942,1.367312143050134,-0.8728686567608267
1783170498925713000,5.969712890625,0.019000468546152113,1.34490698062703,-0.7623749495834111
1783170498935783000,5.979782958984375,0.0726753601104021,1.32471847134009,-0.7069391858264803
1783170498945852000,5.989851806640625,0.023484335961937903,1.2156612997718155,-0.6770627376746385
1783170498955922000,5.999921875,-0.036439094603061675,1.1279719104029238,-0.6729610745094716
1783170498965990700,6.00999072265625,-0.11263093840181827,1.0293944856643675,-0.7036595796339213
1783170498976061000,6.02006103515625,-0.16486849063932896,0.9438571597628295,-0.7022407258119434
1783170498986130000,6.0301298828125,-0.1796060410439968,0.8872726643621921,-0.6818677998688072
1783170498996200000,6.040199951171875,-0.11212591148912907,0.8301809500917792,-0.6544798805970699
1783170499006269000,6.05026904296875,-0.005703764599561691,0.7112839370325207,-0.6800698836013674
1783170499016339000,6.0603388671875,0.0987736779630184,0.5393311872206628,-0.7189063947349786
1783170499026408000,6.070407958984375,0.16708558216691016,0.3528384554028511,-0.7663799474410712
1783170499036477700,6.080477783203125,0.13572948991656303,0.2312402205608785,-0.7698368098966777
1783170499046547000,6.090546875,0.05224924267530441,0.18005115446299313,-0.7268032123994081
1783170499056617200,6.1006171875,-0.02051204215288162,0.15455869354903698,-0.63089646817483
1783170499066686500,6.1106865234375,-0.14486615157425403,0.1583035791657865,-0.5626910200200974
1783170499076756200,6.120756103515625,-0.1414689103513956,0.20846315608546137,-0.5030282862178981
1783170499086825500,6.130825439453125,-0.11745149042606354,0.20080533480867743,-0.4656975765373558
1783170499096895200,6.140895263671875,-0.15066753132939337,0.11578194977864623,-0.5003524911373853
1783170499106964200,6.150964111328125,-0.20697160235345363,0.0534380140684545,-0.5531033997245133
1783170499117034200,6.1610341796875,-0.12028875967860221,-0.04286781247630715,-0.5785502679310739
1783170499127103200,6.171103271484375,0.045370589077472684,-0.14083309666588903,-0.5296827035833149
1783170499137173200,6.18117333984375,0.18268880949020386,-0.16898191730752588,-0.4582237335253507
1783170499147242200,6.1912421875,0.2094423763811588,-0.1778231031499803,-0.40228403883427377
1783170499157312500,6.2013125,-0.016498130336403845,-0.2007721631914377,-0.3963325465513393
1783170499167381200,6.21138134765625,-0.3306184402883053,-0.19119155715852976,-0.42131534091010686
1783170499177451300,6.221451171875,-0.5231260484814644,-0.16971300806105136,-0.5421507746860385
1783170499187520300,6.231520263671875,-0.6492816543668508,-0.1474611365035176,-0.6250281606633216
1783170499197590300,6.24159033203125,-0.7035743855684995,-0.1300647421531379,-0.6830521873477846
1783170499207659300,6.2516591796875,-0.8021276987791061,-0.14482421212866903,-0.7648376864351332
1783170499217729300,6.261729248046875,-0.6955880629897118,-0.11950959199965,-0.7461513984046876
1783170499227798300,6.27179833984375,-0.432716878759861,-0.13869988402947783,-0.6733720664631575
1783170499237868300,6.281868408203125,-0.22072715598344803,-0.1646912343762815,-0.5585798218416049
1783170499247937300,6.291937255859375,-0.0521668250888586,-0.1516587343238294,-0.4747758225386962
1783170499258007300,6.30200732421875,0.11256956360340117,-0.1544509953908622,-0.374453746089898
1783170499268076300,6.312076171875,0.21688275551497935,-0.25390315713733436,-0.37228557173795995
1783170499278146300,6.322146240234375,0.1296042850345373,-0.39825346814393997,-0.5170312387377023
1783170499288215000,6.332215087890625,-0.16564356666505337,-0.5251999321460723,-0.779592918626964
1783170499298285300,6.342285400390625,-0.35924013913869857,-0.6020896950811148,-0.9350308792285621
1783170499308354300,6.352354248046875,-0.4589157343775034,-0.613616028354317,-1.0003487161830067
1783170499318424300,6.36242431640625,-0.5697504370123148,-0.5518908090643584,-0.9456598252706229
1783170499328493300,6.372493408203125,-0.6462550000220537,-0.35669176983013745,-0.8217891154520213
1783170499338563300,6.382563232421875,-0.6627928778469562,-0.13456424552947283,-0.6707860685579479
1783170499348632300,6.39263232421875,-0.7959469643175602,0.028682927518337963,-0.4969243433196097
1783170499358702000,6.4027021484375,-1.0191747049450874,0.18306407254338264,-0.42622247523926193
1783170499368771300,6.412771240234375,-1.164724162608385,0.2574985512807965,-0.4627344158828258
1783170499378841000,6.422841064453125,-1.229982524460554,0.29593992561697957,-0.49590179533883927
1783170499388910300,6.432910400390625,-1.111312305894494,0.283838130543381,-0.561960294592753
1783170499398980400,6.44298046875,-0.7893243313074112,0.16531418858021496,-0.5941049068722873
1783170499409049300,6.45304931640625,-0.3358908277332783,-0.03187748577594757,-0.5705506474792957
1783170499419119400,6.463119384765625,0.042135844939947126,-0.20715689579248428,-0.5890950062884017
1783170499429188400,6.473188232421875,0.2165665291726589,-0.3073443860761821,-0.6420170701913536
1783170499439258400,6.48325830078125,0.3102098585098982,-0.18642536567002535,-0.5825231170848012
1783170499449327000,6.4933271484375,0.38190029923617835,0.04304901426210999,-0.32229780772123484
1783170499459397400,6.5033974609375,0.3305950594127178,0.26129209834486244,-0.02008409906439483
1783170499469466000,6.513466064453125,0.2643155378192663,0.4222575901962817,0.22423984027951954
1783170499479536400,6.523536376953125,0.19213877488076686,0.6024849780090152,0.412177327545546
1783170499489605000,6.533605224609375,0.14608838684558867,0.7050041261106729,0.5643106936438009
1783170499499675400,6.54367529296875,0.14554068983495236,0.7323974522098898,0.6805620510324836
1783170499509744000,6.553744140625,0.21224165171086787,0.6933220177538693,0.8060787014272064
1783170499519814100,6.563814208984375,0.25621055729687214,0.6125732413031161,0.9038771776825189
1783170499529883400,6.57388330078125,0.24773031372129917,0.550789277563244,0.8444496408756822
1783170499539953200,6.583953125,0.3525947097748518,0.4032704195231199,0.870867326875776
1783170499550022400,6.5940224609375,0.20236615438461303,0.2762942910350859,0.8758223919998854
1783170499560091100,6.604091064453125,0.05070493584275245,0.35671515070572496,0.6804973152332008
1783170499570161400,6.614161376953125,-0.21174422358274458,0.3305294468306005,0.6145989019118249
1783170499580231200,6.624231201171875,-0.40671091536581516,0.39769305778220293,0.5762453519895673
1783170499590300400,6.634300537109375,-0.5133189402163029,0.49361514570638537,0.6026284050676971
1783170499600370200,6.6443701171875,-0.5397936901658773,0.6134305887848138,0.6621416473966092
1783170499610439400,6.654439453125,-0.4500900383651256,0.7194222353026271,0.7654151209969073
1783170499620509400,6.664509521484375,-0.25081483573317526,0.8097954569280147,0.8750704045888036
1783170499630578200,6.674578125,-0.023268647384643553,0.7722694438710809,0.8578395029984414
1783170499640647200,6.684647216796875,0.049287470260262485,0.7176119710102677,0.7685504964131862
1783170499650717200,6.69471728515625,0.0899117415934801,0.6506434442393482,0.633810090599209
1783170499660786400,6.704786376953125,0.14846972902417183,0.4982381293319165,0.5136212841637432
1783170499670856200,6.714856201171875,0.26931144641041754,0.4062951741717756,0.40308227653987705
1783170499680925400,6.724925537109375,0.39700726747512816,0.36840120458528397,0.3264245687950402
1783170499690995200,6.7349951171875,0.5334305848747491,0.3997520361386239,0.3673468366941437
1783170499701064400,6.745064453125,0.5631219587832689,0.4285153354167938,0.4275487188743427
1783170499711134200,6.75513427734375,0.5171107337146997,0.4696548627957701,0.4916747522283345
1783170499721203200,6.765203125,0.5873842933803797,0.47750952181890605,0.5309262008383869
1783170499731273200,6.775273193359375,0.733383832898736,0.39602892396226524,0.48786125835478306
1783170499741342200,6.78534228515625,0.8807575833797454,0.31006197447180744,0.45326892412956804
1783170499751412500,6.79541259765625,0.9557844750523566,0.19982801420912144,0.39256870050579307
1783170499761481200,6.805481201171875,1.002289621117711,0.06752966778501868,0.3321242782739922
1783170499771551500,6.815551513671875,0.9847159705042838,-0.09399301955774426,0.20532858438678084
1783170499781620200,6.8256201171875,0.8374977028459311,-0.17913330896571278,0.1133595449373126
1783170499791690200,6.835690185546875,0.6309001945018768,-0.17683803763538597,0.20679270212259143
1783170499801759200,6.84575927734375,0.4141963026851415,-0.16154168430417776,0.30646760324165223
1783170499811829200,6.855829345703125,0.1584007559299469,-0.09394508876278995,0.290172082805261
1783170499821898200,6.865898193359375,0.12917641501128674,-0.025713264057785273,0.36154089036174114
1783170499831968300,6.87596826171875,0.16522504899203777,-0.103014530403167,0.3098995504517108
1783170499842037200,6.886037353515625,0.1581172628134489,-0.22555545292273163,0.2549527757881209
1783170499852107300,6.896107177734375,0.10699088668823241,-0.2755646615862846,0.13639789069741964
1783170499862176300,6.90617626953125,0.14815934790074825,-0.35231574670299887,0.08492123982980847
1783170499872246300,6.916246337890625,0.2965186022877693,-0.4247806789331138,0.10181162088681012
1783170499882315300,6.926315185546875,0.35347266165316105,-0.4406687145471573,0.10639109416417777
1783170499892385300,6.93638525390625,0.26680209393799303,-0.48939650509804483,0.06322214331682771
1783170499902454300,6.946454345703125,0.03671498893499374,-0.5078216579742729,0.06933397726062684
1783170499912524300,6.956524169921875,-0.12371990317106246,-0.4325423989757895,0.14953922141920775
1783170499922593300,6.96659326171875,-0.18504267913997172,-0.39995062745064497,0.25990995980408044
1783170499932663300,6.976663330078125,-0.1922013187229633,-0.37279549402147527,0.3358125018000602
1783170499942732300,6.986732177734375,-0.20059622210264205,-0.3832876619413495,0.30346221088059244
1783170499952802300,6.99680224609375,-0.18324235171973705,-0.504446774713695,0.2104541107069701
1783170499962871300,7.006871337890625,-0.13990823690593243,-0.6125476684704423,0.10406279734708368
1783170499972941000,7.016941162109375,-0.05451660308539867,-0.7451005741775035,-0.006046440557390451
1783170499983010300,7.02701025390625,0.021084873604774474,-0.804368609573692,-0.0630904066959396
1783170499993080300,7.037080322265625,-0.09496902498304843,-0.8140560369819402,-0.04234459231980145
1783170500003149300,7.0471494140625,-0.33047055625021454,-0.7067442477762699,0.007004910326004028
1783170500013219300,7.05721923828125,-0.5706710589885712,-0.5522755705982446,0.0923940599285066
1783170500023288300,7.067288330078125,-0.6810849058628082,-0.4235525984428823,0.16474146672617643
1783170500033358300,7.0773583984375,-0.594703676483035,-0.34022023523971434,0.24272322614900765
1783170500043427300,7.08742724609375,-0.44571489202082154,-0.36765637756735087,0.26258038458973165
1783170500053497000,7.0974970703125,-0.23251111727952956,-0.39585882809236644,0.24647881582286207
1783170500063566000,7.107566162109375,-0.05015665431022644,-0.5072929579250515,0.2058406986273825
1783170500073636400,7.11763623046875,0.10772621522545814,-0.6676923403263092,0.2789453900657594
1783170500083705000,7.127705078125,0.45215456967949863,-0.8307935290321707,0.32725144807323814
1783170500093775400,7.137775390625,0.6623965720057488,-0.9121860102139413,0.28788996321745214
1783170500103844000,7.147843994140625,0.41077509606480594,-0.9406576330691575,0.13955752377212047
1783170500113914400,7.157914306640625,-0.1636287197113037,-0.8959038607157767,0.06551949700638651
1783170500123983000,7.167983154296875,-0.8162450714588165,-0.697100951770693,0.0065511934754438695
1783170500134053000,7.17805322265625,-1.3508371013283729,-0.4485789031498134,0.039972876486089076
1783170500144122000,7.1881220703125,-1.7248831799328326,-0.21131927616894244,0.011758059669844806
1783170500154192100,7.198192138671875,-1.9174112463921307,0.04224178953245282,-0.07649438867559656
1783170500164261000,7.20826123046875,-1.8842542421996593,0.24320436072945592,-0.13050545339165254
1783170500174331100,7.2183310546875,-1.6462731690764427,0.4052867277815938,-0.18130128238825127
1783170500184400100,7.228400146484375,-1.1906494619816541,0.4536885012485087,-0.19600750607289372
1783170500194470100,7.23847021484375,-0.7007189961373805,0.5004759713865816,-0.17815871004620565
1783170500204539400,7.248539306640625,-0.26354396892488,0.6129864982791244,-0.12998289082227274
1783170500214609200,7.258609130859375,0.15459727199375628,0.7534691740721464,-0.07895124377580359
1783170500224678400,7.268678466796875,0.5049421570152044,0.8513315824091434,-0.09385527332117781
1783170500234748200,7.278748046875,0.7186942132890224,0.8750339450359343,-0.14022596108559518
1783170500244817200,7.288817138671875,0.7370306649684906,0.8531633278809487,-0.2325940645889379
1783170500254887200,7.29888720703125,0.678202043902874,0.8445162033058703,-0.33686223004870114
1783170500264956200,7.3089560546875,0.6395604708194732,0.9262817555837333,-0.30331513056010007
1783170500275026200,7.319026123046875,0.5120049350082874,0.9715437697201966,-0.25841815034374593
1783170500285095200,7.32909521484375,0.48122810395061966,1.0300397978305815,-0.18594866980267688
1783170500295165200,7.339165283203125,0.47256256693601606,1.0291229752466082,-0.18449423321066424
1783170500305234200,7.349234130859375,0.511933038815856,0.9639081602752209,-0.2418369083011523
1783170500315304200,7.35930419921875,0.45746202843785283,0.8335236846484243,-0.31337723649963733
1783170500325373200,7.369373291015625,0.21681787358522414,0.7460251416765153,-0.42837388111948965
1783170500335443200,7.379443115234375,-0.021834815189242362,0.7229474868193269,-0.46926498669534916
1783170500345512200,7.38951220703125,-0.14194120403826235,0.7220531683281064,-0.4471854029648006
1783170500355581200,7.399581298828125,-0.21637246790528297,0.7479043795518576,-0.36642380356509235
1783170500365651200,7.409651123046875,-0.2825841849595308,0.7584582145310937,-0.30283869042107836
1783170500375720200,7.41972021484375,-0.3783540049314499,0.7723834256395697,-0.2614777753763832
1783170500385790200,7.429790283203125,-0.6050280866205692,0.7573097751483321,-0.2902082683634944
1783170500395859200,7.439859130859375,-0.7806938656061887,0.7486324015654623,-0.3521566106185317
1783170500405929200,7.44992919921875,-0.8385539339005946,0.7163510111637413,-0.34719160862229764
1783170500415998200,7.459998291015625,-0.8078530906885862,0.6716318717323243,-0.37492830479908734
1783170500426068200,7.470068115234375,-0.6903489932924509,0.6411509548813105,-0.38171814760230477
1783170500436137200,7.48013720703125,-0.54029228733778,0.613029314507544,-0.33307248237691817
1783170500446207200,7.490207275390625,-0.44988311761617655,0.589929301688075,-0.3403097401540726
1783170500456276200,7.500276123046875,-0.34400048443078995,0.6212587981924415,-0.32455990743432195
1783170500466346200,7.51034619140625,-0.22444120807051657,0.6377516678318381,-0.34023101236205544
1783170500476415200,7.520415283203125,-0.05423895518779754,0.5856764665491878,-0.3739074738513678
1783170500486485200,7.5304853515625,0.23671616775393484,0.5538469115681945,-0.3783697139572352
1783170500496554200,7.54055419921875,0.5603869808614254,0.502606845935434,-0.35844957328289745
1783170500506624300,7.550624267578125,0.6957599124252796,0.4304577016562223,-0.33737043529916555
1783170500516693000,7.56069287109375,0.6495657320052385,0.3699412736341357,-0.3534486231904477
1783170500526763300,7.57076318359375,0.5867910036623477,0.3323576851710677,-0.37283224583528934
1783170500536832000,7.58083203125,0.5359668253540992,0.27459406298846006,-0.35857919101193547
1783170500546902300,7.59090234375,0.54706221986413,0.23034809402674436,-0.37322124515287575
1783170500556971000,7.600970947265625,0.5999906769752502,0.19450769596919415,-0.38053237188383937
1783170500567041300,7.611041259765625,0.6213748257875442,0.17094240372553468,-0.4068748737558722
1783170500577110300,7.6211103515625,0.572728576040268,0.1577075129687786,-0.4331823043145239
1783170500587180000,7.631179931640625,0.44788639084100723,0.12990809028670192,-0.44625517290998246
1783170500597249300,7.641249267578125,0.32911154285669325,0.07091814117953181,-0.518938679794222
1783170500607319000,7.651319091796875,0.2685854702234268,0.02420855858325958,-0.5436861675597727
1783170500617388300,7.66138818359375,0.17989537937939165,-0.019471154797822236,-0.5809077908426523
1783170500627458000,7.6714580078125,0.04886252284646034,-0.00045621933490037913,-0.5876794404020532
1783170500637527300,7.68152734375,-0.12272037073969841,0.049286301216483114,-0.5426900691945106
1783170500647597000,7.69159716796875,-0.197435127723217,0.09660524788275361,-0.4902520259488374
1783170500657666300,7.701666259765625,-0.21828443900644778,0.12614318479523062,-0.4542036842290312
1783170500667736300,7.711736328125,-0.16363164232075214,0.13471139891520142,-0.4119170326415449
1783170500677805300,7.721805419921875,-0.05370119504928589,0.09825082313269376,-0.4132615060530603
1783170500687875300,7.731875244140625,0.06401157666146755,-0.016017068821191787,-0.46309360458403825
1783170500697944000,7.741944091796875,0.2873381014883518,-0.1535347573287785,-0.44811917668357487
1783170500708014300,7.752014404296875,0.48393444029986854,-0.2751271469518542,-0.3888699555857107
1783170500718083000,7.7620830078125,0.6406693088442087,-0.29480872962996363,-0.36584165629558263
1783170500728153300,7.7721533203125,0.7024573642373084,-0.27393165355697274,-0.389572222103551
1783170500738222000,7.78222216796875,0.6994751335561276,-0.3249076614260673,-0.3049914297418669
1783170500748292000,7.7922919921875,0.6101964291691779,-0.31413740721717476,-0.2886712863208726
1783170500758361000,7.802361083984375,0.5432306788772344,-0.33563977558165786,-0.3268273043770343
1783170500768431000,7.81243115234375,0.5302104537844657,-0.4280969638742506,-0.3861252599874511
1783170500778500000,7.8225,0.6083510935634374,-0.4975241358436644,-0.4099996181802824
1783170500788570000,7.832570068359375,0.6024877544879913,-0.5245670410700142,-0.4581672906303778
1783170500798639400,7.842639404296875,0.5203144981920719,-0.5369511602163315,-0.5134523208050057
1783170500808709000,7.852709228515625,0.38075580537617204,-0.5922913546442985,-0.5736088294735178
1783170500818778400,7.8627783203125,0.14389759880304337,-0.6441280709959566,-0.6298854645013808
1783170500828848000,7.87284814453125,0.0231359609156847,-0.5970923251852392,-0.6640612903475761
1783170500838917400,7.88291748046875,0.01940671125948429,-0.5863444289386273,-0.6645579147581011
1783170500848987100,7.892987060546875,-0.05206161114871501,-0.5660496827982365,-0.6656089581809937
1783170500859056000,7.90305615234375,-0.2152332347422838,-0.546904545084387,-0.7032409158304334
1783170500869126100,7.913126220703125,-0.39895957058668136,-0.5418865707919002,-0.7155164600357413
1783170500879195100,7.923195068359375,-0.4300216483265161,-0.5393775105804205,-0.6534165622144937
1783170500889265400,7.933265380859375,-0.31276363464593887,-0.5057509891800582,-0.525584182223305
1783170500899334100,7.943334228515625,-0.025640637212991712,-0.47012759487405414,-0.4184023760728538
1783170500909404200,7.953404052734375,0.016346154645085334,-0.43805444039553404,-0.40055213700775055
1783170500919473200,7.96347314453125,-0.27836978213489055,-0.3596417056769132,-0.4186583601279184
1783170500929542400,7.97354248046875,-0.6745248166948556,-0.29437428373545405,-0.431877505326271
1783170500939612200,7.983612060546875,-0.9533248069405555,-0.2722188582897186,-0.39541437226049597
1783170500949681400,7.993681396484375,-1.0949380941987037,-0.17200754873901605,-0.24836583514586089
1783170500959751200,8.003751220703125,-1.1198580159217117,0.008221446508914232,-0.09178489678790792
1783170500969820200,8.013820068359376,-1.0263906276732682,0.20271935173645614,0.06784892633464187
1783170500979890200,8.02389013671875,-1.0388380213141442,0.333770766839385,0.11390315029472112
1783170500989959200,8.033959228515625,-1.1261977403372525,0.388274656573683,0.014967285773623733
1783170501000029200,8.044029296875,-1.174480417469144,0.35275749912112947,-0.09958187080705538
1783170501010098200,8.05409814453125,-1.0920073014438152,0.28121991086900233,-0.24865166634991764
1783170501020168200,8.064168212890625,-1.0073872365176677,0.20486659289821982,-0.3747722009219229
1783170501030237200,8.0742373046875,-0.8465046006441116,0.22482377764731645,-0.401262075375393
1783170501040307200,8.08430712890625,-0.6196867265701294,0.2653270529493689,-0.35085272494573144
1783170501050376000,8.0943759765625,-0.51511459146142,0.28199893241748214,-0.2863143661974929
1783170501060445700,8.10444580078125,-0.617143471828103,0.34629926289245483,-0.2923202007498592
1783170501070515000,8.114514892578125,-0.6457073030114173,0.39209742973223327,-0.19809234952293336
1783170501080585000,8.1245849609375,-0.5881798276722431,0.42087095814347264,-0.08007611961988732
1783170501090654000,8.134654052734374,-0.47233577244281766,0.4224403994172811,0.024226258636731654
1783170501100724000,8.144723876953124,-0.35309330694675445,0.4171272415705025,0.09036032561119646
1783170501110793000,8.15479296875,-0.29425124187767504,0.4150304154217243,0.15336773019880057
1783170501120863000,8.164863037109376,-0.18748247350752353,0.48648500156551594,0.2138850350037217
1783170501130932000,8.174931884765625,0.050149640047550195,0.5737656640030443,0.20207824082132428
1783170501141002000,8.185001953125,0.3209001793503761,0.6026433834411203,0.17441369656529276
1783170501151070700,8.19507080078125,0.46960371713042254,0.5578349582910538,0.0508375492464751
1783170501161141000,8.20514111328125,0.5245598806768655,0.5114589915633201,-0.05996821955479681
1783170501171209700,8.215209716796876,0.6580325315773486,0.45182709129080173,-0.06592194032743573
1783170501181280000,8.225280029296876,0.8497235626906156,0.44975613023564215,0.0336302111947909
1783170501191348700,8.2353486328125,0.9564829787105321,0.5223195544041693,0.20254048803821204
1783170501201418800,8.245418701171875,1.0045242483019827,0.6098331488147377,0.41270858487803486
1783170501211488000,8.255488037109375,0.9838374341040849,0.653714376117289,0.5712233591090887
1783170501221557800,8.265557861328125,0.8668313493579626,0.5868555933311581,0.5212331474069506
1783170501231627000,8.275626953125,0.7129793427735567,0.4267987407572567,0.35189496400766074
1783170501241696800,8.28569677734375,0.5304162054896354,0.21555662147775292,0.10907549267625435
1783170501251766000,8.29576611328125,0.33778058700263497,0.07558876333907247,-0.07847595441425219
1783170501261835800,8.305835693359375,0.2517109077900648,-0.003835632640123367,-0.05051122163524851
1783170501271905000,8.315905029296875,0.1269511401772499,0.005605711052566766,0.05197793318694457
1783170501281974800,8.325974853515625,-0.03404138581156731,0.06826806506216526,0.1475195612930227
1783170501292044000,8.3360439453125,-0.01487666661441326,0.08593304722085594,0.31626320373211053
1783170501302114000,8.346114013671874,0.12819792536795138,0.022228929073363542,0.4690766245163977
1783170501312182800,8.356182861328126,0.2681120074927807,-0.03243161252737045,0.4801481997594237
1783170501322253000,8.366253173828126,0.3951479033440351,-0.06340645037516951,0.3536217878002673
1783170501332321800,8.37632177734375,0.4045452617645263,-0.06780307789891958,0.11504246565611101
1783170501342392000,8.38639208984375,0.26295418633818624,-0.07527692091092467,-0.17200002301968634
1783170501352460800,8.396460693359375,0.06087269411385059,-0.010535276409238577,-0.4273382544614374
1783170501362531000,8.406531005859375,-0.14578151285350321,0.07101677924841641,-0.6104357543503866
1783170501372599800,8.416599853515624,-0.3715694593578577,0.0891495250493288,-0.6315398806449025
1783170501382669800,8.426669921875,-0.5631617062717675,0.1603822851359844,-0.5682291457291693
1783170501392738800,8.43673876953125,-0.606820815256238,0.37766602266728877,-0.36574162998721
1783170501402808800,8.446808837890625,-0.48196284796595573,0.4060235176235437,-0.22248105044607072
1783170501412877800,8.4568779296875,-0.29281039541959764,0.30663433811068536,-0.13202433352200313
1783170501422946800,8.46694677734375,-0.33389585452377796,-0.04088087644279003,0.10323188121458515
1783170501433017000,8.47701708984375,-0.39400516304969785,-0.44206411442831156,0.1745639186909422
1783170501443085800,8.4870859375,-0.34098435148000716,-0.7284026834852994,0.07467031505359337
1783170501453156000,8.497156005859376,-0.3139543057352304,-1.046702032687515,0.04618687389642
1783170501463224800,8.507224853515625,-0.23868249939084052,-1.3699394228138029,-0.14088932036515325
1783170501473294800,8.517294921875,0.031153263154625892,-1.5847621770590543,-0.23973164311759174
1783170501483363800,8.52736376953125,0.41793490469157696,-1.709279952609539,-0.12510638909339905
1783170501493433900,8.537433837890624,0.8113836029022932,-1.650312945986539,0.2860778722941875
1783170501503502800,8.5475029296875,0.8902052106827497,-1.3449655789464712,0.8270826918154954
1783170501513572900,8.55757275390625,0.7089730297416448,-0.9109586603760719,1.2521753593072293
1783170501523641900,8.567641845703125,0.5366799420595169,-0.6088558282151818,1.394414377248287
1783170501533712000,8.5777119140625,0.4263368223339319,-0.4502054814383387,1.092134434954822
1783170501543780900,8.58778076171875,0.7428092483699321,0.5302561926223337,-0.8411174277130514
1783170501553851000,8.597850830078125,-0.30589257983267304,1.4747525270715356,-3.130472154407203
1783170501563920000,8.607919921875,-1.0381149677366017,-2.541134096610546,-1.9811200407147407
1783170501573990000,8.617989990234374,0.39636838504970073,-3.133159786055982,0.19795759896105153
1783170501584059000,8.628058837890626,1.635550699532032,-2.354088845476508,1.2677454150132834
1783170501594129000,8.63812890625,1.8963690428853033,-1.4960641951695084,1.71612236585021
1783170501604198000,8.648197998046875,1.8734855954259633,-0.24409444143697617,2.189271646632999
1783170501614268000,8.658267822265625,1.2181816120296716,0.39029534874632954,2.523692255683243
1783170501624337000,8.6683369140625,0.23688977075517176,0.6628098289817571,2.4720254890710116
1783170501634407000,8.678406982421874,-0.6223322726428508,0.5827196625702082,1.8674903005339205
1783170501644476000,8.688475830078126,-0.7327484576046467,0.16270502899512648,1.3738031125046313
1783170501654545700,8.698545654296876,-0.27302432945370675,-0.30772534821778535,1.2395362424865364
1783170501664615000,8.708614990234375,-0.0009247136294841766,-0.49883083452805876,1.151734259588644
1783170501674685000,8.718684814453125,-0.03896598273217678,-0.4841282093062997,1.114322301365435
1783170501684754000,8.72875390625,-0.015789105284214018,-0.48140097629949447,1.2184290109194815
1783170501694824000,8.738823974609375,0.13124854511022566,-0.5341897326789796,1.2961030561000109
1783170501704893000,8.748892822265624,0.05157645798027515,-0.6211227507226169,1.2625601213298738
1783170501714963000,8.758962890625,-0.10064414801001548,-0.7204422260001301,1.2458496634170413
1783170501725032000,8.769031982421875,-0.19756664514839647,-0.7659788192942738,1.3183264322154222
1783170501735102000,8.77910205078125,-0.42257074779868126,-0.7151115324966609,1.398969994726032
1783170501745171000,8.7891708984375,-0.8057698546737432,-0.639536505421996,1.4576197520934044
1783170501755241000,8.799240966796875,-1.329909464111924,-0.5589917271107435,1.4491379010826348
1783170501765309700,8.809309814453124,-1.966471337637305,-0.47330651717111466,1.3382906312271952
1783170501775380000,8.8193798828125,-2.579426125603914,-0.30695787097662686,1.2391668246522545
1783170501785448700,8.82944873046875,-2.8762445876210925,0.024264672684669492,1.2468962498605252
1783170501795519000,8.83951904296875,-2.789403924036026,0.35660146119818087,1.300429394866526
1783170501805588000,8.849587890625,-2.546007255604863,0.6245023101583123,1.3819535396039486
1783170501815657700,8.85965771484375,-2.140996714416146,0.8510273387655616,1.3713266393885015
1783170501825727000,8.86972705078125,-1.7137801866382358,0.9501802253045141,1.3301406425192952
1783170501835796700,8.879796630859374,-1.3824708414763212,0.9115292998708784,1.2417322912260889
1783170501845866000,8.889865966796876,-1.0989145966142415,0.833656663378328,1.071344306512922
1783170501855935700,8.899935791015626,-0.7940805859237909,0.7494483941234648,0.9338364087469875
1783170501866005000,8.9100048828125,-0.49131636724472044,0.7343655374124646,0.8024365455325693
1783170501876073700,8.92007373046875,-0.2812175727814436,0.8326467556834221,0.678906977301836
1783170501886144000,8.93014404296875,-0.09500351177453994,0.9892894158996641,0.6147601568881422
1783170501896212700,8.940212646484374,0.07982640090882778,1.1217034976579248,0.5618442669976502
1783170501906283000,8.950282958984374,0.2417459786146879,1.169357521497458,0.5001501734983176
1783170501916351700,8.960351806640626,0.3812970726460218,1.1844770569570362,0.4425146346747875
1783170501926421800,8.970421875,0.5046697698146104,1.1686674934066832,0.3473344511590898
1783170501936491000,8.980490966796875,0.6177706638157368,1.137410185355693,0.27472503242436797
1783170501946560800,8.990560791015625,0.6906207959711551,1.088364707157761,0.23096969652380792
1783170501956630000,9.000630126953125,0.7412719558000564,1.0810568683624266,0.24926355117056517
1783170501966699800,9.01069970703125,0.73037354516685,1.1199486168146133,0.27786621652692556
1783170501976769000,9.02076904296875,0.6191542271286249,1.1135232599422336,0.2808263084415346
1783170501986838800,9.0308388671875,0.34915362941026684,1.1428514996267853,0.2822675567584112
1783170501996908000,9.040907958984375,0.08632686884403228,1.1815326740682124,0.25783220368195325
1783170502006977800,9.050977783203125,0.009576806640625,1.19804249484241,0.24344397817160932
1783170502017047000,9.061047119140625,0.04406768978536129,1.2121565065212547,0.3237706202201545
1783170502027117000,9.071116943359375,0.0029728783309459685,1.2361030531674624,0.37240623897556213
1783170502037185800,9.081185791015624,-0.07590776616036891,1.2511768497891724,0.4643645013026893
1783170502047256000,9.091256103515626,-0.14262217203974722,1.2457481027387083,0.5998074658954515
1783170502057324800,9.10132470703125,-0.26088030267357826,1.3053284189544618,0.7330540164224802
1783170502067395000,9.11139501953125,-0.34087153875529763,1.380825558487326,0.8664562324352562
1783170502077463800,9.1214638671875,-0.26161037051379676,1.4209768054813146,0.9688126642558723
1783170502087533800,9.131533935546875,-0.09380641094446182,1.3723133123382925,0.9698737176161258
1783170502097602800,9.141602783203124,0.07944003193974494,1.1967597615554928,0.7566458313468843
1783170502107672800,9.1516728515625,0.41593759339451786,0.9200150964044034,0.5393755743516608
1783170502117741800,9.161741943359376,0.5486234778314829,0.6483510955184698,0.36845158306565134
1783170502127811800,9.171811767578125,0.4505529797017574,0.5894312890380621,0.36414720040261744
1783170502137880800,9.181880859375,0.14774083022773266,0.6707697019450366,0.5359742414755746
1783170502147950800,9.191950927734375,-0.0864917040169239,0.7613238330952823,0.7163419510744512
1783170502158019800,9.202019775390625,-0.2251239296376705,0.8179884079948068,0.8233515424631536
1783170502168089900,9.21208984375,-0.30841596083045003,0.7328495798915624,0.7128912991639226
1783170502178159000,9.2221591796875,-0.36537878802418705,0.662712067695707,0.5751910936962813
1783170502188228900,9.232228759765626,-0.4489069660604,0.6514896858051419,0.32212606788352127
1783170502198297900,9.2422978515625,-0.31792145580053327,0.6602341332748531,0.28332904851008206
1783170502208367900,9.252367919921875,-0.283400762039423,0.7033277173310518,0.4530340559277683
1783170502218436900,9.262436767578125,-0.35741117014586926,0.7976669199779629,0.5863191483668982
1783170502228507000,9.2725068359375,-0.37060382919609547,0.8302849949881433,0.5652151316702365
1783170502238575900,9.282575927734374,-0.1696019489020109,0.7786369330763816,0.6302218568488955
1783170502248646000,9.29264599609375,0.07326514269709587,0.7774149900659918,0.8534859839640557
1783170502258715000,9.30271484375,0.10614332994818687,0.8860144809946418,0.9082822807736695
1783170502268783900,9.312783935546875,0.06259528012275696,1.0140237519226967,0.9778313255570829
1783170502278852900,9.322852783203125,-0.07295066992044448,1.1590374952740967,0.9715589672893286
1783170502288923000,9.3329228515625,-0.033252865782380105,1.3062769518509507,0.9480527848217636
1783170502298991900,9.342991943359374,-0.013304887253046035,1.2157229668311773,0.8039205735452473
1783170502309062000,9.353061767578126,-0.05027706581950187,1.1239522994980216,0.7266094433929771
1783170502319131000,9.363130859375,-0.08329904545545577,1.1316476763062178,0.5608875507947058
1783170502329201000,9.373200927734375,-0.13829203388094902,1.052733129545301,0.4627117291269824
1783170502339270000,9.383269775390625,-0.22341303406655788,0.9511341650284826,0.31699148147404194
1783170502349340000,9.39333984375,-0.4318576315820217,0.911641820334643,0.2526063953250646
1783170502359409000,9.403408935546874,-0.5980272679477929,0.8916631544061004,0.1378086708107963
1783170502369479000,9.41347900390625,-0.4563344857126474,0.9515237488679588,0.1533373533268459
1783170502379548000,9.4235478515625,0.203382637950778,1.0275554336689412,0.268049043525476
1783170502389618000,9.433617919921875,0.9697627315223216,1.0029835947312413,0.5232405782392249
1783170502399687000,9.44368701171875,1.2626941229730844,1.0772587912537157,0.4837153541890904
1783170502409757000,9.4537568359375,0.6752461167067288,0.7188987959504127,0.5456493208589032
1783170502419826000,9.463825927734375,-0.372898662135005,0.864143133187294,0.2364558728499338
1783170502429896000,9.47389599609375,-0.7722358338624239,1.1117761240139603,-0.15472095317235215
1783170502439965000,9.48396484375,-0.8778647845476866,0.874885476475954,0.2406784407147206
1783170502450035000,9.494034912109376,-0.81963296033144,0.9786483410283923,0.3887823138348758
