time,seconds_elapsed,z,y,x
1783170493024983300,0.0689833984375,0.2531432509422302,0.27206557989120483,0.1170041635632515
1783170493035053600,0.079053466796875,0.25165048241615295,0.29080015420913696,0.10317203402519226
1783170493045123300,0.089123291015625,0.258299320936203,0.2993305027484894,0.11465105414390564
1783170493055193000,0.099193115234375,0.2691834270954132,0.30004939436912537,0.14394424855709076
1783170493065262300,0.109262451171875,0.2908990979194641,0.300481379032135,0.1789056956768036
1783170493075332000,0.11933203125,0.31213197112083435,0.2996336817741394,0.2118106484413147
1783170493085401300,0.1294013671875,0.3326508104801178,0.2882164418697357,0.2256460338830948
1783170493095471400,0.139471435546875,0.3483959138393402,0.2622937858104706,0.24048906564712524
1783170493105540400,0.149540283203125,0.3693121075630188,0.21109053492546082,0.25960496068000793
1783170493115610400,0.1596103515625,0.3724184036254883,0.1469738483428955,0.2521189749240875
1783170493125679400,0.169679443359375,0.3576090931892395,0.08121641725301743,0.21651597321033478
1783170493135749400,0.179749267578125,0.32915017008781433,0.027521751821041107,0.16810867190361023
1783170493145818000,0.189818115234375,0.2966662645339966,-0.007670587860047817,0.11282704025506973
1783170493155888400,0.199888427734375,0.25901615619659424,-0.026100609451532364,0.06177690997719765
1783170493165957000,0.20995703125,0.22031615674495697,-0.04682160168886185,0.025838084518909454
1783170493176027400,0.22002734375,0.20059266686439514,-0.04281311482191086,-0.011483665555715561
1783170493186096000,0.23009619140625,0.1903698444366455,-0.03963356465101242,-0.03927641734480858
1783170493196166400,0.24016650390625,0.17914365231990814,-0.05545155704021454,-0.06026119366288185
1783170493206235100,0.250235107421875,0.1665215939283371,-0.07207314670085907,-0.06457045674324036
1783170493216305200,0.26030517578125,0.14609797298908234,-0.08029739558696747,-0.053547266870737076
1783170493226374400,0.27037451171875,0.11838965117931366,-0.08207132667303085,-0.04166583716869354
1783170493236444200,0.280444091796875,0.08336594700813293,-0.07625564932823181,-0.03935949504375458
1783170493246513400,0.290513427734375,0.0603538379073143,-0.07573312520980835,-0.047219812870025635
1783170493256583200,0.300583251953125,0.03961613029241562,-0.08508814126253128,-0.07904694229364395
1783170493266652400,0.31065234375,0.022699996829032898,-0.06739010661840439,-0.13476772606372833
1783170493276722200,0.32072216796875,0.041129909455776215,-0.008031441830098629,-0.17713797092437744
1783170493286791400,0.33079150390625,0.030713221058249474,0.02352568507194519,-0.19828319549560547
1783170493296861200,0.340861083984375,0.038360122591257095,0.05993202328681946,-0.19327369332313538
1783170493306930200,0.35093017578125,0.06198502331972122,0.0781581699848175,-0.17427150905132294
1783170493317000400,0.36100048828125,0.07973305881023407,0.08344481885433197,-0.14486561715602875
1783170493327069200,0.371069091796875,0.10022475570440292,0.08546163141727448,-0.10950416326522827
1783170493337139500,0.381139404296875,0.12313087284564972,0.0716303288936615,-0.07174921035766602
1783170493347208200,0.391208251953125,0.13091741502285004,0.040632735937833786,-0.03585246577858925
1783170493357278500,0.401278564453125,0.1325058788061142,0.014574114233255386,-0.016688069328665733
1783170493367347200,0.41134716796875,0.13473999500274658,-0.006798551417887211,-0.0067685930989682674
1783170493377417200,0.421417236328125,0.14030620455741882,-0.029671628028154373,0.0005152183584868908
1783170493387486200,0.431486328125,0.1532723307609558,-0.0501239076256752,0.009255979210138321
1783170493397556200,0.44155615234375,0.16604045033454895,-0.07442328333854675,0.011368333362042904
1783170493407626500,0.45162646484375,0.17264029383659363,-0.08944777399301529,0.013411510735750198
1783170493417695200,0.4616953125,0.17585086822509766,-0.09226445108652115,0.031333811581134796
1783170493427765200,0.47176513671875,0.16754287481307983,-0.09208309650421143,0.060388900339603424
1783170493437834200,0.481834228515625,0.16059522330760956,-0.09763310849666595,0.08027955144643784
1783170493447904300,0.491904296875,0.15674908459186554,-0.11063411831855774,0.08653931319713593
1783170493457973200,0.50197314453125,0.14871050417423248,-0.11784370243549347,0.09700430929660797
1783170493468043300,0.512043212890625,0.1315898448228836,-0.11394777148962021,0.12063533812761307
1783170493478112300,0.5221123046875,0.12114442884922028,-0.10402323305606842,0.14899732172489166
1783170493488182300,0.532182373046875,0.10893889516592026,-0.07191376388072968,0.1852133870124817
1783170493498251300,0.542251220703125,0.09711815416812897,-0.0406077541410923,0.23416459560394287
1783170493508321300,0.5523212890625,0.07682246714830399,-0.04357638210058212,0.2956966757774353
1783170493518390300,0.562390380859375,0.06195256486535072,-0.07013518363237381,0.36641445755958557
1783170493528460300,0.572460205078125,0.043315231800079346,-0.11107702553272247,0.41030868887901306
1783170493538529300,0.582529296875,0.039048127830028534,-0.11416655033826828,0.4245181977748871
1783170493548599300,0.592599365234375,0.05110558867454529,-0.10567506402730942,0.40570855140686035
1783170493558668300,0.602668212890625,0.07107722759246826,-0.08104361593723297,0.3543007969856262
1783170493568738300,0.61273828125,0.08390141278505325,-0.0572112575173378,0.2781815528869629
1783170493578807300,0.622807373046875,0.0931515246629715,-0.020667877048254013,0.18777622282505035
1783170493588877300,0.632877197265625,0.09911434352397919,0.0075898608192801476,0.08762486279010773
1783170493598946300,0.6429462890625,0.09362658858299255,-0.028144458308815956,-0.012685651890933514
1783170493609016000,0.65301611328125,0.06994388997554779,-0.08365511894226074,-0.0730922743678093
1783170493619085300,0.663085205078125,0.0317884124815464,-0.13518407940864563,-0.0899522602558136
1783170493629155000,0.673155029296875,0.00755098182708025,-0.15458281338214874,-0.0920388475060463
1783170493639224300,0.683224365234375,0.0060396380722522736,-0.14749667048454285,-0.09075041115283966
1783170493649294300,0.69329443359375,0.03544573113322258,-0.12116813659667969,-0.0972096398472786
1783170493659363300,0.70336328125,0.08215922862291336,-0.095128133893013,-0.09301165491342545
1783170493669433300,0.713433349609375,0.12845668196678162,-0.060199182480573654,-0.07066293805837631
1783170493679502300,0.72350244140625,0.16340921819210052,-0.004328221082687378,-0.02519892528653145
1783170493689572400,0.733572265625,0.1883944571018219,0.03875879570841789,0.013571904972195625
1783170493699641300,0.743641357421875,0.19637571275234222,0.05490542948246002,0.019390085712075233
1783170493709711400,0.75371142578125,0.19179667532444,0.04218244180083275,-0.008684691041707993
1783170493719780000,0.763780029296875,0.18422459065914154,0.01645551435649395,-0.05559789761900902
1783170493729850400,0.773850341796875,0.1688120812177658,-0.0044199395924806595,-0.0895923525094986
1783170493739919000,0.783919189453125,0.15375393629074097,-0.023328524082899094,-0.11227838695049286
1783170493749989400,0.7939892578125,0.15363356471061707,-0.0422753170132637,-0.1172955185174942
1783170493760058000,0.80405810546875,0.15780456364154816,-0.046876996755599976,-0.1289304494857788
1783170493770128100,0.814128173828125,0.15656034648418427,-0.05103551968932152,-0.14743542671203613
1783170493780197400,0.824197265625,0.13221436738967896,-0.07671025395393372,-0.1742009073495865
1783170493790267100,0.83426708984375,0.08338291943073273,-0.11095983535051346,-0.19512802362442017
1783170493800336400,0.84433642578125,0.028559595346450806,-0.12202300131320953,-0.18280364573001862
1783170493810406100,0.85440625,-0.028089571744203568,-0.11173601448535919,-0.1411062628030777
1783170493820476400,0.864476318359375,-0.07453792542219162,-0.08371929824352264,-0.07173912227153778
1783170493830545200,0.874545166015625,-0.09517449140548706,-0.044208914041519165,-0.015446818433701992
1783170493840615200,0.884615234375,-0.09673041105270386,-0.006782945245504379,0.01685917377471924
1783170493850684200,0.89468408203125,-0.09522812068462372,0.006313148885965347,0.0225351694971323
1783170493860754200,0.904754150390625,-0.11193512380123138,-0.009256238117814064,0.008248845115303993
1783170493870823400,0.914823486328125,-0.1548519730567932,-0.0425068698823452,-0.024874752387404442
1783170493880893200,0.92489306640625,-0.21194449067115784,-0.07197034358978271,-0.07728545367717743
1783170493890962400,0.93496240234375,-0.2757367789745331,-0.07975369691848755,-0.11815645545721054
1783170493901032200,0.9450322265625,-0.3305344581604004,-0.07815087586641312,-0.14553822576999664
1783170493911101400,0.955101318359375,-0.37321585416793823,-0.08869299292564392,-0.13357503712177277
1783170493921171200,0.965171142578125,-0.39440199732780457,-0.12134496867656708,-0.07691144198179245
1783170493931240400,0.975240478515625,-0.40385890007019043,-0.1858733594417572,-0.01198384165763855
1783170493941310200,0.985310302734375,-0.40597617626190186,-0.252319872379303,0.03922177851200104
1783170493951379200,0.995379150390625,-0.4218139946460724,-0.2739647328853607,0.06082666665315628
1783170493961449500,1.005449462890625,-0.43050822615623474,-0.2358207106590271,0.045703280717134476
1783170493971518200,1.015518310546875,-0.4332752227783203,-0.15484276413917542,0.01577174849808216
1783170493981588500,1.02558837890625,-0.43978431820869446,-0.059873200953006744,-0.03412945568561554
1783170493991657200,1.0356572265625,-0.4405116140842438,0.03426235169172287,-0.08277209848165512
1783170494001727200,1.045727294921875,-0.4358746409416199,0.13386403024196625,-0.12535692751407623
1783170494011796200,1.055796142578125,-0.42738956212997437,0.20422901213169098,-0.16022782027721405
1783170494021866200,1.0658662109375,-0.411166787147522,0.2504517436027527,-0.19517837464809418
1783170494031935200,1.075935302734375,-0.3957233726978302,0.2625750005245209,-0.2330693006515503
1783170494042005200,1.086005126953125,-0.3837042450904846,0.24784398078918457,-0.26090893149375916
1783170494052074800,1.09607470703125,-0.3878239095211029,0.2149917632341385,-0.2733091413974762
1783170494062144800,1.106144775390625,-0.3957260847091675,0.1639271080493927,-0.2615683674812317
1783170494072214000,1.116214111328125,-0.3987325429916382,0.10903563350439072,-0.24939052760601044
1783170494082283800,1.12628369140625,-0.39141854643821716,0.05813291296362877,-0.24441786110401154
1783170494092352800,1.136352783203125,-0.3711510896682739,0.007680925540626049,-0.25464490056037903
1783170494102422800,1.1464228515625,-0.34508514404296875,-0.03171643614768982,-0.23735512793064117
1783170494112491800,1.15649169921875,-0.2972899377346039,-0.05603242665529251,-0.20824305713176727
1783170494122561800,1.166561767578125,-0.24186335504055023,-0.07914704829454422,-0.16940215229988098
1783170494132630800,1.176630859375,-0.18339578807353973,-0.10319645702838898,-0.13501940667629242
1783170494142700800,1.18670068359375,-0.12790590524673462,-0.10788869857788086,-0.10660538822412491
1783170494152769800,1.196769775390625,-0.08576776832342148,-0.0797761008143425,-0.0809335857629776
1783170494162839800,1.20683984375,-0.0483788326382637,-0.02842196449637413,-0.0765484943985939
1783170494172908800,1.21690869140625,-0.016143931075930595,0.023724593222141266,-0.07983004301786423
1783170494182978800,1.226978759765625,-0.0016232524067163467,0.06912843137979507,-0.06866415590047836
1783170494193047800,1.2370478515625,0.0031946722883731127,0.12224331498146057,-0.050517112016677856
1783170494203117800,1.247117919921875,0.012064546346664429,0.16143479943275452,-0.02545703947544098
1783170494213186800,1.257186767578125,0.025466904044151306,0.20378652215003967,0.0034760748967528343
1783170494223256800,1.2672568359375,0.05752639099955559,0.23941415548324585,0.04207579046487808
1783170494233325800,1.277325927734375,0.10223954170942307,0.24678897857666016,0.06991753727197647
1783170494243395800,1.287395751953125,0.14961394667625427,0.20539186894893646,0.08036945015192032
1783170494253464600,1.297464599609375,0.19438302516937256,0.13911670446395874,0.10372031480073929
1783170494263534800,1.307534912109375,0.2302463948726654,0.07416607439517975,0.1351926326751709
1783170494273603600,1.317603515625,0.2588364779949188,0.003708958625793457,0.1718718260526657
1783170494283673900,1.327673828125,0.2737843990325928,-0.03844623267650604,0.21266670525074005
1783170494293743900,1.337743896484375,0.2888573706150055,-0.05797572433948517,0.24484914541244507
1783170494303812900,1.347812744140625,0.30090630054473877,-0.06500233709812164,0.243608295917511
1783170494313883000,1.3578828125,0.3055010437965393,-0.05698249489068985,0.20885299146175385
1783170494323951600,1.36795166015625,0.3054050803184509,-0.046390291303396225,0.1698373556137085
1783170494334022000,1.37802197265625,0.3069486618041992,-0.05094589665532112,0.13598059117794037
1783170494344090600,1.388090576171875,0.3146026134490967,-0.04951246827840805,0.14532801508903503
1783170494354161000,1.398160888671875,0.34658104181289673,-0.018620595335960388,0.17288561165332794
1783170494364229600,1.408229736328125,0.39811789989471436,-0.036893218755722046,0.18105362355709076
1783170494374299600,1.418299560546875,0.46523863077163696,-0.09336208552122116,0.16198378801345825
1783170494384368600,1.42836865234375,0.5306881666183472,-0.20322000980377197,0.13290748000144958
1783170494394438700,1.438438720703125,0.5693948268890381,-0.3543003499507904,0.11635379493236542
1783170494404508000,1.4485078125,0.5788047909736633,-0.497668981552124,0.13664251565933228
1783170494414577700,1.45857763671875,0.569645881652832,-0.5902113914489746,0.164124995470047
1783170494424647000,1.46864697265625,0.5499005317687988,-0.6076624393463135,0.17286205291748047
1783170494434716700,1.478716552734375,0.5186797380447388,-0.5751039385795593,0.13625957071781158
1783170494444786000,1.488785888671875,0.4811052978038788,-0.502122163772583,0.0757434219121933
1783170494454855700,1.498855712890625,0.4298567473888397,-0.4047529697418213,0.04496367648243904
1783170494464925000,1.508925048828125,0.37339895963668823,-0.32766273617744446,0.040591999888420105
1783170494474994700,1.51899462890625,0.32717472314834595,-0.25446414947509766,0.04146924242377281
1783170494485063700,1.529063720703125,0.3069359362125397,-0.18848152458667755,0.04395643621683121
1783170494495134000,1.539134033203125,0.3152199685573578,-0.1474113166332245,0.040872760117053986
1783170494505202700,1.54920263671875,0.33569636940956116,-0.11365042626857758,0.03981338441371918
1783170494515273000,1.55927294921875,0.36253491044044495,-0.09964299947023392,0.058331940323114395
1783170494525341700,1.569341796875,0.39140987396240234,-0.09366687387228012,0.09820576012134552
1783170494535411700,1.57941162109375,0.4162726104259491,-0.08448588848114014,0.14481428265571594
1783170494545480700,1.589480712890625,0.4421241581439972,-0.05685705691576004,0.19550016522407532
1783170494555550700,1.59955078125,0.45365962386131287,0.053646814078092575,0.2318485826253891
1783170494565619700,1.60961962890625,0.45325371623039246,0.2388855218887329,0.22928501665592194
1783170494575689700,1.619689697265625,0.4459468126296997,0.44469010829925537,0.16367457807064056
1783170494585758700,1.6297587890625,0.43489375710487366,0.6113605499267578,0.060864973813295364
1783170494595828700,1.639828857421875,0.4339877665042877,0.7053932547569275,-0.029432697221636772
1783170494605897700,1.649897705078125,0.4262746572494507,0.7179615497589111,-0.09103207290172577
1783170494615967700,1.6599677734375,0.43380260467529297,0.6533207893371582,-0.10908297449350357
1783170494626037000,1.670037109375,0.4456328749656677,0.5208991765975952,-0.09173853695392609
1783170494636106800,1.680106689453125,0.46034497022628784,0.3421212136745453,-0.04427994042634964
1783170494646175700,1.69017578125,0.46840405464172363,0.15548914670944214,0.007802554871886969
1783170494656245800,1.700245849609375,0.47734376788139343,-0.001488223671913147,0.05680791661143303
1783170494666314800,1.710314697265625,0.47401562333106995,-0.109754778444767,0.10056750476360321
1783170494676384800,1.720384765625,0.45827820897102356,-0.15820832550525665,0.12651307880878448
1783170494686453800,1.730453857421875,0.42317432165145874,-0.1475885659456253,0.12288312613964081
1783170494696523800,1.740523681640625,0.3783631920814514,-0.08596621453762054,0.08090637624263763
1783170494706592800,1.7505927734375,0.343309611082077,-0.001500180922448635,0.016850929707288742
1783170494716662800,1.760662841796875,0.30776041746139526,0.06120368093252182,-0.05074143037199974
1783170494726731800,1.770731689453125,0.274648517370224,0.09587466716766357,-0.1067151203751564
1783170494736801800,1.7808017578125,0.2569688558578491,0.1091257631778717,-0.11119242757558823
1783170494746870800,1.790870849609375,0.2560155391693115,0.1359528750181198,-0.0659165307879448
1783170494756940800,1.80094091796875,0.2839409112930298,0.17488935589790344,0.015956498682498932
1783170494767009800,1.811009765625,0.3186492323875427,0.23103943467140198,0.11389415711164474
1783170494777079800,1.821079833984375,0.360128790140152,0.27713289856910706,0.17888113856315613
1783170494787148800,1.831148681640625,0.3892015516757965,0.31197088956832886,0.19674773514270782
1783170494797218800,1.84121875,0.40023529529571533,0.3306862413883209,0.17564643919467926
1783170494807287800,1.851287841796875,0.3992222249507904,0.3267481327056885,0.14972788095474243
1783170494817357800,1.86135791015625,0.3701804578304291,0.3185892701148987,0.13235528767108917
1783170494827426600,1.871426513671875,0.3418252170085907,0.3074524402618408,0.11047355830669403
1783170494837496800,1.881496826171875,0.32598817348480225,0.27365055680274963,0.10023476928472519
1783170494847565800,1.89156591796875,0.3232017159461975,0.236172154545784,0.12030301988124847
1783170494857635800,1.9016357421875,0.3271293640136719,0.1888645589351654,0.17456625401973724
1783170494867704800,1.911704833984375,0.333359032869339,0.1365259885787964,0.2514200210571289
1783170494877774600,1.921774658203125,0.33546769618988037,0.09300460666418076,0.3067948818206787
1783170494887843800,1.93184375,0.3248180150985718,0.057319846004247665,0.31820452213287354
1783170494897913600,1.94191357421875,0.30096861720085144,0.03172660246491432,0.28010132908821106
1783170494907982800,1.95198291015625,0.26814430952072144,0.038042813539505005,0.20166966319084167
1783170494918052600,1.962052490234375,0.2398495376110077,0.050318390130996704,0.10954000800848007
1783170494928121900,1.972121826171875,0.2140629142522812,0.054087404161691666,0.03152458369731903
1783170494938192000,1.98219189453125,0.1931467205286026,0.056249357759952545,-0.00224722595885396
1783170494948260900,1.9922607421875,0.1818535178899765,0.042919717729091644,-0.008337799459695816
1783170494958331000,2.002330810546875,0.1800372451543808,0.021647987887263298,-0.0051947361789643764
1783170494968400000,2.01239990234375,0.1775030642747879,-0.008739719167351723,0.003615817055106163
1783170494978470000,2.022469970703125,0.1609746813774109,-0.04278770089149475,0.01208546757698059
1783170494988538600,2.03253857421875,0.13027210533618927,-0.05365726351737976,0.00871785543859005
1783170494998609000,2.04260888671875,0.09674050658941269,-0.03914383798837662,-0.007237409241497517
1783170495008677600,2.052677734375,0.07180348038673401,-0.020372960716485977,-0.040766723453998566
1783170495018748000,2.062747802734375,0.06190264970064163,-0.009332827292382717,-0.07088787108659744
1783170495028816600,2.072816650390625,0.06621689349412918,-0.024053189903497696,-0.08198444545269012
1783170495038887000,2.082886962890625,0.0693247988820076,-0.06531114876270294,-0.07353369891643524
1783170495048955400,2.092955322265625,0.06745287030935287,-0.10154423117637634,-0.05675014853477478
1783170495059025400,2.103025390625,0.05748625844717026,-0.13481058180332184,-0.03552448749542236
1783170495069094400,2.113094482421875,0.03491530939936638,-0.15766888856887817,-0.03371857851743698
1783170495079164400,2.123164306640625,0.010249908082187176,-0.18759721517562866,-0.04971432313323021
1783170495089234400,2.133234375,-0.00703803077340126,-0.2094147801399231,-0.07142278552055359
1783170495099303400,2.143303466796875,-0.0008605627808719873,-0.21620184183120728,-0.07803194969892502
1783170495109372400,2.153372314453125,0.0205441415309906,-0.2149277925491333,-0.07398929446935654
1783170495119442400,2.1634423828125,0.04840240254998207,-0.225601464509964,-0.07274559885263443
1783170495129512400,2.173512451171875,0.07130061835050583,-0.2356523871421814,-0.054243165999650955
1783170495139581400,2.18358154296875,0.07991886883974075,-0.2258111983537674,-0.030705884099006653
1783170495149651500,2.1936513671875,0.06720370054244995,-0.19726262986660004,-0.019313126802444458
1783170495159720400,2.203720458984375,0.043872009962797165,-0.12990303337574005,-0.019581306725740433
1783170495169790500,2.21379052734375,0.024367069825530052,-0.04254057630896568,-0.035634301602840424
1783170495179859500,2.223859375,0.019736630842089653,0.03138371556997299,-0.054537951946258545
1783170495189929500,2.233929443359375,0.04772128537297249,0.03574172407388687,-0.08698436617851257
1783170495199998500,2.24399853515625,0.09744463115930557,-0.05198786407709122,-0.11357549577951431
1783170495210068500,2.254068359375,0.1488487273454666,-0.18206609785556793,-0.13255006074905396
1783170495220137500,2.264137451171875,0.18486104905605316,-0.2941707968711853,-0.1407315582036972
1783170495230207500,2.27420751953125,0.18667927384376526,-0.3512462377548218,-0.15720973908901215
1783170495240276200,2.284276123046875,0.17597657442092896,-0.37798595428466797,-0.19223803281784058
1783170495250346500,2.294346435546875,0.16453276574611664,-0.4078158736228943,-0.23782144486904144
1783170495260415500,2.30441552734375,0.1518545150756836,-0.428565114736557,-0.254495233297348
1783170495270485500,2.314485595703125,0.1393866091966629,-0.4294319748878479,-0.22776338458061218
1783170495280554500,2.324554443359375,0.13150204718112946,-0.4008229672908783,-0.16850565373897552
1783170495290624300,2.334624267578125,0.12872517108917236,-0.31111985445022583,-0.1020151898264885
1783170495300693500,2.344693603515625,0.12690863013267517,-0.14983081817626953,-0.04069644212722778
1783170495310763300,2.35476318359375,0.12979431450366974,0.08182663470506668,-0.014768268913030624
1783170495320832500,2.36483251953125,0.13818539679050446,0.3065875768661499,-0.030946174636483192
1783170495330902300,2.37490234375,0.16140389442443848,0.4486549496650696,-0.05078832060098648
1783170495340971500,2.384971435546875,0.17713679373264313,0.5117985010147095,-0.018374720588326454
1783170495351041500,2.39504150390625,0.18954624235630035,0.5456247925758362,0.05186097323894501
1783170495361110500,2.405110595703125,0.21550726890563965,0.5491739511489868,0.1100398525595665
1783170495371180500,2.4151806640625,0.2424011081457138,0.5205468535423279,0.14435416460037231
1783170495381249500,2.42524951171875,0.2694796025753021,0.4724254310131073,0.16381043195724487
1783170495391319600,2.435319580078125,0.298128604888916,0.39356401562690735,0.16554255783557892
1783170495401388300,2.44538818359375,0.3306444585323334,0.2897811532020569,0.15452958643436432
1783170495411458600,2.45545849609375,0.3701958954334259,0.1489683985710144,0.14189453423023224
1783170495421527300,2.46552734375,0.39022260904312134,-0.007890185341238976,0.14053206145763397
1783170495431597600,2.47559765625,0.39962002635002136,-0.13496091961860657,0.13180296123027802
1783170495441666300,2.485666259765625,0.39428067207336426,-0.20509180426597595,0.10376547276973724
1783170495451736600,2.495736572265625,0.3850872814655304,-0.23319028317928314,0.07110090553760529
1783170495461805300,2.505805419921875,0.38417303562164307,-0.23767878115177155,0.0233584176748991
1783170495471875300,2.515875244140625,0.39227181673049927,-0.23253540694713593,0.0004488164559006691
1783170495481944300,2.5259443359375,0.4001174867153168,-0.20308645069599152,0.010479612275958061
1783170495492014300,2.536014404296875,0.40362823009490967,-0.1411917805671692,0.06987357139587402
1783170495502083600,2.54608349609375,0.42663100361824036,-0.03190257027745247,0.15959040820598602
1783170495512153300,2.5561533203125,0.4599416255950928,0.10826384276151657,0.23584675788879395
1783170495522222600,2.56622265625,0.4956277310848236,0.2631908357143402,0.25273066759109497
1783170495532292400,2.576292236328125,0.5273915529251099,0.4217604994773865,0.18920733034610748
1783170495542361600,2.586361572265625,0.5601871013641357,0.5506154298782349,0.10606344044208527
1783170495552431400,2.596431396484375,0.5756250619888306,0.6115341782569885,0.05718467757105827
1783170495562500400,2.606500244140625,0.5757321715354919,0.6086222529411316,0.05034541338682175
1783170495572570400,2.6165703125,0.5905722975730896,0.5745283365249634,0.059908293187618256
1783170495582639400,2.626639404296875,0.6296531558036804,0.5226840376853943,0.06558828800916672
1783170495592709600,2.636709716796875,0.6839747428894043,0.4683963358402252,0.06931497156620026
1783170495602778400,2.6467783203125,0.7505820393562317,0.41423216462135315,0.07353075593709946
1783170495612848600,2.6568486328125,0.8067149519920349,0.3504679799079895,0.0708131343126297
1783170495622917400,2.66691748046875,0.8422021269798279,0.27670562267303467,0.07097745686769485
1783170495632987400,2.6769873046875,0.8515006899833679,0.21615703403949738,0.059367574751377106
1783170495643056400,2.687056396484375,0.8418166041374207,0.1788719743490219,0.03662817180156708
1783170495653126400,2.69712646484375,0.8262529969215393,0.14073589444160461,0.0031663300469517708
1783170495663195400,2.7071953125,0.8141324520111084,0.11837758868932724,-0.025645345449447632
1783170495673265400,2.717265380859375,0.8025355339050293,0.11177363246679306,-0.03220468759536743
1783170495683334400,2.72733447265625,0.7984387874603271,0.11762087047100067,-0.029568420723080635
1783170495693404400,2.737404296875,0.7904982566833496,0.14085201919078827,-0.025477202609181404
1783170495703473400,2.747473388671875,0.7691266536712646,0.16786472499370575,-0.02454136684536934
1783170495713543400,2.75754345703125,0.755772054195404,0.20334146916866302,-0.02365153282880783
1783170495723612700,2.76761279296875,0.7513549327850342,0.23184262216091156,-0.022474415600299835
1783170495733682400,2.777682373046875,0.7493686079978943,0.2501223087310791,-0.018994245678186417
1783170495743751400,2.78775146484375,0.7478511333465576,0.27136048674583435,-0.02417675592005253
1783170495753821400,2.797821533203125,0.7364627718925476,0.30059507489204407,-0.03436458110809326
1783170495763890400,2.807890380859375,0.7250077724456787,0.33520418405532837,-0.04241451993584633
1783170495773960400,2.81796044921875,0.7208647131919861,0.36051657795906067,-0.04981570690870285
1783170495784029400,2.828029541015625,0.7212939858436584,0.3743000328540802,-0.052191779017448425
1783170495794099500,2.838099365234375,0.7211285829544067,0.367733895778656,-0.04693342000246048
1783170495804168400,2.84816845703125,0.7272458672523499,0.3436559736728668,-0.025730663910508156
1783170495814238500,2.858238525390625,0.7366523742675781,0.3059704005718231,0.012296808883547783
1783170495824307500,2.868307373046875,0.7534723281860352,0.26156485080718994,0.06500609219074249
1783170495834377500,2.87837744140625,0.7689906358718872,0.23156218230724335,0.09855879843235016
1783170495844446500,2.888446533203125,0.7772038578987122,0.20729279518127441,0.10847188532352448
1783170495854516500,2.8985166015625,0.7701796293258667,0.19596615433692932,0.1012834757566452
1783170495864585500,2.90858544921875,0.7423765063285828,0.19081559777259827,0.09439787268638611
1783170495874655500,2.918655517578125,0.7160618305206299,0.18814733624458313,0.0843895897269249
1783170495884724500,2.928724365234375,0.6927157640457153,0.19524438679218292,0.08901843428611755
1783170495894794500,2.93879443359375,0.6692425012588501,0.208649680018425,0.11285103857517242
1783170495904863200,2.94886328125,0.6542960405349731,0.21763652563095093,0.1299128532409668
1783170495914933500,2.95893359375,0.6420674920082092,0.20282045006752014,0.10576599091291428
1783170495925002200,2.969002197265625,0.626171350479126,0.13870884478092194,0.050526440143585205
1783170495935072500,2.979072509765625,0.6085047125816345,0.02930803969502449,-0.00866471417248249
1783170495945141500,2.9891416015625,0.5714156627655029,-0.1297234147787094,-0.03196310997009277
1783170495955211500,2.99921142578125,0.5179279446601868,-0.27118709683418274,-0.0028526850510388613
1783170495965280500,3.009280517578125,0.46786239743232727,-0.3482443392276764,0.0701456293463707
1783170495975350300,3.019350341796875,0.4360118508338928,-0.3084180951118469,0.12678278982639313
1783170495985419500,3.02941943359375,0.4125094711780548,-0.19215112924575806,0.12720410525798798
1783170495995489300,3.0394892578125,0.40137410163879395,-0.028279762715101242,0.0729634016752243
1783170496005558500,3.04955859375,0.3970094323158264,0.15465569496154785,-0.0021063177846372128
1783170496015628300,3.059628173828125,0.3930496275424957,0.2996230125427246,-0.04785024747252464
1783170496025697500,3.069697509765625,0.3670491874217987,0.39812907576560974,-0.056825634092092514
1783170496035767600,3.079767578125,0.3390066623687744,0.48228561878204346,-0.04721808433532715
1783170496045836500,3.08983642578125,0.3272991180419922,0.5424419045448303,-0.03589325770735741
1783170496055906300,3.09990625,0.34754329919815063,0.5575120449066162,-0.03110315464437008
1783170496065975600,3.1099755859375,0.3892974257469177,0.5345239043235779,-0.028853582218289375
1783170496076045600,3.120045654296875,0.4449165463447571,0.4820808172225952,-0.008093176409602165
1783170496086114300,3.1301142578125,0.508954644203186,0.4011785089969635,0.021331291645765305
1783170496096184600,3.1401845703125,0.5586663484573364,0.32803335785865784,0.06434337794780731
1783170496106253300,3.15025341796875,0.5845341682434082,0.2827068865299225,0.11618873476982117
1783170496116323600,3.160323486328125,0.605875551700592,0.273664653301239,0.15134716033935547
1783170496126392300,3.170392333984375,0.6226068735122681,0.27121028304100037,0.15623539686203003
1783170496136462300,3.18046240234375,0.6390403509140015,0.2687561810016632,0.13794375956058502
1783170496146531300,3.19053125,0.6580582857131958,0.27958086133003235,0.11165329813957214
1783170496156601300,3.200601318359375,0.6696904897689819,0.2958005964756012,0.10404887795448303
1783170496166670300,3.21067041015625,0.6724303364753723,0.30589795112609863,0.1119060069322586
1783170496176740400,3.220740234375,0.6670319437980652,0.29141631722450256,0.11976736038923264
1783170496186809300,3.230809326171875,0.6620526313781738,0.2774139642715454,0.1205495297908783
1783170496196879400,3.24087939453125,0.6543751955032349,0.2522546947002411,0.10283341258764267
1783170496206948600,3.250948486328125,0.6545647978782654,0.20614445209503174,0.06959369778633118
1783170496217018400,3.261018310546875,0.6506552696228027,0.13289141654968262,0.029954751953482628
1783170496227087600,3.271087646484375,0.6252987384796143,0.02152254804968834,-0.014768511056900024
1783170496237157400,3.281157470703125,0.5872783660888672,-0.10961374640464783,-0.05187033861875534
1783170496247226400,3.291226318359375,0.5360357165336609,-0.24666056036949158,-0.06554727256298065
1783170496257296400,3.30129638671875,0.46743568778038025,-0.34928521513938904,-0.0561920665204525
1783170496267365400,3.311365478515625,0.4090682566165924,-0.38696733117103577,-0.0484774224460125
1783170496277435400,3.321435302734375,0.35160472989082336,-0.3432042896747589,-0.05252416804432869
1783170496287504400,3.33150439453125,0.2966544032096863,-0.26383036375045776,-0.079926498234272
1783170496297574400,3.341574462890625,0.2438647300004959,-0.17277677357196808,-0.11182557791471481
1783170496307643400,3.351643310546875,0.19322632253170013,-0.07701242715120316,-0.12843678891658783
1783170496317713400,3.36171337890625,0.16648270189762115,0.007327742408961058,-0.11350412666797638
1783170496327782400,3.371782470703125,0.17147240042686462,0.07876091450452805,-0.059333302080631256
1783170496337852400,3.381852294921875,0.1929583102464676,0.13225412368774414,0.0017306925728917122
1783170496347921400,3.39192138671875,0.21598747372627258,0.1707029789686203,0.033486757427453995
1783170496357991400,3.401991455078125,0.23612414300441742,0.19533483684062958,0.041123829782009125
1783170496368060400,3.412060302734375,0.23541894555091858,0.18584440648555756,0.03243766725063324
1783170496378130400,3.42213037109375,0.19708001613616943,0.1564955711364746,0.027642790228128433
1783170496388199400,3.432199462890625,0.14827147126197815,0.11121250689029694,0.016168028116226196
1783170496398269400,3.44226953125,0.09896830469369888,0.05993238091468811,-0.01017339713871479
1783170496408338400,3.45233837890625,0.06318207830190659,0.029498573392629623,-0.025798430666327477
1783170496418408400,3.462408447265625,0.052050817757844925,0.02065356634557247,-0.034145839512348175
1783170496428477200,3.472477294921875,0.052353885024785995,0.01010824739933014,-0.038240447640419006
1783170496438547500,3.48254736328125,0.0464540459215641,-0.01060995738953352,-0.02979292720556259
1783170496448616400,3.492616455078125,0.04023556411266327,-0.04490241780877113,-0.029101040214300156
1783170496458686500,3.5026865234375,0.016537876799702644,-0.08205112814903259,-0.03254208341240883
1783170496468755500,3.51275537109375,-0.022860661149024963,-0.10423365235328674,-0.023156573995947838
1783170496478825200,3.5228251953125,-0.07708623260259628,-0.11382155865430832,-0.011285435408353806
1783170496488894500,3.53289453125,-0.13308611512184143,-0.10837885737419128,-0.0062121134251356125
1783170496498964200,3.542964111328125,-0.18586207926273346,-0.09225062280893326,-0.014631069265305996
1783170496509033500,3.553033447265625,-0.2264646291732788,-0.0695762038230896,-0.03009817749261856
1783170496519103200,3.563103271484375,-0.25616034865379333,-0.05017879977822304,-0.04223809391260147
1783170496529172500,3.57317236328125,-0.2727433145046234,-0.05529606342315674,-0.04290255531668663
1783170496539242500,3.583242431640625,-0.28922781348228455,-0.07759018987417221,-0.018089739605784416
1783170496549311500,3.5933115234375,-0.3121855854988098,-0.09959908574819565,0.02996806800365448
1783170496559381500,3.603381591796875,-0.33740413188934326,-0.12966138124465942,0.08555702865123749
1783170496569450500,3.613450439453125,-0.3667929172515869,-0.16134926676750183,0.11803188174962997
1783170496579520500,3.6235205078125,-0.40347719192504883,-0.20322546362876892,0.1290949136018753
1783170496589589200,3.63358935546875,-0.4418877065181732,-0.25572407245635986,0.12174512445926666
1783170496599659500,3.643659423828125,-0.49011415243148804,-0.29409825801849365,0.10584307461977005
1783170496609728300,3.653728271484375,-0.5445808172225952,-0.3217772841453552,0.07964662462472916
1783170496619798500,3.663798583984375,-0.5999500155448914,-0.3313217759132385,0.056597739458084106
1783170496629867300,3.6738671875,-0.645480215549469,-0.3345985412597656,0.02010151743888855
1783170496639937300,3.683937255859375,-0.6882977485656738,-0.30845654010772705,-0.008263522759079933
1783170496650006300,3.69400634765625,-0.7308963537216187,-0.27997350692749023,-0.020299945026636124
1783170496660076300,3.704076171875,-0.7576623558998108,-0.2358112335205078,-0.007236437406390905
1783170496670145500,3.7141455078125,-0.7610432505607605,-0.1753004938364029,0.015418542549014091
1783170496680215300,3.72421533203125,-0.739571213722229,-0.08693162351846695,0.05992841348052025
1783170496690284500,3.734284423828125,-0.680997371673584,0.00899171270430088,0.08959230035543442
1783170496700354300,3.744354248046875,-0.6268296241760254,0.044531986117362976,0.06116968393325806
1783170496710423600,3.754423583984375,-0.6207999587059021,-0.013737710192799568,-0.01786627806723118
1783170496720493300,3.764493408203125,-0.6841611266136169,-0.21597151458263397,-0.1291608214378357
1783170496730562600,3.7745625,-0.8491381406784058,-0.5186123251914978,-0.2206297516822815
1783170496740632300,3.78463232421875,-1.0988125801086426,-0.7695246934890747,-0.2518436014652252
1783170496750701300,3.794701416015625,-1.30037522315979,-0.7819869518280029,-0.2515178918838501
1783170496760771600,3.804771484375,-1.3685498237609863,-0.5863956212997437,-0.24690811336040497
1783170496770840300,3.81484033203125,-1.372141718864441,-0.28436973690986633,-0.2473459392786026
1783170496780910600,3.82491064453125,-1.3349653482437134,0.03119087405502796,-0.26425978541374207
1783170496790979300,3.834979248046875,-1.263358473777771,0.21868006885051727,-0.26714399456977844
1783170496801049300,3.84504931640625,-1.2187073230743408,0.33882635831832886,-0.24151423573493958
1783170496811118300,3.855118408203125,-1.1961476802825928,0.3253968358039856,-0.18889228999614716
1783170496821188400,3.865188232421875,-1.1739304065704346,0.236118882894516,-0.12391837686300278
1783170496831257300,3.87525732421875,-1.1653363704681396,0.12355264276266098,-0.06557571142911911
1783170496841327400,3.885327392578125,-1.1655888557434082,0.03200582042336464,-0.021818455308675766
1783170496851396400,3.895396240234375,-1.1553436517715454,-0.014958491548895836,-0.00001568719744682312
1783170496861466400,3.90546630859375,-1.1485294103622437,-0.00982870813459158,0.005959502421319485
1783170496871535400,3.915535400390625,-1.147457480430603,-0.002708480693399906,0.007238352205604315
1783170496881605400,3.92560546875,-1.1528898477554321,-0.007745060138404369,0.024240940809249878
1783170496891674600,3.935674560546875,-1.155055284500122,-0.04019647464156151,0.03353084623813629
1783170496901744400,3.945744384765625,-1.1547068357467651,-0.09941372275352478,0.028664160519838333
1783170496911813400,3.9558134765625,-1.1545449495315552,-0.16352346539497375,0.0031193860340863466
1783170496921883400,3.96588330078125,-1.1626554727554321,-0.23997484147548676,-0.021031854674220085
1783170496931952400,3.975952392578125,-1.1879184246063232,-0.2990139424800873,-0.029259422793984413
1783170496942022400,3.9860224609375,-1.2214208841323853,-0.3317154347896576,-0.021536746993660927
1783170496952091400,3.99609130859375,-1.2592803239822388,-0.3262532949447632,-0.009805255569517612
1783170496962161400,4.006161376953125,-1.3078651428222656,-0.30907705426216125,0.004285147413611412
1783170496972230400,4.01623046875,-1.3099892139434814,-0.2905119061470032,0.0011106596793979406
1783170496982300200,4.026300048828125,-1.3295645713806152,-0.26296496391296387,-0.006895046215504408
1783170496992369400,4.036369384765625,-1.368281602859497,-0.26719778776168823,-0.008960060775279999
1783170497002439400,4.046439453125,-1.4164456129074097,-0.27989962697029114,-0.010540943592786789
1783170497012508400,4.05650830078125,-1.4655065536499023,-0.27841705083847046,-0.011854414828121662
1783170497022578400,4.066578369140625,-1.5103776454925537,-0.28281617164611816,-0.012770557776093483
1783170497032647400,4.0766474609375,-1.541297197341919,-0.2863328754901886,-0.00902429036796093
1783170497042717400,4.086717529296875,-1.5477303266525269,-0.28991642594337463,0.001805133419111371
1783170497052786400,4.096786376953125,-1.5627375841140747,-0.29127436876296997,0.025701677426695824
1783170497062856200,4.106856201171875,-1.5823894739151,-0.3045313060283661,0.05745351314544678
1783170497072925400,4.116925537109375,-1.614672064781189,-0.3198716640472412,0.0700255036354065
1783170497082995200,4.1269951171875,-1.6641329526901245,-0.32326599955558777,0.07443525642156601
1783170497093064200,4.137064208984375,-1.7164474725723267,-0.31481605768203735,0.06103210151195526
1783170497103134500,4.147134521484375,-1.7719238996505737,-0.32035714387893677,0.055439967662096024
1783170497113203200,4.157203125,-1.8173738718032837,-0.3280006945133209,0.05643812194466591
1783170497123273500,4.1672734375,-1.8387523889541626,-0.33095401525497437,0.04772709310054779
1783170497133342200,4.17734228515625,-1.8493338823318481,-0.3308757245540619,0.02888096496462822
1783170497143412200,4.187412109375,-1.8442176580429077,-0.3374311029911041,-0.011385432444512844
1783170497153481200,4.197481201171875,-1.8484249114990234,-0.36378946900367737,-0.044384125620126724
1783170497163551200,4.20755126953125,-1.8656110763549805,-0.3890954554080963,-0.03970284014940262
1783170497173620200,4.2176201171875,-1.9133061170578003,-0.41235843300819397,-0.004711567424237728
1783170497183690200,4.227690185546875,-1.9573661088943481,-0.44713255763053894,0.014011537656188011
1783170497193759200,4.23775927734375,-1.9554736614227295,-0.4900992214679718,0.009752344340085983
1783170497203829200,4.247829345703125,-1.9499455690383911,-0.4653005003929138,-0.006921678315848112
1783170497213898200,4.257898193359375,-1.9177193641662598,-0.4648810625076294,-0.03681059926748276
1783170497223968300,4.26796826171875,-1.8723740577697754,-0.42425239086151123,-0.035841766744852066
1783170497234037200,4.278037353515625,-1.812791347503662,-0.34994807839393616,0.00601726770401001
1783170497244107300,4.288107177734375,-1.7524609565734863,-0.260224312543869,0.057441987097263336
1783170497254176300,4.29817626953125,-1.696136474609375,-0.19451534748077393,0.0883658155798912
1783170497264246300,4.308246337890625,-1.655232548713684,-0.15542587637901306,0.07138799130916595
1783170497274315300,4.318315185546875,-1.617111325263977,-0.13281165063381195,0.03951181843876839
1783170497284385300,4.32838525390625,-1.5830228328704834,-0.1288852095603943,0.025951871648430824
1783170497294454300,4.338454345703125,-1.5563677549362183,-0.11959052085876465,0.047559428960084915
1783170497304524300,4.348524169921875,-1.5207021236419678,-0.12053035199642181,0.09689647704362869
1783170497314593300,4.35859326171875,-1.489607572555542,-0.1417783796787262,0.14651328325271606
1783170497324663000,4.3686630859375,-1.4496079683303833,-0.16681525111198425,0.15604346990585327
1783170497334732300,4.378732177734375,-1.3987871408462524,-0.17828655242919922,0.12950827181339264
1783170497344802300,4.38880224609375,-1.3478878736495972,-0.17676246166229248,0.08880714327096939
1783170497354871300,4.398871337890625,-1.30838942527771,-0.17432540655136108,0.04807010293006897
1783170497364941300,4.40894140625,-1.2918503284454346,-0.177583247423172,0.024832667782902718
1783170497375010300,4.41901025390625,-1.2793112993240356,-0.1792554408311844,0.014815985225141048
1783170497385080300,4.429080322265625,-1.268409252166748,-0.17940472066402435,-0.0010093464516103268
1783170497395149300,4.4391494140625,-1.246382236480713,-0.16380499303340912,-0.022692004218697548
1783170497405219300,4.44921923828125,-1.211240530014038,-0.1464366316795349,-0.048055894672870636
1783170497415288300,4.459288330078125,-1.1643470525741577,-0.13170695304870605,-0.06287052482366562
1783170497425358300,4.4693583984375,-1.1331923007965088,-0.12201839685440063,-0.07292214781045914
1783170497435427000,4.479427001953125,-1.1103222370147705,-0.1303061544895172,-0.07172319293022156
1783170497445497300,4.489497314453125,-1.095091462135315,-0.12680605053901672,-0.03859271481633186
1783170497455566000,4.499566162109375,-1.0727362632751465,-0.12438791245222092,0.008572401478886604
1783170497465636400,4.50963623046875,-1.0501683950424194,-0.11745944619178772,0.06095590814948082
1783170497475705300,4.519705322265625,-1.0127954483032227,-0.10422539710998535,0.0905473530292511
1783170497485775400,4.529775390625,-0.9761643409729004,-0.09209855645895004,0.10041546076536179
1783170497495844400,4.53984423828125,-0.9372259974479675,-0.09558197110891342,0.11334031075239182
1783170497505914000,4.5499140625,-0.8961452841758728,-0.11108782887458801,0.14049094915390015
1783170497515983400,4.5599833984375,-0.8550082445144653,-0.13811706006526947,0.17045949399471283
1783170497526053000,4.57005322265625,-0.8226246237754822,-0.1766400784254074,0.18200820684432983
1783170497536122400,4.580122314453125,-0.8053508400917053,-0.2172655314207077,0.1686716228723526
1783170497546192100,4.590192138671875,-0.8038275241851807,-0.2495863288640976,0.13575103878974915
1783170497556261400,4.600261474609375,-0.8194035887718201,-0.25121748447418213,0.07623657584190369
1783170497566331400,4.610331298828125,-0.8433607220649719,-0.26258426904678345,0.009251992218196392
1783170497576400400,4.620400390625,-0.8727476596832275,-0.27444466948509216,-0.03104775957763195
1783170497586470400,4.630470458984375,-0.9041306972503662,-0.2819642126560211,-0.00005207653157413006
1783170497596539100,4.6405390625,-0.9307718873023987,-0.26949024200439453,0.07644429802894592
1783170497606609400,4.650609375,-0.9289993047714233,-0.24597029387950897,0.14207080006599426
1783170497616678100,4.66067822265625,-0.9005956053733826,-0.20745326578617096,0.17635393142700195
1783170497626748400,4.67074853515625,-0.8521380424499512,-0.16206714510917664,0.18161539733409882
1783170497636817200,4.680817138671875,-0.7995968461036682,-0.15428698062896729,0.18756303191184998
1783170497646887400,4.690887451171875,-0.7642500996589661,-0.19896440207958221,0.19009065628051758
1783170497656956200,4.7009560546875,-0.7577839493751526,-0.28230270743370056,0.2030341476202011
1783170497667026200,4.711026123046875,-0.7854734659194946,-0.3650199770927429,0.1836806684732437
1783170497677095200,4.72109521484375,-0.840435802936554,-0.4192800223827362,0.14043891429901123
1783170497687165200,4.731165283203125,-0.9052285552024841,-0.45570820569992065,0.0860617458820343
1783170497697234400,4.741234375,-0.9742462635040283,-0.4581644535064697,0.05340978875756264
1783170497707304200,4.75130419921875,-1.0454533100128174,-0.4313361346721649,0.07159338891506195
1783170497717373400,4.76137353515625,-1.103145956993103,-0.37900689244270325,0.13425889611244202
1783170497727443200,4.771443115234375,-1.1288090944290161,-0.3118076026439667,0.20532278716564178
1783170497737512400,4.781512451171875,-1.1217751502990723,-0.2473151832818985,0.2507086396217346
1783170497747582200,4.791582275390625,-1.0765210390090942,-0.17635126411914825,0.26193204522132874
1783170497757651500,4.8016513671875,-1.00922429561615,-0.1410185843706131,0.2492535412311554
1783170497767721200,4.81172119140625,-0.9446820616722107,-0.15163978934288025,0.21861326694488525
1783170497777790200,4.821790283203125,-0.8901362419128418,-0.1915922462940216,0.1771337389945984
1783170497787860500,4.831860595703125,-0.86093670129776,-0.2620663046836853,0.14284785091876984
1783170497797929200,4.84192919921875,-0.8552977442741394,-0.34849175810813904,0.13302397727966309
1783170497807999500,4.85199951171875,-0.8729562759399414,-0.404683917760849,0.14701780676841736
1783170497818068200,4.862068115234375,-0.9274821281433105,-0.4322066307067871,0.19294987618923187
1783170497828138200,4.87213818359375,-0.9994089603424072,-0.41035521030426025,0.23963508009910583
1783170497838207200,4.882207275390625,-1.0681345462799072,-0.34540098905563354,0.26007193326950073
1783170497848277200,4.89227734375,-1.1126911640167236,-0.24071866273880005,0.22857347130775452
1783170497858346200,4.90234619140625,-1.1212886571884155,-0.12928295135498047,0.15524598956108093
1783170497868416300,4.912416259765625,-1.1040369272232056,-0.04028596729040146,0.07680323719978333
1783170497878485200,4.9224853515625,-1.0778292417526245,-0.011620230972766876,0.02135596051812172
1783170497888555300,4.93255517578125,-1.0592503547668457,-0.036775924265384674,0.012662092223763466
1783170497898624300,4.942624267578125,-1.0431969165802002,-0.07866691797971725,0.07050089538097382
1783170497908694300,4.9526943359375,-1.024032711982727,-0.09935703873634338,0.1490386575460434
1783170497918763300,4.96276318359375,-0.9958269596099854,-0.08726388961076736,0.20291519165039062
1783170497928833300,4.972833251953125,-0.9761115908622742,-0.05058814957737923,0.2091372162103653
1783170497938902300,4.98290234375,-0.9648604989051819,-0.018604114651679993,0.17900754511356354
1783170497948972300,4.99297216796875,-0.9682819843292236,-0.0165322944521904,0.14772993326187134
1783170497959041300,5.003041259765625,-0.985586941242218,-0.05137176811695099,0.13731351494789124
1783170497969111300,5.013111328125,-1.007564902305603,-0.10268637537956238,0.13812638819217682
1783170497979180300,5.02318017578125,-1.0333651304244995,-0.14839154481887817,0.13861294090747833
1783170497989249300,5.033249267578125,-1.056731104850769,-0.17929965257644653,0.11912891268730164
1783170497999319300,5.0433193359375,-1.080613374710083,-0.1835511177778244,0.09483981132507324
1783170498009389000,5.05338916015625,-1.0975004434585571,-0.17533978819847107,0.06955896317958832
1783170498019458300,5.063458251953125,-1.1041679382324219,-0.18651628494262695,0.05257518216967583
1783170498029527300,5.07352734375,-1.0996427536010742,-0.22782523930072784,0.05183973163366318
1783170498039597300,5.083597412109375,-1.0885264873504639,-0.2844877243041992,0.08342055976390839
1783170498049666800,5.093666748046875,-1.0757540464401245,-0.3378843665122986,0.11650508642196655
1783170498059736000,5.103736083984375,-1.0765361785888672,-0.3508331775665283,0.13738028705120087
1783170498069804800,5.1138046875,-1.0858827829360962,-0.31722596287727356,0.13856352865695953
1783170498079875000,5.123875,-1.098065972328186,-0.26427218317985535,0.12957829236984253
1783170498089944800,5.13394482421875,-1.1103723049163818,-0.20849868655204773,0.12105805426836014
1783170498100014000,5.14401416015625,-1.1088165044784546,-0.19052153825759888,0.12550367414951324
1783170498110082800,5.154082763671875,-1.088546633720398,-0.21281594038009644,0.1346464902162552
1783170498120152800,5.16415283203125,-1.05238938331604,-0.25692135095596313,0.1506158709526062
1783170498130221800,5.174221923828125,-1.0204271078109741,-0.30724096298217773,0.16466856002807617
1783170498140291800,5.184291748046875,-1.0044587850570679,-0.3440666198730469,0.16396281123161316
1783170498150360800,5.19436083984375,-1.0024933815002441,-0.3567914664745331,0.1399606168270111
1783170498160430800,5.204430908203125,-1.0089987516403198,-0.33955150842666626,0.10365507006645203
1783170498170499800,5.214499755859375,-1.030726432800293,-0.29396283626556396,0.07386387884616852
1783170498180569900,5.22456982421875,-1.0598304271697998,-0.2242375761270523,0.059115827083587646
1783170498190639000,5.23463916015625,-1.095534324645996,-0.15073353052139282,0.04761674627661705
1783170498200708900,5.244708984375,-1.1091082096099854,-0.09184492379426956,0.022201668471097946
1783170498210778000,5.254778076171875,-1.1125956773757935,-0.06412685662508011,0.016882671043276787
1783170498220847900,5.264847900390625,-1.0914549827575684,-0.07950688153505325,0.038952287286520004
1783170498230916900,5.274916748046875,-1.0523794889450073,-0.13278955221176147,0.07178109139204025
1783170498240987000,5.28498681640625,-1.0085324048995972,-0.20362989604473114,0.09006529301404953
1783170498251055900,5.295055908203125,-0.9644629955291748,-0.26270321011543274,0.09854808449745178
1783170498261126000,5.3051259765625,-0.9357022047042847,-0.300298810005188,0.10409411787986755
1783170498271195000,5.31519482421875,-0.9174510836601257,-0.3076649606227875,0.1006360724568367
1783170498281265000,5.325264892578125,-0.9071779251098633,-0.29060181975364685,0.10945966094732285
1783170498291334000,5.335333984375,-0.9050306081771851,-0.27143439650535583,0.12270227819681168
1783170498301404000,5.34540380859375,-0.904586911201477,-0.2581915557384491,0.1389201283454895
1783170498311473000,5.355472900390625,-0.8961971998214722,-0.26906320452690125,0.1677868813276291
1783170498321543000,5.36554296875,-0.8804342150688171,-0.28631144762039185,0.19894319772720337
1783170498331612000,5.37561181640625,-0.8587579131126404,-0.3081178069114685,0.20842404663562775
1783170498341682000,5.385681884765625,-0.8347495198249817,-0.3323450982570648,0.20569217205047607
1783170498351751000,5.3957509765625,-0.8225077986717224,-0.36832812428474426,0.201043963432312
1783170498361821000,5.405821044921875,-0.8258404731750488,-0.39971455931663513,0.2012311965227127
1783170498371890000,5.415889892578125,-0.8471404314041138,-0.4305126965045929,0.22022852301597595
1783170498381960000,5.4259599609375,-0.8810129165649414,-0.45331788063049316,0.23977026343345642
1783170498392029000,5.43602880859375,-0.9296028017997742,-0.46437492966651917,0.25328314304351807
1783170498402099000,5.446098876953125,-0.9899489879608154,-0.4551753103733063,0.270437091588974
1783170498412167700,5.456167724609375,-1.06448233127594,-0.4212772846221924,0.2969447374343872
1783170498422238000,5.466238037109375,-1.1297132968902588,-0.3662121593952179,0.32370525598526
1783170498432307000,5.476306884765625,-1.1650402545928955,-0.298178493976593,0.3289998173713684
1783170498442377000,5.486376953125,-1.1547348499298096,-0.23370949923992157,0.3168744444847107
1783170498452446000,5.496446044921875,-1.1187528371810913,-0.1770644634962082,0.30272939801216125
1783170498462515700,5.506515625,-1.066390872001648,-0.17896808683872223,0.2608882188796997
1783170498472585000,5.5165849609375,-1.0457193851470947,-0.23953278362751007,0.19977065920829773
1783170498482654700,5.52665478515625,-1.0563312768936157,-0.31983986496925354,0.14680172502994537
1783170498492724000,5.536723876953125,-1.0974085330963135,-0.38823825120925903,0.1065254807472229
1783170498502793700,5.546793701171875,-1.1349129676818848,-0.4047485291957855,0.06788168102502823
1783170498512863000,5.556863037109375,-1.151920199394226,-0.37431347370147705,0.024927236139774323
1783170498522933000,5.56693310546875,-1.1559244394302368,-0.31623873114585876,-0.01558743230998516
1783170498533002000,5.577001953125,-1.148242712020874,-0.24237167835235596,-0.055749621242284775
1783170498543072000,5.587072021484375,-1.1372445821762085,-0.17444723844528198,-0.06593674421310425
1783170498553141000,5.59714111328125,-1.121929407119751,-0.12104447185993195,-0.036206070333719254
1783170498563211000,5.6072109375,-1.1032371520996094,-0.08860664069652557,0.013883459381759167
1783170498573279700,5.61727978515625,-1.0813637971878052,-0.07277427613735199,0.06164171174168587
1783170498583350000,5.62735009765625,-1.0738859176635742,-0.06092880666255951,0.10870296508073807
1783170498593418800,5.637418701171875,-1.0859992504119873,-0.04477313905954361,0.14298297464847565
1783170498603489000,5.647489013671875,-1.1084656715393066,-0.02816007286310196,0.1623670607805252
1783170498613557800,5.657557861328125,-1.1287720203399658,-0.013743831776082516,0.16962318122386932
1783170498623627800,5.667627685546875,-1.1366746425628662,-0.028098534792661667,0.16074153780937195
1783170498633696800,5.67769677734375,-1.136849284172058,-0.08684347569942474,0.1617007553577423
1783170498643766800,5.687766845703125,-1.1320720911026,-0.19342505931854248,0.1684766262769699
1783170498653837000,5.697837158203125,-1.1255319118499756,-0.3547877073287964,0.17773306369781494
1783170498663905800,5.70790576171875,-1.135274052619934,-0.5295302271842957,0.1872677206993103
1783170498673976000,5.71797607421875,-1.1503784656524658,-0.6565450429916382,0.18380849063396454
1783170498684044800,5.728044921875,-1.177246332168579,-0.7064457535743713,0.16508834064006805
1783170498694114800,5.73811474609375,-1.2250458002090454,-0.7086036205291748,0.1486501842737198
1783170498704183800,5.748183837890625,-1.2863736152648926,-0.6995856165885925,0.13120993971824646
1783170498714253800,5.75825390625,-1.3601644039154053,-0.6974086761474609,0.11849652230739594
1783170498724322800,5.76832275390625,-1.4210131168365479,-0.6979527473449707,0.08934582769870758
1783170498734392800,5.778392822265625,-1.4824634790420532,-0.6749292612075806,0.05366440862417221
1783170498744462000,5.788462158203125,-1.546668291091919,-0.6327032446861267,0.02478402480483055
1783170498754531800,5.79853173828125,-1.6059045791625977,-0.5669148564338684,0.00316218682564795
1783170498764601000,5.80860107421875,-1.6451839208602905,-0.48459097743034363,-0.006056611891835928
1783170498774670800,5.8186708984375,-1.6680585145950317,-0.41883355379104614,-0.011712447740137577
1783170498784740000,5.828739990234375,-1.6801342964172363,-0.36414262652397156,-0.00038708909414708614
1783170498794809900,5.838809814453125,-1.68645179271698,-0.3275609016418457,0.014504365622997284
1783170498804878800,5.84887890625,-1.68914794921875,-0.3253832161426544,0.035204850137233734
1783170498814948900,5.858948974609375,-1.6981509923934937,-0.3564475476741791,0.05187365040183067
1783170498825017900,5.869017822265625,-1.7235323190689087,-0.3928114175796509,0.05371975153684616
1783170498835088100,5.879088134765625,-1.761704683303833,-0.41914471983909607,0.04404059424996376
1783170498845156900,5.889156982421875,-1.7994221448898315,-0.4090193808078766,-0.004045708570629358
1783170498855227000,5.899226806640625,-1.8235732316970825,-0.39692223072052,-0.060681868344545364
1783170498865296000,5.9092958984375,-1.845948338508606,-0.3982093334197998,-0.11204412579536438
1783170498875366000,5.919365966796875,-1.8563129901885986,-0.4016047716140747,-0.13244101405143738
1783170498885435000,5.929434814453125,-1.86339271068573,-0.4082847833633423,-0.13124525547027588
1783170498895505000,5.9395048828125,-1.8643113374710083,-0.4220845699310303,-0.10245062410831451
1783170498905574000,5.949573974609375,-1.8544306755065918,-0.4561205804347992,-0.058703936636447906
1783170498915644000,5.959643798828125,-1.83258855342865,-0.4990093410015106,-0.020764408633112907
1783170498925713000,5.969712890625,-1.8062567710876465,-0.5469167232513428,0.0058669354766607285
1783170498935783000,5.979782958984375,-1.7887459993362427,-0.5823161005973816,0.02269199676811695
1783170498945852000,5.989851806640625,-1.773758888244629,-0.5803828835487366,0.019144132733345032
1783170498955922000,5.999921875,-1.7638906240463257,-0.5530572533607483,-0.000295035308226943
1783170498965990700,6.00999072265625,-1.7428662776947021,-0.5013253688812256,-0.03034774400293827
1783170498976061000,6.02006103515625,-1.7193235158920288,-0.44496288895606995,-0.0561496876180172
1783170498986130000,6.0301298828125,-1.6890777349472046,-0.40630924701690674,-0.07445012778043747
1783170498996200000,6.040199951171875,-1.6628522872924805,-0.38643696904182434,-0.0839938223361969
1783170499006269000,6.05026904296875,-1.6494652032852173,-0.3997213542461395,-0.0841434895992279
1783170499016339000,6.0603388671875,-1.6474573612213135,-0.42496776580810547,-0.09840638190507889
1783170499026408000,6.070407958984375,-1.6453074216842651,-0.45815181732177734,-0.10334548354148865
1783170499036477700,6.080477783203125,-1.6318480968475342,-0.4869585335254669,-0.09642336517572403
1783170499046547000,6.090546875,-1.6113269329071045,-0.5280511379241943,-0.07778017222881317
1783170499056617200,6.1006171875,-1.5763773918151855,-0.5395681858062744,-0.058725129812955856
1783170499066686500,6.1106865234375,-1.5210978984832764,-0.5246342420578003,-0.05312956124544144
1783170499076756200,6.120756103515625,-1.469855546951294,-0.478845477104187,-0.05637503042817116
1783170499086825500,6.130825439453125,-1.42091703414917,-0.39419904351234436,-0.06470246613025665
1783170499096895200,6.140895263671875,-1.3754688501358032,-0.3149702548980713,-0.06718478351831436
1783170499106964200,6.150964111328125,-1.3375818729400635,-0.2502831518650055,-0.07036752998828888
1783170499117034200,6.1610341796875,-1.302236795425415,-0.23612286150455475,-0.08443553000688553
1783170499127103200,6.171103271484375,-1.255850076675415,-0.24986878037452698,-0.10900265723466873
1783170499137173200,6.18117333984375,-1.2092020511627197,-0.3054196536540985,-0.12018289417028427
1783170499147242200,6.1912421875,-1.1683459281921387,-0.35908418893814087,-0.08884095400571823
1783170499157312500,6.2013125,-1.1300321817398071,-0.38306888937950134,-0.030600670725107193
1783170499167381200,6.21138134765625,-1.0918083190917969,-0.376849889755249,0.03458445519208908
1783170499177451300,6.221451171875,-1.0497289896011353,-0.34109464287757874,0.09245216846466064
1783170499187520300,6.231520263671875,-1.0100047588348389,-0.285894513130188,0.1447334885597229
1783170499197590300,6.24159033203125,-0.9747223854064941,-0.20538438856601715,0.19450657069683075
1783170499207659300,6.2516591796875,-0.9370701313018799,-0.1288592517375946,0.21800285577774048
1783170499217729300,6.261729248046875,-0.8949321508407593,-0.06890657544136047,0.20605802536010742
1783170499227798300,6.27179833984375,-0.8432356715202332,-0.031146418303251266,0.19333451986312866
1783170499237868300,6.281868408203125,-0.7733065485954285,-0.025134719908237457,0.17353728413581848
1783170499247937300,6.291937255859375,-0.6998333930969238,-0.07010778784751892,0.16253364086151123
1783170499258007300,6.30200732421875,-0.6332955956459045,-0.16145899891853333,0.15272678434848785
1783170499268076300,6.312076171875,-0.5918126106262207,-0.2634279727935791,0.15830424427986145
1783170499278146300,6.322146240234375,-0.5905360579490662,-0.33398815989494324,0.17040276527404785
1783170499288215000,6.332215087890625,-0.6086822748184204,-0.3769223093986511,0.17435222864151
1783170499298285300,6.342285400390625,-0.6434692740440369,-0.39288434386253357,0.14294050633907318
1783170499308354300,6.352354248046875,-0.6775470972061157,-0.3650713562965393,0.09336762130260468
1783170499318424300,6.36242431640625,-0.7007220387458801,-0.31465256214141846,0.019866066053509712
1783170499328493300,6.372493408203125,-0.6931139230728149,-0.2692001163959503,-0.053771935403347015
1783170499338563300,6.382563232421875,-0.6577841639518738,-0.24849271774291992,-0.08956920355558395
1783170499348632300,6.39263232421875,-0.6102041006088257,-0.24357783794403076,-0.0719478651881218
1783170499358702000,6.4027021484375,-0.5565718412399292,-0.23759318888187408,-0.006831426173448563
1783170499368771300,6.412771240234375,-0.49955782294273376,-0.21674996614456177,0.0935732051730156
1783170499378841000,6.422841064453125,-0.44420358538627625,-0.19936123490333557,0.20286203920841217
1783170499388910300,6.432910400390625,-0.4213147759437561,-0.20849348604679108,0.2840069532394409
1783170499398980400,6.44298046875,-0.4154367446899414,-0.24938632547855377,0.3233138918876648
1783170499409049300,6.45304931640625,-0.4477163851261139,-0.27439233660697937,0.3164573311805725
1783170499419119400,6.463119384765625,-0.5044107437133789,-0.24126900732517242,0.260949969291687
1783170499429188400,6.473188232421875,-0.5549988150596619,-0.17076341807842255,0.18800225853919983
1783170499439258400,6.48325830078125,-0.5790225267410278,-0.12841902673244476,0.1289888471364975
1783170499449327000,6.4933271484375,-0.5881329774856567,-0.1292496770620346,0.10572267323732376
1783170499459397400,6.5033974609375,-0.5917123556137085,-0.16032035648822784,0.11685536801815033
1783170499469466000,6.513466064453125,-0.579724133014679,-0.191501185297966,0.1432667374610901
1783170499479536400,6.523536376953125,-0.5721864700317383,-0.22604691982269287,0.1707324981689453
1783170499489605000,6.533605224609375,-0.5618650913238525,-0.2656925916671753,0.19347909092903137
1783170499499675400,6.54367529296875,-0.5439069271087646,-0.28189992904663086,0.20118102431297302
1783170499509744000,6.553744140625,-0.5242179036140442,-0.2770354151725769,0.19357982277870178
1783170499519814100,6.563814208984375,-0.5132271647453308,-0.29545047879219055,0.16550521552562714
1783170499529883400,6.57388330078125,-0.5128822922706604,-0.26971420645713806,0.12379851192235947
1783170499539953200,6.583953125,-0.520168662071228,-0.2859673798084259,0.08008025586605072
1783170499550022400,6.5940224609375,-0.5431264638900757,-0.30017799139022827,0.051220379769802094
1783170499560091100,6.604091064453125,-0.575785219669342,-0.2953347861766815,0.04349059984087944
1783170499570161400,6.614161376953125,-0.6021518111228943,-0.2701234221458435,0.04661928117275238
1783170499580231200,6.624231201171875,-0.6149763464927673,-0.2071555256843567,0.059454724192619324
1783170499590300400,6.634300537109375,-0.6145627498626709,-0.13998021185398102,0.06566308438777924
1783170499600370200,6.6443701171875,-0.5942964553833008,-0.08411360532045364,0.07715557515621185
1783170499610439400,6.654439453125,-0.5625435709953308,-0.0694265365600586,0.08420709520578384
1783170499620509400,6.664509521484375,-0.5349544882774353,-0.0931401178240776,0.09067843109369278
1783170499630578200,6.674578125,-0.512328565120697,-0.12329935282468796,0.10125011950731277
1783170499640647200,6.684647216796875,-0.5004865527153015,-0.1396758109331131,0.11214689910411835
1783170499650717200,6.69471728515625,-0.5026868581771851,-0.13204318284988403,0.10519339144229889
1783170499660786400,6.704786376953125,-0.5184491872787476,-0.09821665287017822,0.08697667717933655
1783170499670856200,6.714856201171875,-0.5331887602806091,-0.05145687237381935,0.05460888519883156
1783170499680925400,6.724925537109375,-0.5411447882652283,-0.000960259698331356,0.020315246656537056
1783170499690995200,6.7349951171875,-0.5434116721153259,0.023451607674360275,0.00860319659113884
1783170499701064400,6.745064453125,-0.5340624451637268,0.024681979790329933,0.01997571624815464
1783170499711134200,6.75513427734375,-0.5185719132423401,0.015217105858027935,0.03711209446191788
1783170499721203200,6.765203125,-0.5072245597839355,0.012324905022978783,0.03554978221654892
1783170499731273200,6.775273193359375,-0.49676576256752014,0.0021641459316015244,0.003538584802299738
1783170499741342200,6.78534228515625,-0.4881002902984619,-0.00981663353741169,-0.030136901885271072
1783170499751412500,6.79541259765625,-0.4935573935508728,-0.022791286930441856,-0.07178288698196411
1783170499761481200,6.805481201171875,-0.5067330002784729,-0.0279824398458004,-0.10477408766746521
1783170499771551500,6.815551513671875,-0.5110792517662048,-0.04081754758954048,-0.12493261694908142
1783170499781620200,6.8256201171875,-0.5215280055999756,-0.0693911463022232,-0.11800409853458405
1783170499791690200,6.835690185546875,-0.545925498008728,-0.0884050503373146,-0.09052533656358719
1783170499801759200,6.84575927734375,-0.5321633815765381,-0.09939112514257431,-0.054836321622133255
1783170499811829200,6.855829345703125,-0.5038576722145081,-0.10297147929668427,-0.035033587366342545
1783170499821898200,6.865898193359375,-0.5013437271118164,-0.10870018601417542,-0.03983879089355469
1783170499831968300,6.87596826171875,-0.4975748360157013,-0.09072650969028473,-0.04953429475426674
1783170499842037200,6.886037353515625,-0.49734941124916077,-0.053171027451753616,-0.059646740555763245
1783170499852107300,6.896107177734375,-0.506858766078949,-0.02965851128101349,-0.08532094210386276
1783170499862176300,6.90617626953125,-0.5070011019706726,-0.010503844358026981,-0.11711839586496353
1783170499872246300,6.916246337890625,-0.503534197807312,0.0008113943040370941,-0.1432751566171646
1783170499882315300,6.926315185546875,-0.5062631964683533,0.0020878417417407036,-0.14850372076034546
1783170499892385300,6.93638525390625,-0.5060892701148987,-0.010083870030939579,-0.1165095716714859
1783170499902454300,6.946454345703125,-0.4874582886695862,-0.04571256786584854,-0.0723135694861412
1783170499912524300,6.956524169921875,-0.4561637341976166,-0.09091706573963165,-0.026565788313746452
1783170499922593300,6.96659326171875,-0.4173618257045746,-0.12293745577335358,0.005399284418672323
1783170499932663300,6.976663330078125,-0.3848472833633423,-0.1434278041124344,0.0247799064964056
1783170499942732300,6.986732177734375,-0.3673848509788513,-0.1424134373664856,0.02535027079284191
1783170499952802300,6.99680224609375,-0.36599257588386536,-0.12516999244689941,0.003198363585397601
1783170499962871300,7.006871337890625,-0.38299161195755005,-0.10468454658985138,-0.042960718274116516
1783170499972941000,7.016941162109375,-0.40568310022354126,-0.08947869390249252,-0.09835579991340637
1783170499983010300,7.02701025390625,-0.42179450392723083,-0.09175968170166016,-0.13221926987171173
1783170499993080300,7.037080322265625,-0.4259122908115387,-0.10168395191431046,-0.1242380365729332
1783170500003149300,7.0471494140625,-0.41626429557800293,-0.10276109725236893,-0.08723791688680649
1783170500013219300,7.05721923828125,-0.39059433341026306,-0.09879165142774582,-0.04080543667078018
1783170500023288300,7.067288330078125,-0.35030433535575867,-0.0920218899846077,-0.010967008769512177
1783170500033358300,7.0773583984375,-0.310825377702713,-0.07868771255016327,0.021692931652069092
1783170500043427300,7.08742724609375,-0.2749860882759094,-0.0715004950761795,0.035981111228466034
1783170500053497000,7.0974970703125,-0.2519683837890625,-0.046238284558057785,0.054214708507061005
1783170500063566000,7.107566162109375,-0.23049835860729218,-0.01267433911561966,0.06193210929632187
1783170500073636400,7.11763623046875,-0.22495445609092712,-0.06783080101013184,0.020315954461693764
1783170500083705000,7.127705078125,-0.24040871858596802,-0.1890174001455307,-0.042549435049295425
1783170500093775400,7.137775390625,-0.28227469325065613,-0.32192540168762207,-0.0966600775718689
1783170500103844000,7.147843994140625,-0.3290952444076538,-0.41490086913108826,-0.11391881108283997
1783170500113914400,7.157914306640625,-0.3525773882865906,-0.44772273302078247,-0.10203099250793457
1783170500123983000,7.167983154296875,-0.35622188448905945,-0.4241414964199066,-0.0799332931637764
1783170500134053000,7.17805322265625,-0.3576464056968689,-0.3601699769496918,-0.05291872099041939
1783170500144122000,7.1881220703125,-0.3655005693435669,-0.25742921233177185,-0.021742628887295723
1783170500154192100,7.198192138671875,-0.36530643701553345,-0.14154547452926636,0.002562442794442177
1783170500164261000,7.20826123046875,-0.3669518232345581,-0.021687258034944534,0.019979536533355713
1783170500174331100,7.2183310546875,-0.3713007867336273,0.06438584625720978,0.026065126061439514
1783170500184400100,7.228400146484375,-0.3697633445262909,0.1051708236336708,0.03650312125682831
1783170500194470100,7.23847021484375,-0.361612468957901,0.0988926887512207,0.06493476033210754
1783170500204539400,7.248539306640625,-0.3439677357673645,0.05281466990709305,0.10249532759189606
1783170500214609200,7.258609130859375,-0.32392770051956177,-0.007545074447989464,0.13537073135375977
1783170500224678400,7.268678466796875,-0.3178357779979706,-0.07636716961860657,0.15988846123218536
1783170500234748200,7.278748046875,-0.3316698372364044,-0.11985686421394348,0.17248281836509705
1783170500244817200,7.288817138671875,-0.3520791530609131,-0.12578383088111877,0.1657300889492035
1783170500254887200,7.29888720703125,-0.36061084270477295,-0.1257348358631134,0.1539732962846756
1783170500264956200,7.3089560546875,-0.3658890426158905,-0.1290811002254486,0.1523413360118866
1783170500275026200,7.319026123046875,-0.36533430218696594,-0.14796610176563263,0.15268807113170624
1783170500285095200,7.32909521484375,-0.37014704942703247,-0.1673150360584259,0.14255636930465698
1783170500295165200,7.339165283203125,-0.37929102778434753,-0.20031747221946716,0.11040537059307098
1783170500305234200,7.349234130859375,-0.40940138697624207,-0.23376210033893585,0.0832880288362503
1783170500315304200,7.35930419921875,-0.4485514461994171,-0.25493958592414856,0.07121006399393082
1783170500325373200,7.369373291015625,-0.48884332180023193,-0.2554435431957245,0.056515034288167953
1783170500335443200,7.379443115234375,-0.5158981084823608,-0.23176778852939606,0.03388429060578346
1783170500345512200,7.38951220703125,-0.5337643027305603,-0.21256880462169647,-0.002274614293128252
1783170500355581200,7.399581298828125,-0.5377963781356812,-0.20090122520923615,-0.035796355456113815
1783170500365651200,7.409651123046875,-0.5332116484642029,-0.19292372465133667,-0.055164214223623276
1783170500375720200,7.41972021484375,-0.5254815816879272,-0.18469081819057465,-0.04629482328891754
1783170500385790200,7.429790283203125,-0.5258093476295471,-0.17342965304851532,-0.02353106625378132
1783170500395859200,7.439859130859375,-0.5212864875793457,-0.1623157411813736,-0.006683908402919769
1783170500405929200,7.44992919921875,-0.5154353380203247,-0.12915432453155518,-0.006621569395065308
1783170500415998200,7.459998291015625,-0.5131929516792297,-0.09354893118143082,-0.021337930113077164
1783170500426068200,7.470068115234375,-0.5009604692459106,-0.05813874304294586,-0.04514261707663536
1783170500436137200,7.48013720703125,-0.4832181930541992,-0.026259368285536766,-0.049137357622385025
1783170500446207200,7.490207275390625,-0.46122071146965027,-0.0035864096134901047,-0.029574790969491005
1783170500456276200,7.500276123046875,-0.4425879120826721,0.00589071586728096,0.010556913912296295
1783170500466346200,7.51034619140625,-0.4285798668861389,0.006058213301002979,0.052537307143211365
1783170500476415200,7.520415283203125,-0.4114970266819,-0.008449357002973557,0.06858205795288086
1783170500486485200,7.5304853515625,-0.3970378637313843,-0.030172355473041534,0.05956916883587837
1783170500496554200,7.54055419921875,-0.38603475689888,-0.05805032700300217,0.047486938536167145
1783170500506624300,7.550624267578125,-0.380191832780838,-0.09114809334278107,0.052949901670217514
1783170500516693000,7.56069287109375,-0.3757275938987732,-0.11777837574481964,0.05462396517395973
1783170500526763300,7.57076318359375,-0.37314677238464355,-0.12805937230587006,0.050873711705207825
1783170500536832000,7.58083203125,-0.37378033995628357,-0.12175700068473816,0.03002595342695713
1783170500546902300,7.59090234375,-0.3755936622619629,-0.1197388619184494,-0.011790139600634575
1783170500556971000,7.600970947265625,-0.3794935941696167,-0.12040731310844421,-0.05406595766544342
1783170500567041300,7.611041259765625,-0.38156741857528687,-0.13123826682567596,-0.08598840236663818
1783170500577110300,7.6211103515625,-0.39046159386634827,-0.15074272453784943,-0.09708286076784134
1783170500587180000,7.631179931640625,-0.4062657058238983,-0.16596244275569916,-0.11279574036598206
1783170500597249300,7.641249267578125,-0.41905927658081055,-0.1663491278886795,-0.14476566016674042
1783170500607319000,7.651319091796875,-0.4359531104564667,-0.14407001435756683,-0.17729036509990692
1783170500617388300,7.66138818359375,-0.4497450888156891,-0.12546731531620026,-0.191351056098938
1783170500627458000,7.6714580078125,-0.45121631026268005,-0.09301219135522842,-0.20105192065238953
1783170500637527300,7.68152734375,-0.44152534008026123,-0.04671686142683029,-0.1808909922838211
1783170500647597000,7.69159716796875,-0.4190782904624939,0.0040942830964922905,-0.15549764037132263
1783170500657666300,7.701666259765625,-0.3895736634731293,0.04601483792066574,-0.12721779942512512
1783170500667736300,7.711736328125,-0.3666614890098572,0.0737762600183487,-0.09349830448627472
1783170500677805300,7.721805419921875,-0.35255151987075806,0.1009058877825737,-0.06415346264839172
1783170500687875300,7.731875244140625,-0.3520772159099579,0.07618296146392822,-0.054638251662254333
1783170500697944000,7.741944091796875,-0.3515688180923462,0.07500424981117249,-0.04685036838054657
1783170500708014300,7.752014404296875,-0.3458266258239746,0.05727120488882065,-0.05529509857296944
1783170500718083000,7.7620830078125,-0.33192384243011475,0.050686005502939224,-0.06459006667137146
1783170500728153300,7.7721533203125,-0.3163815438747406,0.02717709168791771,-0.06240690127015114
1783170500738222000,7.78222216796875,-0.29838496446609497,0.012812534347176552,-0.045115526765584946
1783170500748292000,7.7922919921875,-0.27961266040802,-0.002564717084169388,-0.00961623527109623
1783170500758361000,7.802361083984375,-0.2659898102283478,-0.026494815945625305,0.01715891994535923
1783170500768431000,7.81243115234375,-0.2623212933540344,-0.054770246148109436,0.017361989244818687
1783170500778500000,7.8225,-0.25942325592041016,-0.0793786495923996,0.012110501527786255
1783170500788570000,7.832570068359375,-0.2590714693069458,-0.08963222056627274,-0.0017138959374278784
1783170500798639400,7.842639404296875,-0.2717960476875305,-0.09041279554367065,-0.012789716012775898
1783170500808709000,7.852709228515625,-0.291353315114975,-0.08159280568361282,-0.01272558607161045
1783170500818778400,7.8627783203125,-0.307490736246109,-0.06653982400894165,-0.01530512422323227
1783170500828848000,7.87284814453125,-0.3147331476211548,-0.0627346932888031,-0.02565803937613964
1783170500838917400,7.88291748046875,-0.3237777650356293,-0.06190192699432373,-0.0306440107524395
1783170500848987100,7.892987060546875,-0.3389395475387573,-0.05954037234187126,-0.016122233122587204
1783170500859056000,7.90305615234375,-0.362014502286911,-0.04677238315343857,0.00785207562148571
1783170500869126100,7.913126220703125,-0.37079042196273804,-0.01656627655029297,0.011230561882257462
1783170500879195100,7.923195068359375,-0.37615829706192017,-0.00402598362416029,-0.012803933583199978
1783170500889265400,7.933265380859375,-0.37722888588905334,-0.04169253632426262,-0.06973585486412048
1783170500899334100,7.943334228515625,-0.37491193413734436,-0.09447213262319565,-0.12717224657535553
1783170500909404200,7.953404052734375,-0.3700937330722809,-0.15712951123714447,-0.14498008787631989
1783170500919473200,7.96347314453125,-0.37738120555877686,-0.21011336147785187,-0.11778547614812851
1783170500929542400,7.97354248046875,-0.39852216839790344,-0.2498253583908081,-0.08039096742868423
1783170500939612200,7.983612060546875,-0.40960386395454407,-0.2811891436576843,-0.04069948196411133
1783170500949681400,7.993681396484375,-0.3973037004470825,-0.3115081787109375,-0.013067939318716526
1783170500959751200,8.003751220703125,-0.3711698353290558,-0.3390953242778778,-0.006666500121355057
1783170500969820200,8.013820068359376,-0.34019213914871216,-0.32941925525665283,-0.021430283784866333
1783170500979890200,8.02389013671875,-0.31500715017318726,-0.2983311116695404,-0.034617193043231964
1783170500989959200,8.033959228515625,-0.3059162199497223,-0.2571004629135132,-0.04319702833890915
1783170501000029200,8.044029296875,-0.33150970935821533,-0.20679175853729248,-0.04994760826230049
1783170501010098200,8.05409814453125,-0.3672863841056824,-0.14425179362297058,-0.063592828810215
1783170501020168200,8.064168212890625,-0.40771105885505676,-0.0830313116312027,-0.08331619948148727
1783170501030237200,8.0742373046875,-0.43884530663490295,-0.02476814202964306,-0.11542186886072159
1783170501040307200,8.08430712890625,-0.4628278613090515,0.04128251224756241,-0.14199621975421906
1783170501050376000,8.0943759765625,-0.47826817631721497,0.11412366479635239,-0.14805284142494202
1783170501060445700,8.10444580078125,-0.4759698510169983,0.17639023065567017,-0.1465388387441635
1783170501070515000,8.114514892578125,-0.4524863362312317,0.21326586604118347,-0.13353461027145386
1783170501080585000,8.1245849609375,-0.4261775016784668,0.21243415772914886,-0.09930314123630524
1783170501090654000,8.134654052734374,-0.3983854353427887,0.1772640347480774,-0.04725462198257446
1783170501100724000,8.144723876953124,-0.36804136633872986,0.13089892268180847,0.02354498580098152
1783170501110793000,8.15479296875,-0.32653510570526123,0.07630506902933121,0.10057149827480316
1783170501120863000,8.164863037109376,-0.28365767002105713,0.027486931532621384,0.15413938462734222
1783170501130932000,8.174931884765625,-0.25002187490463257,0.0021922122687101364,0.16877762973308563
1783170501141002000,8.185001953125,-0.2339177429676056,0.01900900900363922,0.1649746298789978
1783170501151070700,8.19507080078125,-0.23358194530010223,0.05954926460981369,0.15130484104156494
1783170501161141000,8.20514111328125,-0.24336107075214386,0.09711341559886932,0.12424739450216293
1783170501171209700,8.215209716796876,-0.2387685626745224,0.10801973938941956,0.08171221613883972
1783170501181280000,8.225280029296876,-0.21924573183059692,0.07501891255378723,0.05107707530260086
1783170501191348700,8.2353486328125,-0.17161518335342407,0.0020099421963095665,0.033273596316576004
1783170501201418800,8.245418701171875,-0.12143697589635849,-0.09908151626586914,0.03197770565748215
1783170501211488000,8.255488037109375,-0.08400693535804749,-0.2132115662097931,0.04893169179558754
1783170501221557800,8.265557861328125,-0.0708293467760086,-0.2934856414794922,0.03892246633768082
1783170501231627000,8.275626953125,-0.09615395963191986,-0.3387536406517029,0.025579387322068214
1783170501241696800,8.28569677734375,-0.13505315780639648,-0.36108291149139404,0.0053654620423913
1783170501251766000,8.29576611328125,-0.1718798726797104,-0.40092581510543823,0.0010422149207442999
1783170501261835800,8.305835693359375,-0.1918376088142395,-0.41376039385795593,0.02785918116569519
1783170501271905000,8.315905029296875,-0.1923438012599945,-0.4106059670448303,0.08136007189750671
1783170501281974800,8.325974853515625,-0.17853504419326782,-0.3844177722930908,0.11371215432882309
1783170501292044000,8.3360439453125,-0.1565607786178589,-0.34882795810699463,0.10749880224466324
1783170501302114000,8.346114013671874,-0.1410614550113678,-0.3139522671699524,0.0651412308216095
1783170501312182800,8.356182861328126,-0.13117627799510956,-0.291150838136673,-0.0014312234707176685
1783170501322253000,8.366253173828126,-0.1417897790670395,-0.29014256596565247,-0.05973208323121071
1783170501332321800,8.37632177734375,-0.1813691109418869,-0.3243163824081421,-0.09266667068004608
1783170501342392000,8.38639208984375,-0.23407892882823944,-0.38558638095855713,-0.08277701586484909
1783170501352460800,8.396460693359375,-0.28930070996284485,-0.42382699251174927,-0.04869280010461807
1783170501362531000,8.406531005859375,-0.3439916670322418,-0.44774749875068665,-0.0034733875654637814
1783170501372599800,8.416599853515624,-0.38066819310188293,-0.43823671340942383,0.03850887715816498
1783170501382669800,8.426669921875,-0.35283362865448,-0.39175334572792053,0.05209765583276749
1783170501392738800,8.43673876953125,-0.2789575159549713,-0.3065125048160553,0.028617098927497864
1783170501402808800,8.446808837890625,-0.16904033720493317,-0.23425719141960144,-0.015798300504684448
1783170501412877800,8.4568779296875,-0.06407564878463745,-0.17951273918151855,-0.02588074654340744
1783170501422946800,8.46694677734375,0.006755908485502005,-0.20038393139839172,0.007345917169004679
1783170501433017000,8.47701708984375,0.019767822697758675,-0.24988381564617157,0.04991888999938965
1783170501443085800,8.4870859375,0.002357674529775977,-0.2693968117237091,0.10791055113077164
1783170501453156000,8.497156005859376,-0.06622583419084549,-0.2107393443584442,0.1427425593137741
1783170501463224800,8.507224853515625,-0.17084118723869324,-0.10557776689529419,0.13905034959316254
1783170501473294800,8.517294921875,-0.2825967073440552,-0.03314259648323059,0.07175065577030182
1783170501483363800,8.52736376953125,-0.3616848587989807,0.002447089646011591,-0.03303221985697746
1783170501493433900,8.537433837890624,-0.3702316880226135,0.030861692503094673,-0.12541969120502472
1783170501503502800,8.5475029296875,-0.30974435806274414,0.04661695286631584,-0.16487017273902893
1783170501513572900,8.55757275390625,-0.2264818549156189,0.025112334638834,-0.14337295293807983
1783170501523641900,8.567641845703125,-0.1596684753894806,-0.10232710838317871,-0.08114340156316757
1783170501533712000,8.5777119140625,-0.08641140162944794,-0.7280827760696411,0.015808269381523132
1783170501543780900,8.58778076171875,-0.17322246730327606,-0.4644140899181366,0.2265726923942566
1783170501553851000,8.597850830078125,-0.5811075568199158,0.08001484721899033,0.4151899218559265
1783170501563920000,8.607919921875,-0.8380786180496216,0.3721287250518799,0.22179940342903137
1783170501573990000,8.617989990234374,-0.922606348991394,0.6396368145942688,-0.06442341208457947
1783170501584059000,8.628058837890626,-0.8222083449363708,0.7535804510116577,-0.31992655992507935
1783170501594129000,8.63812890625,-0.5834914445877075,0.6488274335861206,-0.4789159893989563
1783170501604198000,8.648197998046875,-0.2907906472682953,0.3535151183605194,-0.4631383419036865
1783170501614268000,8.658267822265625,-0.03443680331110954,-0.011178429238498211,-0.25410231947898865
1783170501624337000,8.6683369140625,0.11117792129516602,-0.27980002760887146,0.05258011072874069
1783170501634407000,8.678406982421874,0.17022399604320526,-0.4561893045902252,0.26827728748321533
1783170501644476000,8.688475830078126,0.19227123260498047,-0.557404637336731,0.3329218029975891
1783170501654545700,8.698545654296876,0.19513416290283203,-0.5207509994506836,0.2885565459728241
1783170501664615000,8.708614990234375,0.20882892608642578,-0.33141010999679565,0.19926206767559052
1783170501674685000,8.718684814453125,0.25651687383651733,-0.16842344403266907,0.09236443787813187
1783170501684754000,8.72875390625,0.2912359833717346,-0.11580338329076767,-0.004827358294278383
1783170501694824000,8.738823974609375,0.29787740111351013,-0.11180400103330612,-0.06894323974847794
1783170501704893000,8.748892822265624,0.3000396192073822,-0.16250047087669373,-0.11514908820390701
1783170501714963000,8.758962890625,0.30324283242225647,-0.25490161776542664,-0.160439595580101
1783170501725032000,8.769031982421875,0.32216885685920715,-0.38036978244781494,-0.18888428807258606
1783170501735102000,8.77910205078125,0.3534387946128845,-0.5187023878097534,-0.18894031643867493
1783170501745171000,8.7891708984375,0.36640334129333496,-0.6382623314857483,-0.15648996829986572
1783170501755241000,8.799240966796875,0.3556639850139618,-0.6897002458572388,-0.09196726232767105
1783170501765309700,8.809309814453124,0.34314393997192383,-0.632226288318634,-0.004584423266351223
1783170501775380000,8.8193798828125,0.35078954696655273,-0.4945027530193329,0.05830807983875275
1783170501785448700,8.82944873046875,0.3926136791706085,-0.2997836172580719,0.08094149082899094
1783170501795519000,8.83951904296875,0.46649104356765747,-0.07177332788705826,0.06111007556319237
1783170501805588000,8.849587890625,0.5613925457000732,0.13582833111286163,0.03397459164261818
1783170501815657700,8.85965771484375,0.6533982753753662,0.27987349033355713,0.03245020657777786
1783170501825727000,8.86972705078125,0.7307937145233154,0.33881670236587524,0.08763516694307327
1783170501835796700,8.879796630859374,0.7809653878211975,0.34397605061531067,0.16862919926643372
1783170501845866000,8.889865966796876,0.8109336495399475,0.3174680173397064,0.2503834664821625
1783170501855935700,8.899935791015626,0.8272616863250732,0.29736167192459106,0.31920892000198364
1783170501866005000,8.9100048828125,0.8390935659408569,0.2947632372379303,0.3602146804332733
1783170501876073700,8.92007373046875,0.8630954623222351,0.31615495681762695,0.38947880268096924
1783170501886144000,8.93014404296875,0.8984135389328003,0.34964048862457275,0.39293691515922546
1783170501896212700,8.940212646484374,0.9266910552978516,0.39304399490356445,0.38374075293540955
1783170501906283000,8.950282958984374,0.9549520015716553,0.4376862943172455,0.36737507581710815
1783170501916351700,8.960351806640626,0.9792773127555847,0.4551433026790619,0.3497338891029358
1783170501926421800,8.970421875,0.9940208196640015,0.44082537293434143,0.33575764298439026
1783170501936491000,8.980490966796875,1.004175066947937,0.3965797424316406,0.3267711102962494
1783170501946560800,8.990560791015625,1.0102150440216064,0.32710587978363037,0.31718719005584717
1783170501956630000,9.000630126953125,1.0135327577590942,0.25041455030441284,0.3100467324256897
1783170501966699800,9.01069970703125,1.0137556791305542,0.18846780061721802,0.3046730160713196
1783170501976769000,9.02076904296875,1.013777256011963,0.17046017944812775,0.304772287607193
1783170501986838800,9.0308388671875,1.0168274641036987,0.19559723138809204,0.30167609453201294
1783170501996908000,9.040907958984375,1.0242648124694824,0.22365376353263855,0.2748096287250519
1783170502006977800,9.050977783203125,1.0391100645065308,0.2605372369289398,0.23374581336975098
1783170502017047000,9.061047119140625,1.0630613565444946,0.3020593822002411,0.19028407335281372
1783170502027117000,9.071116943359375,1.0873243808746338,0.32917487621307373,0.16473343968391418
1783170502037185800,9.081185791015624,1.1099317073822021,0.32599014043807983,0.16179496049880981
1783170502047256000,9.091256103515626,1.1394031047821045,0.30812403559684753,0.18284112215042114
1783170502057324800,9.10132470703125,1.180201768875122,0.3106943964958191,0.19861938059329987
1783170502067395000,9.11139501953125,1.2308564186096191,0.3065984547138214,0.19384832680225372
1783170502077463800,9.1214638671875,1.2710970640182495,0.3121594190597534,0.15571585297584534
1783170502087533800,9.131533935546875,1.2786577939987183,0.35527199506759644,0.05855362117290497
1783170502097602800,9.141602783203124,1.2511714696884155,0.34728050231933594,-0.0985569953918457
1783170502107672800,9.1516728515625,1.2053354978561401,0.3644182085990906,-0.26268598437309265
1783170502117741800,9.161741943359376,1.180283546447754,0.3726174235343933,-0.3709801137447357
1783170502127811800,9.171811767578125,1.1599810123443604,0.32519638538360596,-0.3849012553691864
1783170502137880800,9.181880859375,1.1479836702346802,0.2285502403974533,-0.3523636758327484
1783170502147950800,9.191950927734375,1.136116623878479,0.14923997223377228,-0.2909320294857025
1783170502158019800,9.202019775390625,1.1129955053329468,0.11090391874313354,-0.2655845582485199
1783170502168089900,9.21208984375,1.1200395822525024,0.168757364153862,-0.27686837315559387
1783170502178159000,9.2221591796875,1.1260026693344116,0.29308128356933594,-0.3645954430103302
1783170502188228900,9.232228759765626,1.137952208518982,0.4465771019458771,-0.48873257637023926
1783170502198297900,9.2422978515625,1.1705607175827026,0.5916323065757751,-0.558419942855835
1783170502208367900,9.252367919921875,1.2207826375961304,0.6757738590240479,-0.5632607340812683
1783170502218436900,9.262436767578125,1.2564419507980347,0.7093507647514343,-0.49642685055732727
1783170502228507000,9.2725068359375,1.3042715787887573,0.6710755228996277,-0.43259912729263306
1783170502238575900,9.282575927734374,1.3702428340911865,0.5826901197433472,-0.33796313405036926
1783170502248646000,9.29264599609375,1.4250682592391968,0.4890962243080139,-0.26035329699516296
1783170502258715000,9.30271484375,1.4899098873138428,0.41653838753700256,-0.19756567478179932
1783170502268783900,9.312783935546875,1.5614360570907593,0.34792232513427734,-0.15662702918052673
1783170502278852900,9.322852783203125,1.621421456336975,0.3032924234867096,-0.16472603380680084
1783170502288923000,9.3329228515625,1.6948457956314087,0.3318239152431488,-0.19195899367332458
1783170502298991900,9.342991943359374,1.7500675916671753,0.4043411314487457,-0.23903536796569824
1783170502309062000,9.353061767578126,1.7936797142028809,0.4779791235923767,-0.2730409801006317
1783170502319131000,9.363130859375,1.8297531604766846,0.5759316682815552,-0.26856496930122375
1783170502329201000,9.373200927734375,1.8701857328414917,0.6377667784690857,-0.2303193211555481
1783170502339270000,9.383269775390625,1.9091756343841553,0.6520660519599915,-0.15436634421348572
1783170502349340000,9.39333984375,1.9198884963989258,0.6559228897094727,-0.05303971469402313
1783170502359409000,9.403408935546874,1.9412965774536133,0.6601338386535645,0.05197883024811745
1783170502369479000,9.41347900390625,2.000075578689575,0.6083611845970154,0.09672605991363525
1783170502379548000,9.4235478515625,2.0677452087402344,0.4875800907611847,0.07449672371149063
1783170502389618000,9.433617919921875,2.0404067039489746,0.24237272143363953,0.15174835920333862
1783170502399687000,9.44368701171875,2.0007636547088623,0.03241976723074913,0.05166089907288551
1783170502409757000,9.4537568359375,2.01226806640625,0.3110644519329071,0.04013287276029587
1783170502419826000,9.463825927734375,1.9755991697311401,0.4675147831439972,0.07875387370586395
1783170502429896000,9.47389599609375,1.9714983701705933,0.4752802848815918,0.1813899725675583
1783170502439965000,9.48396484375,1.9848957061767578,0.4664795994758606,0.3472031056880951
1783170502450035000,9.494034912109376,2.014199733734131,0.38747504353523254,0.5709019899368286
