time,seconds_elapsed,z,y,x
1783174279647824600,0.08682470703125,0.24444997687637804,0.27585999127104877,-0.07651618038229643
1783174279657892600,0.096892578125,-0.0382633874207735,-0.41453459472879767,0.24678850282654166
1783174279667961900,0.1069619140625,0.4499982684284448,-0.27362536408677696,0.8385567103795707
1783174279678029800,0.11702978515625,0.4107236581385135,-0.27698928756192326,0.15641301617883144
1783174279688098600,0.1270986328125,-0.38838615412414074,-0.7171640811122953,-0.25516367859244343
1783174279698167800,0.137167724609375,-0.7462789703071117,-0.8930528551988303,-0.5149585971821099
1783174279708235800,0.14723583984375,-0.40612522443234916,-0.5066143280111253,-0.6981460769094526
1783174279718304500,0.157304443359375,-0.09028408203721046,-0.22666166059896348,-0.6578587093804031
1783174279728372700,0.167372802734375,0.0966173767119646,-0.2259751396395266,-0.33038302409723397
1783174279738441700,0.177441650390625,0.3750099552005529,-0.24375980265513061,-0.09656725395992398
1783174279748510700,0.1875107421875,0.6396475645810366,-0.14383637013509867,0.06593823387511075
1783174279758578700,0.19757861328125,0.8496990127712488,-0.11544263482168317,0.08706643516495824
1783174279768647700,0.207647705078125,0.86107322422266,-0.15628230247125027,0.050308337740600104
1783174279778716000,0.2177158203125,0.5327461097419262,-0.19626023872494697,-0.012271671747788785
1783174279788784600,0.22778466796875,0.2945148612499237,-0.19404870015531778,-0.03303235489949584
1783174279798853600,0.237853515625,-0.027074469408392903,-0.21158201875835655,0.10379691295251249
1783174279808921900,0.247921875,-0.31433716757297514,-0.1170962472476065,0.23685645300745964
1783174279818990600,0.257990478515625,-0.13592179761826992,-0.04474398161172866,0.21488595567457378
1783174279829058600,0.26805859375,0.45759763751626015,-0.000677607000619173,0.1727715188488364
1783174279839127800,0.2781279296875,0.8524661393970251,0.059046209339052434,0.22945772105827927
1783174279849196800,0.28819677734375,0.9436118066996335,0.022383827374130486,0.20395335051082072
1783174279859264800,0.2982646484375,0.8365829260885715,-0.1626706883341074,0.07982150553800166
1783174279869333800,0.308333740234375,0.5902168864578008,-0.3759057349964976,-0.06308240605257451
1783174279879401700,0.318401611328125,0.37413726401925085,-0.2922004468277097,-0.151078084891662
1783174279889470700,0.328470703125,0.18611644585132597,-0.039461657294631004,-0.09603168577849865
1783174279899539700,0.338539794921875,0.03828910638391971,0.18963629054054618,0.09904518838077783
1783174279909607700,0.348607666015625,0.23186814320087432,0.7887095604099332,0.3120361240889877
1783174279919676700,0.3586767578125,-0.2848626512855291,0.3552244737565517,0.5713235680805518
1783174279929744600,0.36874462890625,-0.6214812087714672,-0.2754134165473282,0.15654179365765303
1783174279939814000,0.37881396484375,0.3793406778812408,-0.19519480145052073,-0.1132792462427169
1783174279949882600,0.388882568359375,0.9590203882336616,-0.36035716046988964,-0.08505893126744776
1783174279959950600,0.39895068359375,0.9317354909449815,-0.5766619699664414,-0.04623422016948461
1783174279970019800,0.409019775390625,0.916215850251913,-0.3357717313982546,-0.038271570727229115
1783174279980087800,0.419087890625,0.6700000327467918,-0.05588073104545474,0.07000369321573525
1783174279990156500,0.429156494140625,0.10898352181017398,0.06490794097930193,0.1568069473998621
1783174280000224800,0.439224853515625,0.13780921880006788,0.07982157860323787,0.049157012281008064
1783174280010293800,0.449293701171875,0.6030909810781478,0.060538201462477445,0.05295717174895107
1783174280020362800,0.45936279296875,1.0868149934977291,0.03395385365858674,0.07715436868797987
1783174280030430700,0.4694306640625,1.3684417316019535,-0.03857873698025942,-0.020741759255528448
1783174280040499700,0.479499755859375,1.3963830469727516,-0.06984934290423989,-0.13108531737253068
1783174280050568000,0.48956787109375,1.3915280081570147,-0.09119754362031816,-0.1896054935434833
1783174280060636700,0.49963671875,1.340374159502983,-0.07606953259333968,-0.1720840480413288
1783174280070705700,0.50970556640625,1.1776789212495087,-0.021104308957606552,-0.14902100623138248
1783174280080774000,0.51977392578125,1.3244576284468172,0.17139657723382115,-0.135661904573068
1783174280090842600,0.529842529296875,1.7560954797983168,0.3025019144810736,-0.11968403525110334
1783174280100910600,0.53991064453125,2.127201997819543,0.39669703248217697,-0.008683730258420109
1783174280110979800,0.549979736328125,2.2284745068609713,0.4687288339920342,0.0671977324169129
1783174280121048600,0.560048583984375,2.2815315587878224,0.524545486825332,0.01769132217634469
1783174280131116800,0.57011669921875,2.1360352926164863,0.5324270338553935,-0.057221185868978494
1783174280141185800,0.580185791015625,1.9742869798243046,0.5337324904307723,-0.14486154846437274
1783174280151253800,0.590253662109375,2.1953443906754253,0.5630024971220642,-0.24363895275443792
1783174280161322800,0.60032275390625,2.5982488994956014,0.6597021452900022,-0.30824319807942957
1783174280171391700,0.610391845703125,2.9610727423399683,0.7075085832122713,-0.3153413031142205
1783174280181459700,0.620459716796875,3.208859754684567,0.7832545829396694,-0.15229555265633388
1783174280191528700,0.63052880859375,3.4600311487704514,0.9513923045080155,0.03367152958586812
1783174280201596700,0.6405966796875,3.3524984102904796,1.1196900389436633,0.0653263490544632
1783174280211666400,0.65066650390625,2.9102842198669907,1.2528924215354025,0.15423141608973964
1783174280221735200,0.660735107421875,2.5059125611037016,1.2437281412184238,0.06267568841520696
1783174280231803400,0.670803466796875,2.410852350705862,1.2099144266828894,-0.12698818425200878
1783174280241872400,0.680872314453125,2.5298791276246306,1.0681262212492526,-0.20449054439375175
1783174280251940400,0.6909404296875,2.6596938405394552,0.849126911971718,-0.2955987474964931
1783174280262009300,0.70100927734375,2.567550394371152,0.6143466807164252,-0.28057123770192266
1783174280272078300,0.711078369140625,2.1559493688762186,0.41211562395356593,-0.13989376998916267
1783174280282146300,0.721146240234375,1.4727192676782608,0.34395664528906345,0.1963650873389095
1783174280292215300,0.73121533203125,0.6703793874531984,0.43467064317613835,0.7188781915538013
1783174280302283300,0.741283203125,0.1715028140872717,0.6461748474579304,1.1165434114810078
1783174280312352500,0.7513525390625,0.1821241613447666,0.6199103792581707,1.280820000641793
1783174280322420500,0.76142041015625,0.13210194706916809,0.29912381635010243,1.2859465498752891
1783174280332489200,0.7714892578125,-0.40269817259311674,0.008320961360633372,1.285225980515778
1783174280342558500,0.781558349609375,-1.647473777037859,-0.30842429026737805,1.2531748917385934
1783174280352626400,0.79162646484375,-3.1417654095768928,-0.6558751343477517,1.2852604673072694
1783174280362695200,0.801695068359375,-4.4715895334929225,-0.894572100655362,1.3330737733617424
1783174280372763400,0.811763427734375,-5.142990080687404,-0.862746125870943,1.1864940958678722
1783174280382832400,0.821832275390625,-5.219520947182178,-0.9792261409163474,0.775588943682611
1783174280392901400,0.8319013671875,-5.622530085420609,-1.2931623264729977,0.06174133017454296
1783174280402969300,0.84196923828125,-6.651773179915547,-1.5729112880066036,-0.527804634751752
1783174280413038300,0.852038330078125,-7.030519399034977,-1.611102486974001,-0.6640411243423819
1783174280423106300,0.862106201171875,-5.751138929677009,-1.6245760087922214,-0.1295845208881423
1783174280433175300,0.87217529296875,-6.644732613754272,-1.5537312251098454,-0.13037262079222128
1783174280443244300,0.882244384765625,-7.96836840442419,-1.2623597764521837,-0.5975215103827417
1783174280453312500,0.8923125,-8.292538983747363,-0.8516483932733535,-0.6803997000776231
1783174280463381200,0.90238134765625,-7.519138197758793,-0.5895706975087524,-0.6844780554324388
1783174280473449200,0.91244921875,-5.95259498347938,-0.3317027283936739,-0.6665538378156721
1783174280483518500,0.9225185546875,-4.5344624615132805,-0.23199103892818093,-0.4655508615430444
1783174280493587200,0.932587158203125,-3.5384687256693836,-0.17252178187146783,-0.2914361113917082
1783174280503655400,0.942655517578125,-2.9869495263963937,-0.2895544623635709,-0.3103888318059966
1783174280513724400,0.952724365234375,-2.72729145899415,-0.29668782137483357,-0.4260065309336409
1783174280523792400,0.96279248046875,-3.725630881181359,0.2771739964790642,-0.25505766093470156
1783174280533861400,0.972861328125,-3.721799924716353,0.26094109295010565,-0.19507201532106846
1783174280543930400,0.982930419921875,-4.1748529045403,0.7659567535929381,0.0014488653677515685
1783174280553998300,0.992998291015625,-4.020143988865613,1.0119209344245492,-0.013264153383858501
1783174280564067300,1.0030673828125,-3.2782524398624897,0.8856408253766596,-0.21139435069914905
1783174280574135300,1.01313525390625,-2.1825258256345985,0.48209334247782826,-0.5279808681014925
1783174280584204500,1.02320458984375,-1.4828928711682556,0.0828739519111812,-0.6609309564325958
1783174280594273300,1.033273193359375,-1.7362275807678698,-0.0719319943971932,-0.33627683137618003
1783174280604341200,1.04334130859375,-2.210395829334855,-0.017687778512388466,0.4378727271530777
1783174280614410500,1.053410400390625,-2.9517005183607337,-0.08078238645941019,1.4218104798264801
1783174280624478500,1.063478515625,-3.7539819463968276,-0.19817220982611178,1.9808277797698974
1783174280634547200,1.073547119140625,-4.701721062159538,-0.36812209538295865,1.3643376572839916
1783174280644615400,1.083615478515625,-6.587428425776958,-0.4099094922114163,-0.24771606600023804
1783174280654684400,1.093684326171875,-9.755481538298726,-0.40059411298595365,-1.7743898459017275
1783174280664753400,1.10375341796875,-12.315035673218965,-0.09695581488609313,-2.7608921153008934
1783174280674821400,1.1138212890625,-12.912320013844965,0.4744176932834088,-3.122252899855375
1783174280684890400,1.123890380859375,-10.568618706870078,0.9561414717964828,-3.3033968179911373
1783174280694958300,1.133958251953125,-6.368330332300067,1.1125996422912925,-2.7955969334572552
1783174280705027300,1.14402734375,-3.4031910711735485,0.9807330383479594,-1.9296039346195757
1783174280715096300,1.154096435546875,-2.672165199577808,1.0822541153229772,-1.6185001960098742
1783174280725164300,1.164164306640625,-3.645148646712303,0.8160226608797907,-1.7014426831126213
1783174280735233300,1.1742333984375,-4.489133958011865,0.49747879886459556,-1.4634689165130257
1783174280745301200,1.18430126953125,-4.623465271568298,0.24840315321525558,-0.7240750295445323
1783174280755370500,1.19437060546875,-2.5786685852348805,0.6372665877286344,0.5957286356166005
1783174280765439200,1.204439208984375,1.113461008360982,1.4305132801115512,2.4370780943304298
1783174280775507500,1.214507568359375,3.8666169764518736,1.7071182445310056,3.750872289943695
1783174280785576400,1.224576416015625,5.794081414824724,1.4101038215503097,3.870080853170156
1783174280795644200,1.23464404296875,8.196355322277546,0.6688766547400504,3.1507711383312937
1783174280805713400,1.24471337890625,10.414506003522872,-0.37965639276690777,2.366833614628762
1783174280815782400,1.254782470703125,11.201849974668026,-0.9274760799348354,2.5091461361974474
1783174280825850400,1.264850341796875,11.487477765107155,-1.188844093060121,0.5047817057564854
1783174280835919400,1.27491943359375,11.22276767501235,-2.011515178978443,0.654410980079323
1783174280845987300,1.2849873046875,11.190253060376644,-1.710803216654062,2.303008646580577
1783174280856056600,1.295056640625,10.823668988215923,-0.47808330311886965,2.375342645907402
1783174280866124300,1.305124267578125,10.084074610239266,-0.45844303883183746,2.5192989891603585
1783174280876193300,1.315193359375,9.344325918483733,-0.5934326701665297,2.0782290003359316
1783174280886262500,1.325262451171875,9.366969711968302,-0.8931953324094414,1.2155926915150135
1783174280896330200,1.335330322265625,10.336325031733512,-1.4156808910302816,0.5852858597964048
1783174280906399200,1.345399169921875,11.228868914496898,-1.4232595095910132,0.23798677221164105
1783174280916467500,1.355467529296875,11.363842033088206,-1.2342504110381007,0.06652063687294721
1783174280926536400,1.365536376953125,10.727332766532898,-0.9109411247193813,-0.27643868620814754
1783174280936605200,1.375605224609375,10.008167428600787,-0.6417446099255234,-0.6041401248048991
1783174280946673400,1.38567333984375,9.483338667854666,-0.4904850675197318,-0.7102056402765214
1783174280956742400,1.395742431640625,8.705684316074848,-0.3341556379711255,-0.5756913348359987
1783174280966810000,1.40581005859375,7.704015457203984,0.039785007497482,-0.40832302673757076
1783174280976879400,1.41587939453125,7.108976265156269,0.3266690450754016,-0.24082716500302775
1783174280986948400,1.4259482421875,6.926433001616597,0.4084474568348378,-0.32966450056433677
1783174280997016300,1.436016357421875,7.251910571885109,0.3269905321147293,-0.658064534150809
1783174281007085300,1.446085205078125,7.787505056795477,0.6172313693072646,-0.8923646537389606
1783174281017153300,1.4561533203125,7.892154933315515,0.8476853348612785,-0.7794917232748121
1783174281027222300,1.46622216796875,7.703897968304156,0.8448146747957914,-0.7302412970893084
1783174281037290200,1.476290283203125,7.158741874322295,0.9293095789723098,-0.7598663277633487
1783174281047359200,1.486359130859375,5.833949314832687,1.2097300100266932,-0.6111874860331415
1783174281057428500,1.496428466796875,4.9626592325001955,1.460007085621357,-0.04121193502806127
1783174281067496200,1.50649609375,4.790985153499245,1.232602936092019,0.43869266523383554
1783174281077565400,1.5165654296875,5.077780818673968,0.813792198413983,0.6950191770605743
1783174281087633400,1.52663330078125,5.2519356085747475,0.5617601689107716,0.7526439752943813
1783174281097702100,1.5367021484375,4.8405122777342795,0.45880803621932864,1.0590811833977698
1783174281107771400,1.546771484375,3.922812910926342,0.08536796068400145,1.3182006138786673
1783174281117839400,1.55683935546875,2.142384953904152,-0.7671107459336519,1.2206988555476068
1783174281127908400,1.566908447265625,-0.8674509425610304,-1.7133645915746687,0.8731317646764218
1783174281137976300,1.576976318359375,-5.061089796113968,-2.2860095809847114,0.5901107957348227
1783174281148045300,1.58704541015625,-8.551345402756333,-1.998761349736899,1.1030259774558246
1783174281158114600,1.597114501953125,-10.340765060007572,-1.5036774466522038,1.7473083622306584
1783174281168182300,1.607182373046875,-11.243462087994812,-1.2362795787781475,1.6040106290169058
1783174281178251300,1.617251220703125,-13.165810790789127,-1.5163533883519469,0.847969704760611
1783174281188319500,1.627319580078125,-16.34862132745981,-1.6635888994060455,-0.6996321507487445
1783174281198388200,1.63738818359375,-21.42688905286789,-1.8382115990795194,-2.092554316677898
1783174281208455700,1.64745556640625,-27.99677948386669,-0.8977412322107702,-2.2001393698669967
1783174281218525000,1.65752490234375,-32.971505001735686,0.7497728768374771,-1.2259086991503834
1783174281228594000,1.667593994140625,-33.62172481373548,1.680652116279304,0.21161113525498657
1783174281238662000,1.677661865234375,-30.44469636759758,1.1578299461152404,0.47053672366421667
1783174281248731000,1.68773095703125,-26.444845809698105,0.027206644420698284,-0.10687573587596416
1783174281258798800,1.697798828125,-22.464048327314853,-0.8762354297801852,-0.6377016912102699
1783174281268867800,1.707867919921875,-17.7195659817934,-1.309750765441358,-0.06994356052633374
1783174281278936800,1.717936767578125,-13.16103173981905,-1.3896512544997035,0.9332254372417926
1783174281289004800,1.7280048828125,-9.393380164510011,-1.3847431703224777,1.391788704919815
1783174281299074000,1.738073974609375,-6.562475186306238,-1.4941881721645593,0.8423608519028872
1783174281309141800,1.748141845703125,-4.649173713320494,-1.587899598301947,0.13907598733287305
1783174281319210800,1.758210693359375,-2.736868265634775,-1.6500348596975207,-0.7842134910997003
1783174281329280000,1.768280029296875,-1.2756512197017669,-1.7547060712665319,-1.7700559083506464
1783174281339347700,1.77834765625,0.9323474853634833,-1.906983375880122,-2.2778286126166583
1783174281349416700,1.788416748046875,4.019520888531208,-2.0572174842283126,-1.973502551448345
1783174281359485000,1.79848486328125,5.990515256550908,-2.095502937350422,-1.3063707676142453
1783174281369554000,1.808553955078125,6.989898634833097,-1.4688045784525572,0.0034934681389480826
1783174281379621600,1.81862158203125,6.703008861634135,-0.2516380252169445,0.7875549835473299
1783174281389691000,1.82869091796875,6.551938010200858,0.9479396798361093,1.0252237758509815
1783174281399760000,1.838759765625,7.379061618548631,0.853404297029972,0.7535043184507638
1783174281409827800,1.848827880859375,8.13280785599649,0.12681246235892177,-0.5343190216144547
1783174281419896800,1.858896728515625,9.491624265640974,-0.8229217727437614,-1.4310437337264417
1783174281429964800,1.86896484375,11.455748747891187,-1.1872954753786324,-1.6970915021657942
1783174281440033800,1.87903369140625,12.973051838183402,-1.5632555709108709,-1.2012438481669871
1783174281450102800,1.889102783203125,12.869052534526586,-1.528270912899822,-0.6094212800782174
1783174281460170800,1.899170654296875,11.512483611547946,-0.8492799105763434,0.17646854673586784
1783174281470240000,1.909239990234375,10.822560734713077,0.05724113267846405,1.240572015275061
1783174281480307700,1.9193076171875,11.053180339157581,0.6196033591356128,1.9270681325316428
1783174281490377000,1.929376953125,11.595876180505751,0.6590270955726504,1.6931728674173354
1783174281500445000,1.93944482421875,11.788487833595275,0.22003413221798837,1.1169289036672563
1783174281510513700,1.949513671875,11.417197191178799,-0.3229093272157013,0.4557162807490676
1783174281520583000,1.9595830078125,10.568527521455287,-0.647734278794378,-0.1707818794015795
1783174281530651000,1.96965087890625,9.46895007701814,-0.3671692516375333,-0.42968686341419815
1783174281540719900,1.979719970703125,9.272557736346124,0.23492533881440758,-0.09807933902330696
1783174281550787800,1.989787841796875,10.095897149980068,0.32423611884005366,0.3437221058808267
1783174281560856800,1.99985693359375,10.698450370919703,0.5550149324342608,0.4006039037276059
1783174281570925800,2.00992578125,10.196238515651226,0.6776962863378226,0.35257702798768875
1783174281580993800,2.019993896484375,9.303609877213836,0.6898301570501179,-0.05326894111186266
1783174281591062800,2.030062744140625,8.502368313619494,0.7617297835476696,-0.3421458695400506
1783174281601130800,2.040130859375,7.581725294575095,0.9173199390362947,-0.3685025460679084
1783174281611199700,2.05019970703125,7.028004785865545,1.1699630861751735,-0.44246034720428284
1783174281621267700,2.060267822265625,6.921840413129329,1.4992340573772787,-0.3597911240849644
1783174281631337000,2.0703369140625,7.445620541605353,1.604619554695487,-0.43092327334135766
1783174281641405700,2.08040576171875,8.511639999833703,1.9466892171941697,-0.3994881245054304
1783174281651473700,2.0904736328125,9.578971125182509,2.1309031904250384,-0.18538367459736763
1783174281661543000,2.10054296875,9.63055576646924,2.148550929187983,-0.3230747469104826
1783174281671611000,2.11061083984375,8.410178105700016,2.2967547007523477,-0.539136833692342
1783174281681679600,2.1206796875,6.624805678012967,2.523595809571445,-0.757253953307867
1783174281691748900,2.130748779296875,5.58004177378118,2.9550550894856453,-0.7332721892178058
1783174281701816800,2.14081689453125,4.1114153283745045,3.260719998042285,-0.11543722799420356
1783174281711885800,2.1508857421875,2.1082927146881816,3.4592437977850437,0.7857662004344165
1783174281721953800,2.160953857421875,-1.3070721938818692,2.50849819368273,1.6854741296082734
1783174281732022800,2.171022705078125,-4.399583450946212,0.7143877482667564,2.0683831674955786
1783174281742091000,2.181091064453125,-7.010089189946651,-0.2943805673457682,2.1608673899255693
1783174281752159700,2.19115966796875,-9.563948328095673,-1.0919242993354796,2.450831894394755
1783174281762228700,2.201228759765625,-12.318621130490301,-2.1708103995300827,2.4397610498040914
1783174281772297000,2.211296875,-18.10415566624403,-3.718521925958991,1.549900853166729
1783174281782365700,2.22136572265625,-24.287719213736057,-3.1868694566726683,0.8142056745857
1783174281792433700,2.23143359375,-30.4001932090044,-3.6657618111521004,-0.49039720657318825
1783174281802503000,2.2415029296875,-34.52103278380632,-4.205267916548252,-1.2045456661913543
1783174281812571600,2.251571533203125,-36.417782934963704,-4.538725964176654,-1.261868485803902
1783174281822639900,2.261639892578125,-35.85692015328407,-4.886165483145415,-1.418028623200208
1783174281832708900,2.271708984375,-33.1387600952506,-4.993448338517546,-1.7215360614620148
1783174281842776800,2.28177685546875,-29.21483893082142,-4.98374293706119,-1.9569275564834474
1783174281852845800,2.291845703125,-24.611523297834395,-4.308585667681694,-2.213428328898549
1783174281862914800,2.301914794921875,-19.30933926501274,-3.602597791230678,-2.4201192146144805
1783174281872982800,2.311982666015625,-13.400325649106502,-2.983722381043434,-3.0445915680259463
1783174281883051800,2.3220517578125,-7.34118635366261,-2.570160869130492,-3.353804816713929
1783174281893119700,2.33211962890625,-4.827358197128772,-1.9464954481877386,-2.6341107787325977
1783174281903189000,2.34218896484375,-4.18544677926898,-0.07856938658505677,-1.5765841313004494
1783174281913257000,2.352257080078125,-2.284292840194702,1.209419775033742,-0.6487585072755814
1783174281923325700,2.36232568359375,0.5299415737152099,1.3387933200523257,-0.5484322661083191
1783174281933395000,2.37239501953125,4.203888444888592,1.4927876577168702,-1.4791481316819786
1783174281943463000,2.382462890625,8.171546459713579,1.0671231816865503,-2.822718749138713
1783174281953531600,2.39253173828125,12.110002929973602,1.0001064318597317,-3.0075676592722536
1783174281963600000,2.402599853515625,14.331553190529347,1.3073910505726933,-2.2813737378776073
1783174281973668900,2.4126689453125,15.486570782637596,1.6880322896584867,-1.1814828435771167
1783174281983736800,2.42273681640625,15.653450613099336,1.9114765956461428,-0.5187321243714541
1783174281993805800,2.432805908203125,15.32469913572669,1.8929200714752077,-0.697861999271065
1783174282003874800,2.442874755859375,15.330289503079651,1.8177070095807313,-1.0912345635056495
1783174282013942800,2.45294287109375,15.069772773021459,1.6055264404073357,-1.0415229495491831
1783174282024011800,2.46301171875,14.607721078705787,1.5927368092000485,-0.6593015285998582
1783174282034079700,2.473079833984375,13.898983611285686,1.7895915066868067,-0.44330162033401427
1783174282044149000,2.48314892578125,12.908740401792526,1.7622095787644385,-0.1680923480566591
1783174282054217700,2.4932177734375,11.879998242557049,1.7883428217999635,0.15100976889580486
1783174282064285700,2.50328564453125,10.873532212537526,1.7844919915907085,0.35834414014704524
1783174282074355000,2.51335498046875,9.760341837811469,1.7842631512708962,0.3813441266581416
1783174282084423000,2.5234228515625,8.814812214791774,2.076374604640901,0.44213900629542763
1783174282094491600,2.53349169921875,8.03579008179009,2.470164955896139,0.6118958534982055
1783174282104559900,2.543559814453125,7.488705065572262,2.909666964751482,0.8187232981406152
1783174282114628900,2.55362890625,7.070800556018948,3.0865783598840233,0.7184909458018839
1783174282124697900,2.56369775390625,6.771271081477403,2.881555553510785,0.22457214097380637
1783174282134765800,2.573765869140625,6.7732876819968215,2.4322967052727935,-0.610584259442985
1783174282144834800,2.583834716796875,6.704961749267578,2.137141354162246,-1.1605024532601236
1783174282154903000,2.593903076171875,6.911331294074654,2.096131152251363,-1.1575720988966525
1783174282164971800,2.6039716796875,7.211319618299603,2.2759825463585552,-0.7537634808436036
1783174282175040800,2.614040771484375,7.329820910039544,2.5542218339815737,-0.2733591143660247
1783174282185109000,2.62410888671875,7.7033298130273815,2.7570892158865927,0.16528627765998244
1783174282195177700,2.634177734375,8.410389702624082,2.945617106793821,0.03169029264077544
1783174282205245700,2.64424560546875,8.961506166315079,2.7072902889728545,-0.650050739043206
1783174282215315200,2.654315185546875,9.47454979672134,2.3315718932420015,-1.255964230196178
1783174282225383200,2.664383056640625,9.93986487674713,2.3285180586293337,-1.2845438434705136
1783174282235452200,2.6744521484375,10.542516297364234,2.515352881883085,-1.1187664212927222
1783174282245521400,2.684521484375,10.69387005739212,2.5002833230450747,-1.2005584231860935
1783174282255589000,2.694589111328125,9.909460386133194,2.413800679117441,-1.4913905042700468
1783174282265658000,2.704658203125,9.018630906072259,2.3968211950048803,-1.662325747602433
1783174282275726300,2.714726318359375,8.481631815060974,2.331145484523475,-1.525056480897963
1783174282285795300,2.72479541015625,7.942921828478574,1.9937989050239324,-1.0990073894642294
1783174282295864000,2.734864013671875,7.421331903523206,1.2358750896304844,-0.6945572586372494
1783174282305932300,2.744932373046875,5.965369124856591,0.0553194439008832,-0.2665999954946339
1783174282316001300,2.755001220703125,1.9568074372351167,-2.2287543467156588,0.07549158657491206
1783174282326069000,2.765069091796875,-2.278188678100705,-3.784611477938294,0.8586575413830578
1783174282336138200,2.77513818359375,-7.09345837802887,-4.570635014134645,2.6189386363029477
1783174282346206200,2.785206298828125,-13.81546010942459,-4.416177442872524,4.319929483994842
1783174282356275200,2.795275146484375,-20.95147635719776,-3.9239544821768995,5.157249492186308
1783174282366344200,2.80534423828125,-27.38382177329063,-3.485143378195166,4.9546454373925926
1783174282376412200,2.815412109375,-30.500427022647855,-2.865033457776904,3.437589015337825
1783174282386481400,2.8254814453125,-30.74377985193729,-3.259980285590887,1.6309095957279205
1783174282396549000,2.835549072265625,-32.20034059649706,-3.8308945056855674,0.2890986814200878
1783174282406618000,2.8456181640625,-34.85190724468231,-3.106391021595895,0.038465595461986954
1783174282416687400,2.855687255859375,-35.00771506150961,-2.350595742663741,0.1400156062705442
1783174282426755000,2.865755126953125,-31.07706254299879,-1.9666613072514534,-0.40447310984376816
1783174282436824300,2.87582421875,-23.959856209635735,-2.2313892252638934,-2.7934739499539134
1783174282446892300,2.885892333984375,-16.850696404606104,-3.360938321855664,-6.1332221842646595
1783174282456961300,2.895961181640625,-11.95041676365137,-4.15730321932435,-6.559585310083627
1783174282467029000,2.906029052734375,-8.446091715124249,-2.817610320083797,-2.6387550974071026
1783174282477098200,2.91609814453125,-5.972876724007725,-0.6053108490847051,1.7069984175436197
1783174282487167200,2.926167236328125,-4.172366932943463,0.6278726633742451,3.8070746541589497
1783174282497235200,2.936235107421875,-1.2710627228677271,0.7211256782196461,3.997252650360763
1783174282507304200,2.94630419921875,2.0801853951007128,-0.2570429164677858,2.2498446271479127
1783174282517372200,2.9563720703125,5.87284807754755,-1.215428952320665,0.9903878786608576
1783174282527441200,2.966441162109375,8.44881324904263,-1.420854932667315,0.4845855611523613
1783174282537509000,2.976509033203125,9.080672059443593,-1.6526136241443454,0.6741569332305342
1783174282547578000,2.986578125,9.56153308364749,-1.352907185600698,1.1146486107103526
1783174282557647000,2.996647216796875,10.140333673077821,-0.8997270722657441,1.1270992192216216
1783174282567715000,3.006715087890625,10.31303534156084,-0.7480079860568046,0.6106378527937456
1783174282577784300,3.016784423828125,10.490484496831893,-0.6183573776625096,0.05436367754600942
1783174282587852300,3.026852294921875,10.724480299711226,-0.32456761581674215,-0.1127007157023996
1783174282597921000,3.036921142578125,10.686374148678778,-0.014800094246864319,-0.10263853669762611
1783174282607990300,3.046990234375,10.838540394133329,0.0818166979432106,-0.18737747876308858
1783174282618058200,3.057058349609375,11.248230617570876,0.10176175386309623,-0.23435681821145116
1783174282628127000,3.067126953125,11.447680007725953,0.28257921652346846,-0.1396610572118312
1783174282638195200,3.0771953125,11.406886225044726,0.3434305755883455,0.06826126999519765
1783174282648264200,3.08726416015625,11.124674380528926,0.49611792230755086,0.11190240493156015
1783174282658332200,3.097332275390625,10.906737732046842,0.7488964593291282,-0.024784385709837077
1783174282668401200,3.107401123046875,10.76104682008624,0.9645666241839528,-0.3562826045073569
1783174282678470100,3.11747021484375,10.44539330921769,1.162410478838533,-1.0193176205471157
1783174282688538400,3.127538330078125,10.012679937589168,1.1837032961055636,-1.6948035373590886
1783174282698607000,3.137607177734375,9.434173947191239,1.3124956802353263,-2.172799381390214
1783174282708675000,3.147675048828125,8.724375572541355,1.5788988379836082,-2.040721107457578
1783174282718744300,3.157744384765625,8.249828553789854,1.8781833978533744,-1.3027911555618048
1783174282728813000,3.16781298828125,7.814549715587496,2.1693723295509812,-0.7022975705657154
1783174282738881000,3.177881103515625,7.774356236886978,2.33621825774312,-0.38030930371768773
1783174282748950300,3.1879501953125,8.296753386572004,2.4673051825508474,-0.0673893825314939
1783174282759018200,3.198018310546875,9.234375012946128,2.340431783784926,0.0768731040611863
1783174282769087200,3.208087158203125,10.01243210030794,1.8774913239359854,-0.17348127455338835
1783174282779155200,3.2181552734375,10.062643699675798,1.459191677585244,-0.7864760292042047
1783174282789224200,3.22822412109375,9.209315975013375,1.2649120912835001,-1.075314306122437
1783174282799293200,3.238293212890625,8.537112294742464,1.5549793254747986,-0.6825423381295055
1783174282809361200,3.248361083984375,8.118450244820117,1.971309425318241,-0.39758872062489387
1783174282819430100,3.25843017578125,7.970735718077421,2.1157178962528707,-0.28456191477328535
1783174282829498400,3.268498291015625,7.579032402229308,2.028930424159765,-0.09164302236549556
1783174282839567000,3.278567138671875,6.789371386313438,1.8080322955235837,0.3891341960124671
1783174282849635000,3.288635009765625,6.288041574576496,1.2366386213488876,0.892667363012582
1783174282859704300,3.298704345703125,5.200182624983787,0.3533862254787236,1.1886970127396286
1783174282869773000,3.30877294921875,2.9456098002701996,-0.36630145582705737,1.5061010205373166
1783174282879841300,3.31884130859375,-0.01855097121298313,-1.1732507295437156,1.6651126018419862
1783174282889910300,3.32891015625,-4.286745007273555,-2.0361302725359796,1.3369950384587048
1783174282899978200,3.338978271484375,-10.118473723447321,-2.305531735317409,1.2058733345985413
1783174282910047200,3.349047119140625,-16.61927600517273,-2.603302675753832,1.5594816053301095
1783174282920116200,3.3591162109375,-21.189835031461715,-2.7887027900293466,1.761438594391942
1783174282930184200,3.36918408203125,-22.522397640430928,-2.5181696928694843,1.1614872995790093
1783174282940253200,3.379253173828125,-23.0895943013072,-2.9306527618959546,-0.9416530738472938
1783174282950321200,3.389321044921875,-25.442103184115886,-4.417470697553456,-4.523983737596869
1783174282960390100,3.39939013671875,-30.240721608972546,-5.090802212810516,-7.255662617895006
1783174282970458400,3.409458251953125,-36.090953365564346,-3.7108126667559143,-6.762619572988152
1783174282980527000,3.419527099609375,-39.95359091699123,-0.5516425333917141,-3.7854780316397547
1783174282990596400,3.429596435546875,-39.765762991046905,1.503688990959525,-0.8192255485743284
1783174283000664300,3.439664306640625,-34.90477140438556,1.7110858329877257,1.0203699060790241
1783174283010733000,3.449733154296875,-27.727324245071408,1.2294590851083398,1.998416189561039
1783174283020801300,3.45980126953125,-20.41081231393814,0.5669624137289822,2.322244092926383
1783174283030870300,3.469870361328125,-13.785469460308551,-0.23555085030160844,2.4702286687821147
1783174283040939000,3.47993896484375,-7.656404980245232,-0.9118241911642253,2.115544731643051
1783174283051007200,3.49000732421875,-1.4601771814912556,-1.602356139808148,1.2429381598845124
1783174283061076200,3.500076171875,3.7925317495435475,-2.057391964012384,0.16259407943394033
1783174283071144200,3.510144287109375,7.305598907452821,-1.6623434293895958,-0.492704241406545
1783174283081213200,3.520213134765625,9.319502442872524,-0.866981571483612,-0.6512267970852553
1783174283091281200,3.53028125,10.410807149004935,-0.0652474020667374,-0.716716191214323
1783174283101350400,3.540350341796875,10.797101299285888,0.6783256702825426,-0.814815988503769
1783174283111419100,3.550419189453125,10.354758514046669,1.4957780717045068,-0.6220970756474882
1783174283121487000,3.560487060546875,10.416714327222108,2.1657937404118477,-0.5713000045418739
1783174283131556400,3.570556396484375,11.90465103777647,2.0845386218741533,-1.0593097314566373
1783174283141624300,3.580624267578125,13.921959997725486,1.5936222137324512,-1.7433190003335475
1783174283151693000,3.590693115234375,15.321651438593863,1.156965072914213,-2.1675720021307465
1783174283161761300,3.60076123046875,15.930325772762298,0.7828300008520483,-2.1204417099043726
1783174283171830300,3.610830322265625,15.525369007587432,0.7566025036618113,-1.7426222502410411
1783174283181899300,3.620899169921875,14.252821599119901,1.0382961695224047,-1.066102021945268
1783174283191967200,3.63096728515625,12.623839756584166,1.4817678126610814,-0.045626390469446776
1783174283202036200,3.6410361328125,11.046109962379932,2.010957106704265,1.0925449885170906
1783174283212104400,3.6511044921875,10.143274987226723,2.3628575506046414,1.7644219941169021
1783174283222173400,3.66117333984375,9.791670457533002,2.4177707517921925,1.8072770932421087
1783174283232241400,3.671241455078125,9.867774623048305,2.191876860695332,1.1906654632683842
1783174283242310400,3.681310302734375,10.2452986068964,1.837599458530545,0.23819478893913326
1783174283252379400,3.69137939453125,10.476146174877881,1.6378629219971597,-0.3934718598905951
1783174283262447400,3.701447265625,10.213617520475387,1.7221948176316917,-0.5610205295246095
1783174283272516400,3.711516357421875,9.495276358407736,1.9895396401442587,-0.42727775644585486
1783174283282584300,3.721584228515625,8.781793157765268,2.2431892609119415,-0.24012743750214574
1783174283292653300,3.7316533203125,8.114512905371189,2.280999351607263,-0.2335867836870253
1783174283302722300,3.741722412109375,7.675857284212112,2.191302567938715,-0.514875448943302
1783174283312790300,3.751790283203125,7.7249512777268885,2.0769741779692468,-0.8317097670942545
1783174283322859300,3.761859375,8.21055628158748,1.719015456943214,-1.0760651244897395
1783174283332927200,3.77192724609375,8.802377680632471,1.4687982948422431,-1.2725197898082434
1783174283342996500,3.78199658203125,9.123311762252449,1.4228773784056306,-1.4329837618783114
1783174283353064200,3.792064208984375,9.353467256316542,1.3848046912513672,-1.3364109549604355
1783174283363133400,3.802133544921875,9.427318089947104,1.7302328703977166,-0.983410148602724
1783174283373202400,3.812202392578125,9.183858877673744,2.0184158982776106,-0.7012187623530626
1783174283383270100,3.822270263671875,9.257059138441086,1.981408794528246,-0.7246268182083964
1783174283393339400,3.83233935546875,9.14196210218668,1.956171915810555,-0.7333810564197599
1783174283403407400,3.842407470703125,8.707091260263324,1.6585590885452925,-0.8372612637415527
1783174283413476400,3.852476318359375,8.257475269150733,1.1022454946026206,-0.7604862132273614
1783174283423544300,3.86254443359375,7.564705770713091,0.5968778056517243,-0.35430122143179177
1783174283433613300,3.87261328125,5.536141841778159,-0.08204919152483343,0.29295506458729503
1783174283443682600,3.8826826171875,2.0894828002780677,-0.6639363487936556,1.1164293566472827
1783174283453750300,3.892750244140625,-1.6679945870190858,-1.4484272685952484,1.6354226892381905
1783174283463819300,3.9028193359375,-6.096241237869858,-2.5210528470903633,1.9512150240555404
1783174283473887500,3.912887451171875,-10.745611935067176,-3.6388966005802152,2.3450633891083297
1783174283483956200,3.922956298828125,-15.20243001588583,-4.87171288716197,2.652275380976498
1783174283494025200,3.933025146484375,-19.695645105731487,-5.612160667097569,2.2756062603920695
1783174283504093400,3.943093505859375,-24.657153414630887,-5.480208942154049,1.009385278467089
1783174283514162200,3.953162109375,-32.18473620012998,-4.2213463601678605,-0.9074761520225554
1783174283524230100,3.963230224609375,-41.2054778147459,-2.023847860198468,-2.2786448974356053
1783174283534299400,3.97329931640625,-47.83844517190456,-0.013100377656891942,-2.3253977346517143
1783174283544367400,3.983367431640625,-48.77290862650871,1.5278142551735043,-0.9722042794555426
1783174283554436400,3.993436279296875,-42.729541485214234,1.767035099224746,0.4144309882238507
1783174283564505300,4.00350537109375,-32.70936563891172,0.6809205090813338,1.027715154275298
1783174283574573300,4.0135732421875,-22.272956431138514,-0.5982002864271402,0.496340113690868
1783174283584642300,4.023642333984375,-12.216920166903734,-2.207746191608906,-0.1140158168889582
1783174283594710300,4.033710205078125,-3.7832133015781637,-2.741704015228152,0.13952650757934898
1783174283604779300,4.043779296875,1.9976871446341276,-2.182755396606773,0.1695701655242592
1783174283614847500,4.053847412109375,5.547289258736372,-1.0236603259265422,-0.12779849598789586
1783174283624916200,4.063916259765625,7.6759601600646965,0.35221082502380013,-0.561726705032587
1783174283634985500,4.0739853515625,8.328437395602464,1.7233461796239018,-0.5493671723382547
1783174283645053400,4.084053466796875,8.44536398537159,2.5695406914055345,-0.7079516508046537
1783174283655122200,4.0941220703125,8.398872283309698,2.6230878649368883,-1.2496873418837784
1783174283665190100,4.104190185546875,8.646830560567974,2.4813316620767116,-0.903914294822514
1783174283675259400,4.11425927734375,9.506161909559369,2.2579985613785682,-0.9686743517637252
1783174283685328100,4.124328125,10.132738395643234,2.104717924941331,-0.1694147557668388
1783174283695396400,4.134396240234375,10.845953300738334,1.9610490203276276,0.31858233086206017
1783174283705465300,4.14446533203125,11.342528026902675,1.462981425257027,0.6430364033017307
1783174283715533300,4.154533203125,11.46540388046503,1.1322324904568493,0.7575162575058638
1783174283725602300,4.164602294921875,11.318284397006034,0.9111892542615533,0.969856108894199
1783174283735670300,4.174670166015625,11.168020185780524,0.7172127425596118,1.087925000566244
1783174283745739300,4.1847392578125,10.927409933197497,0.4915170043833553,1.1464462361831218
1783174283755808300,4.194808349609375,10.138217703837155,0.4748341651298105,1.3808769964136183
1783174283765876200,4.204876220703125,9.35141967613697,0.46861529061496254,1.2791881616562604
1783174283775945500,4.214945556640625,8.728173795780538,0.2465625851161778,0.8072587780572473
1783174283786013400,4.225013427734375,8.11359637504816,0.23197058066204188,0.5851645715042948
1783174283796082200,4.235082275390625,7.780420066970587,0.37120340252444145,0.6361205594986676
1783174283806150400,4.245150390625,7.625370375034213,0.43906127935051914,0.3422688748652115
1783174283816219400,4.255219482421875,7.521290991878509,0.3229172182612121,-0.19829554394483564
1783174283826288000,4.2652880859375,7.628514518278837,0.3621650866746902,-0.5809428256234154
1783174283836356400,4.2753564453125,7.816326077610253,0.4962023857206106,-0.738695748636499
1783174283846425300,4.28542529296875,7.87077136902511,0.6185257199667393,-0.7571665672853589
1783174283856493300,4.295493408203125,7.71707659882903,0.6399903866693377,-0.9001695553362369
1783174283866562300,4.305562255859375,7.479433379358053,0.6969111282870173,-0.9853171512678265
1783174283876630300,4.31563037109375,7.532749959003925,0.911864669305086,-0.8631441852778196
1783174283886699500,4.325699462890625,7.933686967143416,0.891275178001821,-0.7934002755094319
1783174283896768300,4.335768310546875,8.169604093474149,0.7690433214314282,-0.979972502304241
1783174283906836200,4.345836181640625,8.398371932572125,0.6811632317960262,-1.1267223487332463
1783174283916905500,4.355905517578125,8.701682094696164,0.7194402093507349,-1.2085825204920022
1783174283926973400,4.365973388671875,8.93395706513226,0.7875371556296944,-1.25419809730649
1783174283937042200,4.376042236328125,9.072399905660747,0.932663419444859,-1.2285479616127908
1783174283947111400,4.386111328125,8.875558067655563,1.2595201691120863,-1.0691852287828922
1783174283957179400,4.396179443359375,8.486134387177229,1.5953865930564701,-1.113117967076972
1783174283967248400,4.406248291015625,8.159186159834265,1.7024343244984745,-1.330962626426667
1783174283977316400,4.41631640625,7.895363958489894,1.6139055616959928,-1.5925919939018784
1783174283987385300,4.42638525390625,7.617070748722552,1.3864764238558709,-1.7218264227107167
1783174283997453600,4.43645361328125,6.88082801926136,1.16952177214846,-1.135891889747232
1783174284007522300,4.446522216796875,5.411886516556144,0.8031773539625108,0.18447028607949614
1783174284017591300,4.45659130859375,3.2713217638164758,-0.2271788163408637,1.4230408984042704
1783174284027659500,4.466659423828125,0.8651461727499962,-1.7549544930696486,2.3587074451878665
1783174284037728300,4.476728271484375,-1.6737240705817937,-3.2685470384061333,2.4248129253886637
1783174284047796200,4.486796142578125,-5.11507682236731,-4.53959222561717,1.6272202396906912
1783174284057865500,4.496865478515625,-10.624592523026466,-4.997529470351338,0.5980399082336575
1783174284067933400,4.506933349609375,-17.613309254598615,-4.878619305549561,0.37852000914812084
1783174284078002400,4.51700244140625,-24.368792399835584,-4.087106816548109,0.16660590889118612
1783174284088071400,4.527071533203125,-29.937530104792117,-2.935458116351068,0.17359540245234964
1783174284098139400,4.537139404296875,-32.78850288851261,-1.514554376105964,0.0609618337020278
1783174284108208400,4.54720849609375,-33.17174115835428,-0.5979843786541372,-1.4986914749331772
1783174284118276400,4.5572763671875,-33.62382207827568,-0.379456851606816,-3.7421155675143
1783174284128345300,4.567345458984375,-34.93956682343483,0.09990589686334132,-3.8627655617207286
1783174284138414300,4.577414306640625,-33.81771967952251,0.7768585252270102,-1.7484281600408256
1783174284148482300,4.587482421875,-29.057794265675543,0.9466278665851801,0.28810075642392036
1783174284158551300,4.59755126953125,-22.947861771583554,0.5564981567293406,1.1629325299512594
1783174284168619500,4.60761962890625,-17.082626507127284,-0.24059373983964322,1.1653241743281484
1783174284178688300,4.617688232421875,-11.964765606999396,-1.0280300654433667,0.6488795763719827
1783174284188756200,4.627756103515625,-7.191389175426959,-1.085214426433295,0.2790460008960217
1783174284198825500,4.637825439453125,-2.8748405660420655,-0.5462899203173815,0.4077805538913235
1783174284208894200,4.647894287109375,0.15199439601898193,0.27646146429553625,0.7083807629369199
1783174284218961700,4.657961669921875,2.40727507674098,0.95122754240036,0.39974282991886134
1783174284229031000,4.668031005859375,4.0483693818747994,1.0554305519357323,-0.20850140573661774
1783174284239099000,4.678098876953125,5.562867936140298,1.0731269521459936,-0.13459559051580727
1783174284249167600,4.688167724609375,6.933728419321775,1.3528575012400745,0.5655759643392637
1783174284259235800,4.69823583984375,7.9243696882218115,1.8049289226807652,1.3269561672642827
1783174284269304800,4.708304931640625,9.26012612479627,2.0513700733743607,1.742243772317469
1783174284279373600,4.71837353515625,10.815085868787765,1.8012110712014138,1.593217724584788
1783174284289441800,4.72844189453125,12.489287493753432,1.23681134756729,0.9610480946689843
1783174284299510800,4.7385107421875,14.200377126133441,0.6431244469113647,0.4189081336379051
1783174284309578800,4.748578857421875,15.126961225664616,0.4048552044965327,0.15368680608533322
1783174284319647700,4.758647705078125,14.75652398520708,0.4253004650235176,0.06736760909110308
1783174284329716700,4.768716796875,13.76003340575695,0.6088245562940836,0.106835476930812
1783174284339785000,4.778784912109375,12.759364663839339,0.794677090512216,0.20022629281170665
1783174284349853700,4.788853759765625,12.210355986082552,0.8449256608895956,0.21807642227895557
1783174284359921700,4.798921630859375,11.899939791345595,0.9529416528418659,0.20519684776589273
1783174284369991000,4.808990966796875,11.4769505258739,1.0929241240277885,0.09991729504019022
1783174284380059000,4.819058837890625,11.14469776238203,1.1167096348933876,-0.049418695424497124
1783174284390127600,4.829127685546875,10.742625028210878,1.2388158192574976,-0.06123940853439271
1783174284400196900,4.83919677734375,9.988983420181274,1.596722956226766,0.20389453299567104
1783174284410264800,4.849264892578125,9.667616792362928,2.0456131172828376,0.5005445065781474
1783174284420333800,4.859333740234375,9.717639591160417,2.262123093962669,0.6124990800883621
1783174284430401800,4.86940185546875,9.812786310797929,2.2357675864785906,0.38280879238322374
1783174284440470800,4.879470703125,9.717338562387228,2.1138238991998133,-0.08346673017255961
1783174284450538800,4.889538818359375,9.313267932397126,1.973475517310947,-0.5014822988849132
1783174284460607700,4.899607666015625,8.808052219137549,1.927179045560211,-0.5569584677174687
1783174284470676700,4.9096767578125,8.476260643416643,2.0011613966159523,-0.4655054880313575
1783174284480745000,4.919744873046875,8.304448032727837,1.9587854593098162,-0.3793797677826136
1783174284490813700,4.929813720703125,8.013581757113338,1.932917296951264,-0.3895728796906769
1783174284500881700,4.939881591796875,8.038353794798255,1.9049461709640918,-0.5609818780146539
1783174284510951000,4.949950927734375,8.243560725566745,1.823387539435178,-0.7889388391211628
1783174284521018600,4.9600185546875,8.719782984054088,1.772075577609986,-1.164035449691862
1783174284531087600,4.970087646484375,9.349065221965313,1.7410846654102206,-1.5942355233252048
1783174284541156900,4.980156982421875,9.442588724315167,1.7965556466110049,-1.9502051163606344
1783174284551224800,4.990224853515625,8.861629495546222,1.7954196283183992,-2.204119087152928
1783174284561293800,5.0002939453125,8.052970933693647,1.6448182940930127,-2.115220760385692
1783174284571361800,5.01036181640625,7.368669403871894,1.5031011080689727,-2.0205147702530026
1783174284581430800,5.0204306640625,7.016807684546708,1.1627921716324985,-1.7830308329969644
1783174284591499800,5.030499755859375,5.832801898363233,0.8101309724926948,-1.0688644723959266
1783174284601567700,5.040567626953125,4.0430782897293565,0.3878716287307441,-0.024956600471585988
1783174284611636700,5.05063671875,1.7769857076138258,-0.4744314295478165,1.320962041416019
1783174284621704700,5.06070458984375,-1.2868494900643825,-1.7793302249133587,2.7875486515581605
1783174284631773700,5.070773681640625,-5.733090062767267,-3.0024373106464743,3.8970579996839163
1783174284641841700,5.080841552734375,-11.105412046176195,-3.739105864304304,4.162717061066627
1783174284651910700,5.09091064453125,-16.54985584746599,-4.791921265305579,3.187879218237102
1783174284661979600,5.100979736328125,-20.558528009724615,-5.1785862947255366,1.1320721122633666
1783174284672047900,5.1110478515625,-23.704462229418752,-4.341756115877628,-0.9509670648332684
1783174284682116900,5.121116943359375,-28.508900154209137,-2.5378581436797973,-3.3070404351904985
1783174284692184600,5.1311845703125,-36.04472002217769,-0.3740005589623004,-5.2635389526069165
1783174284702253800,5.14125390625,-44.523322260284424,2.884142062872648,-5.2360623321384185
1783174284712321800,5.15132177734375,-48.77214173378944,5.358947538051009,-3.0808748875454066
1783174284722390500,5.161390625,-45.556953360605235,5.295742017075419,-0.8866304940011351
1783174284732459800,5.171459716796875,-36.84921620365381,3.6387320576682685,-0.5157496744945645
1783174284742527700,5.18152783203125,-27.071450937354562,1.8015540394201874,-0.7409996416646987
1783174284752596700,5.1915966796875,-18.295108446210623,0.05146430284269154,-0.7196002222180367
1783174284762664700,5.201664794921875,-11.434806497627497,-1.2205457838777451,-0.19686974892541764
1783174284772733700,5.211733642578125,-5.722030908614396,-1.7541167270712554,0.3577808071758598
1783174284782802000,5.221802001953125,-0.8871306255429983,-1.5670691378496586,1.0063512445334344
1783174284792870700,5.23187060546875,2.678928702363372,-1.0570552305281162,1.4628335412189364
1783174284802939600,5.241939697265625,5.3277872606337064,-0.5883097376622259,1.5376801078885793
1783174284813008000,5.2520078125,7.7521198551595205,-0.35292321107685565,0.9351647347413002
1783174284823076600,5.26207666015625,9.99204865297079,-0.369980874992162,0.14258028739308937
1783174284833144600,5.27214453125,11.546738932371138,-0.13755641308277844,0.30613899234179404
1783174284843213800,5.2822138671875,12.029803019577264,0.3597458967037499,1.2019893327720463
1783174284853282800,5.29228271484375,11.772296577250957,0.7603115873128176,1.8657927028357981
1783174284863350800,5.302350830078125,11.54742633011341,0.901447758578509,2.0246613685384394
1783174284873419800,5.312419677734375,12.062750180411339,0.916358619723469,1.6111641540333628
1783174284883487700,5.32248779296875,13.044342465937136,0.6471282757252454,0.5549878982968628
1783174284893556700,5.332556640625,13.637254582828282,0.07848273121491074,-0.589795848034136
1783174284903624700,5.342624755859375,13.581866457605361,-0.21029446316584943,-0.9599712592177092
1783174284913693700,5.352693603515625,12.994369351500271,0.014847148258984089,-0.49830695678442716
1783174284923762700,5.3627626953125,11.921053891044854,0.42917467610836024,0.3882310366276651
1783174284933830700,5.37283056640625,11.105564021867513,0.7577347225621343,1.3281728495776652
1783174284943900000,5.38289990234375,10.895278764921427,0.9679748251922428,1.5202452812239526
1783174284953967900,5.3929677734375,10.751733048295975,0.8328624442607164,0.8898020367093383
1783174284964036600,5.40303662109375,10.363834969949721,0.6372448873534798,-0.13747300911564378
1783174284974104600,5.4131044921875,9.882492884230613,0.5580421713009477,-1.4097519393727183
1783174284984173800,5.423173828125,9.2804768389076,0.3315557211384177,-2.180444781576842
1783174284994242600,5.43324267578125,8.185746249979735,0.5094429755657911,-2.1285840998277066
1783174285004310800,5.443310791015625,7.023660619181394,0.9160876938275992,-1.9104940143495797
1783174285014379800,5.4533798828125,6.2003048389345405,1.1720072322886437,-1.7273755812704563
1783174285024447700,5.46344775390625,5.882492104205489,1.4519380531951784,-1.3799462914347649
1783174285034516700,5.473516845703125,6.302122122377157,1.6771705577738583,-1.0255769732028246
1783174285044585700,5.483585693359375,7.368225167235732,1.725190053924918,-0.9125166304077953
1783174285054653700,5.49365380859375,8.484795832049846,1.568172422916442,-1.0327053637780248
1783174285064722700,5.50372265625,9.182401664602756,1.48516023157835,-0.9201206026054918
1783174285074790700,5.513790771484375,9.198260327991843,1.70255473600775,-0.5752202467255294
1783174285084860000,5.52385986328125,8.925175792783499,1.8943271617941557,-0.3486225182082504
1783174285094928000,5.533927978515625,8.912731321752071,1.905892365773022,-0.3459918774437159
1783174285104996600,5.54399658203125,9.123360277569294,1.877638477321714,-0.484970505349338
1783174285115065900,5.55406591796875,9.110849171042442,1.9112699671581386,-0.7117942246422171
1783174285125133800,5.5641337890625,9.092398153072596,1.9623891828902065,-0.8427407180659472
1783174285135202600,5.57420263671875,9.27187793738842,2.04587396017611,-0.8525435885474085
1783174285145270800,5.584270751953125,9.057915453234314,2.051391262292862,-0.7791855068698526
1783174285155339800,5.59433984375,8.474505324181914,1.94262752071321,-0.9575490735720843
1783174285165407700,5.60440771484375,7.5750564843356605,1.536453196442127,-1.2396850033074616
1783174285175476700,5.614476806640625,6.1483478572040795,0.8536459968313574,-0.7363969701748341
1783174285185545700,5.624545654296875,4.104718461084365,-0.005029518599808215,0.3746953362934291
1783174285195614000,5.634614013671875,1.175184766346216,-0.6163764329783618,1.732572711522132
1783174285205682700,5.6446826171875,-2.4320225645065308,-0.8777184348795563,2.6703298008441925
1783174285215750700,5.654750732421875,-5.988350771993399,-1.1379715455655008,2.443044601519406
1783174285225819600,5.664819580078125,-8.88203749280274,-2.166626684104651,1.7478071055330335
1783174285235888600,5.674888671875,-11.536488756513595,-3.230007756653428,0.7269820030324161
1783174285245956600,5.68495654296875,-15.281286694979666,-3.8210643088057634,0.2875794359635562
1783174285256025600,5.695025634765625,-20.308951191353795,-3.359563818632066,-0.3113410544969141
1783174285266093800,5.70509375,-26.023795987856385,-1.310028413338959,-0.7965178960733115
1783174285276162600,5.71516259765625,-32.04350402114391,0.48384168398249894,-0.7602406409684568
1783174285286230500,5.72523046875,-37.698940350866316,1.3587497741490602,-1.1739238064996897
1783174285296299800,5.7352998046875,-40.44181165630817,1.4218626484051347,-1.2981914066813884
1783174285306368500,5.745368408203125,-38.54296891678572,1.3736940991722046,-0.6304281930759549
1783174285316436500,5.7554365234375,-33.29125016583204,1.4247858423754571,0.39368524691294876
1783174285326505700,5.765505615234375,-27.747179284620284,0.40963410933613775,0.7374887839995324
1783174285336573700,5.77557373046875,-22.121829465603827,-0.6792167739033699,0.9182906837645918
1783174285346642700,5.785642578125,-15.689280635893343,-1.2666329237267375,0.6125497873622924
1783174285356710700,5.795710693359375,-9.231863906908035,-1.5895599327296017,0.24721717656739053
1783174285366779600,5.805779541015625,-4.080761831435561,-1.5365673243410884,-0.19247370592355728
1783174285376848600,5.8158486328125,-0.23063655557930468,-1.4897899372056125,-0.5758560238784178
1783174285386916600,5.82591650390625,2.890155039551854,-1.4674796134591102,-0.9171189365714788
1783174285396985600,5.835985595703125,5.325634466513991,-1.335896137306094,-0.7430345815584063
1783174285407053800,5.8460537109375,7.295410690915584,-0.8785133115842938,-0.10258139968290925
1783174285417122600,5.85612255859375,8.869014345100522,-0.16855360889285803,0.4988144679151475
1783174285427190500,5.8661904296875,9.899588980460166,0.19953034643679857,1.0534299527030437
1783174285437259800,5.876259765625,10.812158583164214,0.38114867715127765,1.4082336437642573
1783174285447328500,5.88632861328125,12.284492066395282,0.37161395608671005,1.2660115769580005
1783174285457396500,5.896396484375,14.192717551290988,0.16498809843100606,0.7519345849160105
1783174285467465700,5.9064658203125,15.644965693348645,-0.14003617413453756,0.31661369767021386
1783174285477533700,5.91653369140625,16.42956591874361,-0.4169097263623029,0.1105993503758218
1783174285487602700,5.926602783203125,17.064961086577178,-0.5267440928481519,0.11664190020938403
1783174285497671700,5.936671630859375,17.03545208349824,-0.3253676801532507,0.5745473889652639
1783174285507739600,5.94673974609375,16.12506508553028,0.15452508354038,1.3056550205603241
1783174285517808600,5.95680859375,14.575815535879133,0.46079197657816107,1.7642955912582576
1783174285527876600,5.966876708984375,13.165198211848734,0.545286369298026,1.7388940234981476
1783174285537945600,5.976945556640625,12.392655503994225,0.6507376983940601,1.463216695317626
1783174285548013600,5.987013671875,11.993996377658844,0.6607649522159248,1.0783358459006995
1783174285558082600,5.99708251953125,11.545378165411949,0.5762757836604491,0.7022220941767097
1783174285568151800,6.00715185546875,11.115392172920703,0.6486257477413863,0.7021780358392745
1783174285578219800,6.0172197265625,10.27373910396099,0.8941875583171844,0.9978549996711313
1783174285588288500,6.02728857421875,8.784044151562451,1.0886914548940956,1.3226428341098129
1783174285598356700,6.037356689453125,7.2230743535012,1.2767404762431978,1.531638928028196
1783174285608425700,6.04742578125,6.276613002589345,1.3549329923398792,1.6154574673131108
1783174285618493400,6.057493408203125,6.1286582373499865,1.2904198958970605,1.274729720942676
1783174285628562700,6.067562744140625,6.543264874401689,1.0317230016771703,0.5199560036106035
1783174285638631700,6.077631591796875,6.9303989826381205,0.6863616772219538,0.00821826817113906
1783174285648699600,6.08769970703125,7.099203643682599,0.45868678445983674,-0.16298384593650697
1783174285658768600,6.0977685546875,6.523633122214674,0.4132729772951454,0.166958686117921
1783174285668836600,6.107836669921875,5.600235251504182,0.7173695405565201,0.7267614190842956
1783174285678905600,6.117905517578125,4.8671255593717095,0.9645772186432033,1.040469641103968
1783174285688974600,6.127974609375,4.42261945861876,1.019803942759335,1.1536370975352823
1783174285699042600,6.13804248046875,4.796475567609072,0.8777801750041544,1.1366866203214974
1783174285709111800,6.14811181640625,5.868112281197309,0.5848412578340619,1.4835181634597479
1783174285719179500,6.158179443359375,5.907473400726914,0.09863426949232816,1.911699152355641
1783174285729248500,6.16824853515625,3.9079087717831134,-0.5182488343665376,1.5835761821448802
1783174285739316700,6.178316650390625,0.31578152116239067,-1.4835520657293497,1.3393993231214583
1783174285749385500,6.188385498046875,-3.5166841793626546,-2.171345675450563,1.519386910828948
1783174285759454700,6.198454833984375,-6.616297377386688,-2.019187321041524,1.2848594852909445
1783174285769522700,6.208522705078125,-8.923734946325421,-1.7839457558847962,0.432040367737785
1783174285779591700,6.218591796875,-11.165077702587842,-1.9657836476340889,-1.1364490121733397
1783174285789659600,6.22865966796875,-13.440248494172096,-2.695790113054216,-2.7170702169701455
1783174285799728600,6.238728759765625,-15.397467434817552,-2.973739331689477,-2.78047213730067
1783174285809796600,6.248796630859375,-16.350676506423948,-2.1939915147617457,-1.9782978229008614
1783174285819865600,6.258865478515625,-17.55303101924658,-0.9091133978355675,-1.9459388372182844
1783174285829934600,6.2689345703125,-20.644896964144706,0.1284741119608283,-3.163941293288767
1783174285840002600,6.27900244140625,-24.818256999778747,0.541215904988721,-5.49369269310534
1783174285850071600,6.289071533203125,-28.94979800133705,1.1607350929722189,-7.417153741055727
1783174285860139500,6.299139404296875,-31.258350838041302,2.3581869284451007,-7.272980247920751
1783174285870208800,6.309208740234375,-30.861638169598578,3.362035177181661,-5.4888563589900725
1783174285880276700,6.31927685546875,-28.216424105310438,3.833592950989306,-2.835696888655424
1783174285890345500,6.329345458984375,-24.677618695032596,3.8362142394036054,-0.8748476286835968
1783174285900414700,6.339414794921875,-20.759358040583134,3.167695677386224,0.08922631661258637
1783174285910482700,6.349482666015625,-16.452495543432235,2.2955590612269936,0.3913253859138116
1783174285920551400,6.359551513671875,-11.866311077988147,1.419014711628109,0.29243546115998176
1783174285930619600,6.36961962890625,-7.645790647250413,0.695543420130387,0.14053483523852192
1783174285940688600,6.379688720703125,-4.545276116472483,0.22038616052605212,0.2178718944164924
1783174285950757600,6.389757568359375,-1.8773399327665565,-0.2320901153884828,0.15793306535296142
1783174285960825600,6.39982568359375,0.6085194358676672,-0.621693244086951,-0.16998307544039562
1783174285970894600,6.40989453125,3.0361463957637547,-0.720148649881035,-0.27948083038302135
1783174285980962600,6.419962646484375,5.627358820751309,-0.650411169853434,-0.32512112151365724
1783174285991031600,6.430031494140625,8.288336271360516,-0.5162127619616687,-0.403146025958471
1783174286001099500,6.440099609375,10.891832423859833,-0.19427096460387108,-0.3686262455128133
1783174286011168800,6.450168701171875,12.924103975141048,-0.10086889667659997,-0.36728118757940825
1783174286021237500,6.460237548828125,14.242383207213878,-0.25754355946630236,-0.7140482141140848
1783174286031305500,6.470305419921875,15.047311934888363,-0.4859459262527525,-1.0863843469955026
1783174286041374700,6.480374755859375,15.174311005860567,-0.7533540232598781,-1.2487342789426445
1783174286051442700,6.490442626953125,14.934092382943629,-0.6881893310405314,-1.2112748283158987
1783174286061511400,6.500511474609375,14.81902106565237,-0.44356290161870415,-0.9958147260151803
1783174286071579600,6.51057958984375,14.923636455380915,-0.2904799797106534,-0.7157515109006315
1783174286081648600,6.520648681640625,15.259060834646224,-0.20081812122501433,-0.47172355882860717
1783174286091717600,6.530717529296875,15.53165729407668,-0.08131678559705614,-0.35077918478548525
1783174286101785600,6.54078564453125,15.309350759947298,0.14999825376570225,-0.2076013516243547
1783174286111854600,6.5508544921875,14.366861819797753,0.2760599708225578,0.058896425604820245
1783174286121922800,6.5609228515625,13.007518755930661,0.45628144035115836,0.20124854853153226
1783174286131991600,6.570991455078125,12.058852588450907,0.6661817165676504,0.12431516565047204
1783174286142060500,6.581060546875,11.66544597581625,0.6888306246187538,-0.1814396131467074
1783174286152128800,6.591128662109375,11.613683055353164,0.5751729004524648,-0.6648940148446708
1783174286162197500,6.601197509765625,11.649545811372995,0.4793302344400435,-0.9903139366418122
1783174286172265500,6.611265380859375,11.44269052887559,0.35401699766293165,-1.0352220227740705
1783174286182334700,6.621334716796875,10.714892971676587,0.37007315638549626,-0.9441579693403095
1783174286192402700,6.631402587890625,9.564761398044228,0.4005411406897008,-0.7100978690531105
1783174286202471700,6.6414716796875,8.832669943043589,0.5380594137191772,-0.6022352410316467
1783174286212541200,6.651541259765625,8.430099196222423,0.5880213491749018,-0.6969836090013385
1783174286222609400,6.661609375,8.197145595872401,0.6197645410466939,-0.9505261161327362
1783174286232678100,6.67167822265625,7.861730568957328,0.6073125442959368,-1.3029657814763487
1783174286242746000,6.68174609375,7.439833774897456,0.6216114110223948,-1.4223434176594019
1783174286252815400,6.6918154296875,7.320760820749402,0.7596265276581049,-1.3884686205863952
1783174286262883000,6.701883056640625,7.203122283318638,1.0681422225359827,-1.3005796169921755
1783174286272952300,6.711952392578125,6.857298090592026,1.1932384555615485,-1.2022698302138597
1783174286283021300,6.722021240234375,6.387988972494006,0.9918404155567287,-1.2796996183097362
1783174286293089000,6.732089111328125,5.845239939653873,0.8548369601815938,-1.0063481027282775
1783174286303158300,6.742158203125,4.849498132744431,0.734403823596239,-0.4685854069333523
1783174286313226200,6.752226318359375,3.287511266595125,0.44375893564745783,0.3307222659889608
1783174286323295200,6.762295166015625,1.798781359836459,0.2373159237453714,1.0123268848769367
1783174286333364200,6.7723642578125,-0.26117314814031123,-0.11011627043345942,1.1330956100922078
1783174286343432200,6.78243212890625,-2.922219572332501,-0.7656075748290866,1.29642162052989
1783174286353501400,6.79250146484375,-6.167019824448228,-1.358161598997563,1.735145923011005
1783174286363569200,6.802569091796875,-10.378175629991292,-1.93241197777763,1.9268471832573413
1783174286373638100,6.81263818359375,-14.15711081585884,-2.631223532858491,1.0755519873358308
1783174286383706000,6.8227060546875,-17.532907099628446,-2.737206411547959,0.04231328386608511
1783174286393775000,6.832775146484375,-20.94745250850916,-1.685120493865013,-1.0133728867985308
1783174286403844000,6.842843994140625,-23.904869066429136,-0.26093707436211405,-3.23439605474025
1783174286413912300,6.852912353515625,-29.379704498851297,0.47829665360860524,-6.6409443273872135
1783174286423981300,6.862981201171875,-37.98209912084341,1.219483780669421,-8.859346353045105
1783174286434049000,6.873049072265625,-45.8897053057909,3.4049329464048146,-7.550078694945573
1783174286444118300,6.8831181640625,-47.413960699439045,5.89246813929677,-3.587314881902933
1783174286454186200,6.893186279296875,-42.29586365246772,6.552003476652502,-0.041855977685796096
1783174286464255000,6.9032548828125,-34.660562835049625,5.412022125634551,0.7947472331389784
1783174286474324200,6.91332421875,-27.026014881825446,3.6374414333358405,-0.1521712047574576
1783174286484392200,6.92339208984375,-19.39115362486839,2.1286336380578574,-1.4211257124327121
1783174286494461200,6.933461181640625,-11.439121438217162,0.9236058874379843,-2.022419288700074
1783174286504529200,6.943529052734375,-4.476072816386819,0.4328322487678379,-1.9592190284214912
1783174286514598100,6.95359814453125,0.9124258103191852,0.3749585172742605,-1.695219570814073
1783174286524667100,6.963667236328125,5.221436425414681,0.6232265180688351,-1.0489316914357245
1783174286534735000,6.973735107421875,8.683229323160647,0.9300395006820559,-0.23264044274762272
1783174286544804000,6.98380419921875,11.517692870628833,1.0770712327923626,0.49884365747701376
1783174286554872300,6.993872314453125,13.365944071555138,1.631624758259952,1.6006106113150715
1783174286564941000,7.003941162109375,14.292586623275279,1.9554032695256172,2.543499364437163
1783174286575009000,7.014009033203125,15.287357539325951,1.9506364935152232,3.2136630633130667
1783174286585078300,7.024078369140625,16.477510742223263,1.8700848470717668,3.4180426033467053
1783174286595147000,7.03414697265625,17.18399663132429,1.4384572248533367,2.5664693211361764
1783174286605215200,7.04421533203125,17.310358573436737,0.6511408723674714,0.9282194456480443
1783174286615284200,7.0542841796875,16.290612206083534,0.15293416108712554,-0.16882468091920017
1783174286625352200,7.064352294921875,14.93785787295699,0.3420972811579704,-0.5148069502843543
1783174286635421200,7.074421142578125,13.72310565085411,0.5856431488014757,-0.44212727932501583
1783174286645489200,7.0844892578125,12.257254515379666,0.7120099132195115,-0.17269962265640496
1783174286655558100,7.09455810546875,11.11422312914133,1.002623383116722,-0.1135702650785446
1783174286665627100,7.104627197265625,10.748464401888846,1.0379381498649716,-0.07653598106130957
1783174286675695000,7.114695068359375,10.688856028622387,1.0642539098605512,-0.1134337792173028
1783174286685764400,7.124764404296875,11.264316659975051,0.9210654822401702,-0.3917243586361408
1783174286695832300,7.134832275390625,12.073091541683674,0.625027941467613,-0.7841137570522725
1783174286705901000,7.144901123046875,12.430276501858234,0.37805531424582,-1.2857429901272057
1783174286715969300,7.15496923828125,12.301959918546675,0.3074915394619107,-1.6601771912664174
1783174286726038300,7.165038330078125,12.208499544560908,0.4302301765106618,-1.7420540949642658
1783174286736107000,7.17510693359375,11.815076565313339,0.6763651838645338,-1.5256819193199276
1783174286746175200,7.18517529296875,11.135228507769106,0.9686045013979077,-1.0788277941361069
1783174286756244200,7.195244140625,10.754141278481482,1.2432054325185715,-0.8311267795745283
1783174286766312200,7.205312255859375,10.479867241227627,1.1590563461050392,-1.1196143433589487
1783174286776381200,7.215381103515625,10.254136577868461,0.9043728522449731,-1.6123299829423428
1783174286786450200,7.2254501953125,10.339679018336534,0.7494178528547286,-1.8672846949592232
1783174286796518400,7.235518310546875,10.46876132532358,0.718182172113657,-1.7836596324197946
1783174286806587100,7.245587158203125,10.354033706903458,0.8944830341324209,-1.5260817322924731
1783174286816655000,7.255655029296875,9.657866382721066,1.1271790795248,-1.2130971483722328
1783174286826724400,7.265724365234375,8.32757054964006,1.5603116264134644,-0.7628085917603225
1783174286836792300,7.275792236328125,7.148010636949539,1.9294149879187343,-0.24579898033253847
1783174286846861000,7.285861083984375,6.549280189168453,2.023512344633788,0.1413229990746826
1783174286856930300,7.295930419921875,6.433587525108456,1.8007409694716334,0.14415040452033281
1783174286866998300,7.305998291015625,6.672019264608621,1.4095096550494433,0.2795461324378848
1783174286877067300,7.3160673828125,6.399550230950116,1.1519226217675953,0.7186732435662299
1783174286887135200,7.32613525390625,4.834593409079313,0.8047484757367521,1.152260767680779
1783174286897204200,7.336204345703125,1.737223021546006,0.5958761543285102,1.665427951401472
1783174286907272200,7.346272216796875,-2.9534990922152993,0.56839091216214,2.4336083723932505
1783174286917341200,7.356341064453125,-8.6572064086318,0.7991716985177248,2.7983316191181538
1783174286927410200,7.36641015625,-13.860322164458035,-0.08228073525838553,1.7993249651938676
1783174286937478400,7.376478515625,-16.94570576159954,-1.8253961027786134,-1.3692787669479847
1783174286947547100,7.386547119140625,-18.707910664188862,-2.8050147501438856,-4.805557576470076
1783174286957615000,7.396614990234375,-21.601408584427833,-2.7901731548428534,-6.876399096903205
1783174286967684400,7.406684326171875,-26.813538836836813,-2.0934391366884113,-7.533748322391509
1783174286977753000,7.416753173828125,-33.474703529953956,-1.1852538134831934,-7.021565108206868
1783174286987821000,7.426821044921875,-38.96139774247408,0.2594095725338906,-5.63953674980104
1783174286997890300,7.436890380859375,-39.725884569644926,1.6005616576068102,-2.8154490503966807
1783174287007958300,7.446958251953125,-36.658940300035475,2.0764649132728574,-0.28233004580168053
1783174287018027300,7.45702734375,-31.129741993784904,1.1667016001611947,0.5241849829498678
1783174287028095200,7.46709521484375,-24.750583393478394,-0.3270875627484172,0.49385125601720065
1783174287038164200,7.477164306640625,-18.66473787741661,-1.0945803668022156,0.4482151113387197
1783174287048233200,7.487233154296875,-13.7046978875041,-1.6675919975675642,-0.24930052218008786
1783174287058301200,7.49730126953125,-9.69394599636197,-2.174252502807975,-1.1547687319137154
1783174287068370200,7.5073701171875,-6.472308593168854,-1.871288231512159,-1.0687754789382218
1783174287078438400,7.5174384765625,-3.7370880947411056,-1.0999890209127217,-0.15753814775124192
1783174287088507100,7.527507080078125,-1.9053584050267933,-0.33668672735132277,0.7254960753235965
1783174287098575000,7.5375751953125,0.05718786812126636,0.20463775257840752,1.1843193821772933
1783174287108644400,7.547644287109375,2.018484433469176,0.38765615934915837,1.6425281373292206
1783174287118713000,7.557713134765625,3.8032536345660684,0.5775232629708945,1.8871270211569964
1783174287128781300,7.56778125,5.450626873838901,0.9353259166523814,2.1676925597704946
1783174287138850300,7.577850341796875,7.3046917294800275,1.1392777327932417,2.5234733522355555
1783174287148918300,7.587918212890625,8.88785523917079,1.4174588604882359,2.1916588340304792
1783174287158987300,7.5979873046875,9.70536229338944,1.3514360901348292,1.298710023728013
1783174287169056300,7.60805615234375,10.794406653374432,1.2968741866029798,0.8391348025284707
1783174287179124200,7.618124267578125,11.845355968242883,1.6915148710772394,1.2706025580100715
1783174287189193200,7.628193115234375,12.573566197896003,1.730960454019904,1.6240569533541798
1783174287199261200,7.63826123046875,12.825789731383322,1.3739274695366621,1.3843236297361552
1783174287209330400,7.648330322265625,12.581569471609592,1.2449665969721972,1.1345151215013116
1783174287219398100,7.658398193359375,12.663355774414539,1.1343468522623181,1.1700107247091829
1783174287229467000,7.668466796875,13.028222521263361,0.976343571217358,1.1665238324414937
1783174287239536000,7.6785361328125,12.90617551974058,1.0487956439658999,1.1494349696703254
1783174287249604000,7.68860400390625,12.719008103531598,1.0682295354932545,1.2976996776416898
1783174287259672800,7.6986728515625,12.685041536521911,1.0580125312529505,1.2948136008113622
1783174287269741000,7.708740966796875,12.418591909283398,0.9945653104759752,1.0108815083742142
1783174287279810000,7.71881005859375,12.230125685435533,0.7498265067208558,0.7203158231414855
1783174287289878000,7.7288779296875,11.831306400102376,0.41354624127857387,0.34615747980158773
1783174287299947000,7.738947021484375,11.327601675927639,0.2675366187576204,-0.08676498626666143
1783174287310016000,7.74901611328125,10.911845284318924,0.22555231111757457,-0.24426154163219033
1783174287320084000,7.759083984375,10.526750572955608,0.19618045148700475,-0.2732849714175798
1783174287330153000,7.769153076171875,10.20887470986247,0.2800180607985705,-0.2516243802840821
1783174287340221000,7.779220947265625,10.057370143187045,0.2937326978962868,-0.26205230559501796
1783174287350290200,7.789290283203125,9.693724462565779,0.20910510725080966,-0.46647590396609157
1783174287360358000,7.79935791015625,9.092807318395376,0.07611885162778198,-0.6956077175382525
1783174287370427000,7.809427001953125,8.474443949383497,-0.007750979452952742,-0.8168138843227177
1783174287380496100,7.81949609375,8.373519815388322,0.14384024259261785,-0.5749811042074113
1783174287390563800,7.829563720703125,8.3273811645478,0.43343832490220663,-0.10820607116427272
1783174287400632800,7.8396328125,8.178755368179083,0.7282877518687397,0.19573073495812712
1783174287410701000,7.849701171875,8.360546936568618,1.081275991005823,0.052085028556920585
1783174287420770000,7.85977001953125,8.040522955530882,1.4339216272503137,0.19848383305855094
1783174287430837800,7.869837646484375,7.0176400437176225,1.9564729445837437,0.8927701657999306
1783174287440907000,7.879906982421875,4.962085816526413,2.0488412855491043,1.3349391288422048
1783174287450976000,7.88997607421875,3.628870881128311,0.9679618195801972,2.170602163606882
1783174287461044000,7.9000439453125,4.462707723379135,1.6580840183794499,1.7054158245272932
1783174287471113000,7.910113037109375,3.6898043655186887,2.0988445028632876,0.9625518502954393
1783174287481181000,7.920180908203125,1.0730015722006558,3.4780806002020834,-0.5236460537675768
1783174287491250000,7.93025,-3.074227412354946,0.15412534363307057,1.2584428952693938
1783174287501319000,7.94031884765625,-5.64404750522375,-2.4180906313963235,4.832814124447107
1783174287511387000,7.950386962890625,-9.290163535663485,-0.4273522099215537,4.589679321822524
1783174287521456000,7.9604560546875,-11.457047555530071,-0.9751016083322465,3.230755360150337
1783174287531523800,7.97052392578125,-12.536210572969912,-3.216173292568326,1.5563775018349288
1783174287541593000,7.980593017578125,-14.2530483936131,-4.7666097139164805,0.054555473791062827
1783174287551661000,7.9906611328125,-16.368527804934978,-6.502113948845863,-1.688571657232195
1783174287561729800,8.000729736328125,-20.744356870806214,-5.6806444207370275,-3.9784558876931664
1783174287571799000,8.010799072265625,-26.964410950827595,-2.9053330272004008,-4.908189975687861
1783174287581867000,8.020866943359374,-32.32768453538418,-0.3384469419568777,-4.917136667731404
1783174287591936000,8.03093603515625,-34.448965910983084,2.3243900189138946,-4.943267134287953
1783174287602004000,8.04100390625,-32.53060715460777,3.414062886060774,-3.806124221566319
1783174287612073000,8.051072998046875,-27.796323547017572,1.8766114723615348,-2.4038576695129272
1783174287622141000,8.061140869140624,-21.637716746127605,-0.3586335515476763,-2.4544226123631
1783174287632210000,8.0712099609375,-15.96431922777891,-1.7124562445580958,-2.4227497092485426
1783174287642279000,8.08127880859375,-11.577795749413966,-2.1098452048271894,-1.2888938553735614
1783174287652347000,8.091346923828125,-9.159732736676931,-1.9356445299580691,0.56222124708388
1783174287662416000,8.101415771484374,-8.407075463509559,-1.2581668548069893,2.10034234020561
1783174287672483800,8.11148388671875,-7.656972551000118,-0.603571019680053,2.165065280006826
1783174287682553000,8.121552978515625,-6.112019821760058,0.034483430490642786,1.9206386840060352
1783174287692621800,8.131621826171875,-2.647629893258214,0.9459517208892851,1.9906924634411929
1783174287702689800,8.141689697265624,1.5333604911237955,1.0675175147663802,2.1984882416591045
1783174287712759000,8.151759033203126,3.90802684520483,0.7707629117656498,1.9097554709419606
1783174287722827000,8.161826904296875,6.0668386177748435,0.3023154519982636,1.2722460874333976
1783174287732895700,8.171895751953125,8.005385006654262,-0.20380656245127318,1.1632017753466963
1783174287742964000,8.1819638671875,9.394970648571848,-0.24309447061419487,1.0540849094804376
1783174287753033000,8.192032958984376,9.821930571240186,0.22182488809227943,1.0714272355560213
1783174287763102000,8.20210205078125,9.443258001878856,0.12486132829114795,0.5877822066567838
1783174287773170000,8.212169921875,9.486847552758455,-0.17443477588593959,0.1775274812042713
1783174287783239000,8.222239013671874,9.72345032326579,-0.20985300300866364,0.15537738952077923
1783174287793307100,8.23230712890625,10.376556504356861,0.01175356615781784,0.4255613079167902
1783174287803375900,8.2423759765625,11.500882021081447,0.028436332346126435,0.9421567855857312
1783174287813443800,8.25244384765625,12.544040828204155,-0.08450126085206866,0.9490598429724574
1783174287823513000,8.26251318359375,13.622602957141398,-0.27086722448505457,0.5963704406514764
1783174287833581800,8.272581787109376,14.347486088198423,-0.20863968169614672,0.20380634325556457
1783174287843649800,8.28264990234375,14.305736027705668,0.02911393934674561,0.007242445408925414
1783174287853719000,8.292718994140625,13.692287318742274,0.1259067456908524,-0.14423457567244768
1783174287863787000,8.302787109375,12.260912453365325,0.08859642121121288,-0.5002691237028688
1783174287873856000,8.31285595703125,10.77322474913597,0.2889456097502261,-0.6432262998506426
1783174287883924000,8.322924072265625,9.822382991182803,0.7587775096133351,-0.5776555110484362
1783174287893993000,8.332992919921875,9.473324054318667,1.2195022661741821,-0.4815809359762817
1783174287904062000,8.34306201171875,9.878650237327813,1.236046062283218,-0.44157457734569905
1783174287914130000,8.3531298828125,10.407185451376437,0.956619829897955,-0.5946968814160675
1783174287924199000,8.363198974609375,10.727816750657558,0.8186008408047258,-0.7324637954443692
1783174287934267100,8.37326708984375,10.495893662399054,0.8053180192530155,-0.9217262842364609
1783174287944336000,8.3833359375,9.695656307411193,0.8215919123794883,-1.213347835197672
1783174287954405000,8.393405029296876,8.728681745302676,0.8004732095703482,-1.77376966817677
1783174287964473000,8.40347314453125,8.17167330096364,0.8403896979603916,-1.9468597514554857
1783174287974541800,8.413541748046875,7.687081858059764,1.0875530254486947,-1.7169786904186009
1783174287984609800,8.42360986328125,7.198993220689893,1.5829662335529922,-1.238474166212976
1783174287994679000,8.433678955078125,7.160561490964889,1.920554805114865,-0.43191549924910067
1783174288004747000,8.4437470703125,6.924922597053647,1.8450816309794782,0.1184133211955428
1783174288014816000,8.45381591796875,6.495798774349689,1.4041568958446382,0.4772304126165807
1783174288024885000,8.463885009765624,5.968891453763843,0.7806405279837548,0.9296776816323399
1783174288034953000,8.473952880859375,5.258537783318758,-0.45970805379897356,1.0571833869524299
1783174288045022000,8.48402197265625,4.364817842513323,-1.764347759836912,1.1306196484327315
1783174288055090000,8.49408984375,3.2240695987761017,-2.350574261484295,1.543217137619108
1783174288065159000,8.504158935546876,0.6284545549154281,-2.6950088995486494,2.99415492773056
1783174288075227100,8.51422705078125,-4.413746416333318,-2.681107799968123,3.999932390964031
1783174288085295900,8.5242958984375,-9.739746793550252,-1.9075535769835112,3.5962843703001734
1783174288095365000,8.534365234375,-14.563213243937492,-1.636282374807447,2.6051459655329583
1783174288105433000,8.54443310546875,-18.105595928180218,-1.9725022883646188,0.585449525925517
1783174288115501800,8.554501708984375,-20.31569891204834,-1.8832219765424727,-2.0841464076861738
1783174288125570000,8.564570068359375,-22.69380050127506,-0.8323799945060163,-4.1077316714257
1783174288135639000,8.57463916015625,-24.73012746542692,0.5463355860900133,-4.09664475248307
1783174288145707800,8.584707763671876,-27.535421032512186,1.9041754788525402,-2.2311657917715606
1783174288155776000,8.59477587890625,-30.421820518922804,3.3008804512560364,-0.4792119418226182
1783174288165845000,8.604844970703125,-30.78860099043846,4.3364962956532835,-0.3670609324248507
1783174288175913000,8.614912841796874,-28.519589890527723,4.083799883957207,-1.2295385800853371
1783174288185982000,8.62498193359375,-24.85398531576395,2.2471447205394504,-2.2298595314785836
1783174288196050000,8.6350498046875,-21.135474495720864,0.24150055248625574,-3.4252933051273224
1783174288206119200,8.645119140625,-16.71384346361756,-0.7375079270914197,-3.79733827304244
1783174288216188700,8.655188720703125,-12.376633758997917,-1.5473798102565108,-2.1226631853461266
1783174288226256600,8.665256591796876,-9.105767337733507,-1.8917991046212612,0.7284830552451312
1783174288236325400,8.675325439453125,-6.84662355184257,-1.4452879476562142,2.4934523079812525
1783174288246393600,8.6853935546875,-5.149019423979521,-1.236699411625415,3.044223026974499
1783174288256462600,8.695462646484375,-2.960717937552929,-1.4633999429300426,2.8620597026631236
1783174288266530600,8.705530517578126,-0.06535831509530544,-1.8630413583010434,2.024080792171508
1783174288276599600,8.715599609375,3.18442323256433,-2.0515125505849716,1.1625881004277616
1783174288286668500,8.72566845703125,6.266030233776569,-2.090699774852395,0.7632661993347107
1783174288296736500,8.735736572265624,7.763079640591144,-1.6959645439624786,2.0584365046292543
1783174288306805500,8.745805419921876,7.462666953474283,-1.140718871512264,0.8968455254800617
1783174288316873500,8.75587353515625,7.7053750551193945,-1.3378425951987505,-0.9771379364654421
1783174288326942700,8.765942626953125,9.998838459241389,-0.7119174856957048,1.5300053354769945
1783174288337011500,8.776011474609374,11.09719717553854,-0.09053571871072054,2.3824600766971704
1783174288347079400,8.786079345703126,11.231410415673254,0.263000180904381,1.770480709633976
1783174288357148700,8.796148681640625,11.159946769440173,0.2986740267559886,0.5759444693468511
1783174288367216600,8.806216552734375,10.98607722622156,-0.7034773549348116,-0.4796656769394874
1783174288377285400,8.816285400390624,10.655092875230311,-1.624269427061081,-1.2739726189650595
1783174288387353600,8.826353515625,10.775011048030853,-1.713044127448648,-1.1748962317284195
1783174288397422600,8.836422607421875,10.974545778381824,-1.0422101280957459,-0.31072350712046026
1783174288407491600,8.84649169921875,10.722420444571972,-0.28894575588069854,0.6772115715608
1783174288417559600,8.8565595703125,10.281132136821746,0.3724586632825434,1.330754390503466
1783174288427628500,8.866628662109376,10.166638327157496,0.6637010056678205,1.3572139428839087
1783174288437696800,8.87669677734375,10.234747986787557,0.5009696731876582,0.5769521850846707
1783174288447765500,8.886765625,9.584413023975491,-0.15448789333514867,-0.9657694241024554
1783174288457833500,8.89683349609375,8.458575933644175,-0.9347253934759646,-2.2246466191358865
1783174288467902700,8.90690283203125,7.8393901423335075,-1.0902468676425516,-2.5762732145309446
1783174288477971500,8.916971435546875,7.866494422358274,-0.4518571211028844,-2.112333514511585
1783174288488039400,8.927039306640625,7.830252896153926,0.6207341897964477,-1.0768845511138438
1783174288498108700,8.937108642578124,7.5966767799913875,1.4271720068596303,-0.1735606233999133
1783174288508176600,8.9471767578125,7.3164429575502865,1.9459379604354499,0.04186177723892033
1783174288518245600,8.95724560546875,7.2262716882377855,2.103555749294162,-0.5034920312721282
1783174288528313600,8.967313720703125,7.34823568765223,1.3874864776812492,-1.663734299226105
1783174288538382600,8.977382568359374,7.3995835975736375,0.8033342980898917,-2.6074232628151774
1783174288548451600,8.98745166015625,7.295163438156247,1.1313717089090496,-2.5093939734786748
1783174288558519600,8.99751953125,6.660628102022409,1.6437864668272435,-1.691957646408677
1783174288568588500,9.007588623046875,6.236795371463894,2.2645259173206984,-0.9229910434752702
1783174288578656800,9.01765673828125,6.219987444525957,2.3370148149482906,-0.505044594476372
1783174288588725500,9.0277255859375,5.464726710861921,1.9276129069328307,-0.5360666324667632
1783174288598794800,9.037794677734375,3.992479736870527,1.1812952120505273,-0.917448606917262
1783174288608862700,9.04786279296875,2.3573311883985997,0.1477566123187542,-1.066985088390112
1783174288618931500,9.057931396484374,1.071499935466051,-0.35183351614400743,-0.4595294823616743
1783174288628999400,9.06799951171875,0.08229542137086392,-0.9014004123054444,1.0402819365121423
1783174288639068700,9.078068603515625,0.14353227262198925,-1.405668177190423,1.2180590085633098
1783174288649136600,9.08813671875,-1.4842957237035035,-1.899203827919811,0.9909208164937794
1783174288659205600,9.09820556640625,-4.401895819541812,-2.3641372151516378,1.5706433430746196
1783174288669273600,9.108273681640625,-7.605010893094539,-2.6100036346971986,2.665843010818958
1783174288679342600,9.118342529296875,-10.417278975367546,-2.4504950636558234,3.733962071675062
1783174288689411600,9.12841162109375,-11.338595363628864,-2.0180488185308874,4.042409012165665
1783174288699479600,9.1384794921875,-10.555555811679362,-2.7314333811044693,3.446336969938874
1783174288709548500,9.148548583984375,-9.380534126940368,-2.894724247163534,1.8859905644729733
1783174288719616800,9.15861669921875,-9.157630795961618,-2.3341049188509584,0.1145997542567551
1783174288729685500,9.168685546875,-10.936745916819572,-1.350232705694437,-0.995877342922613
1783174288739754800,9.178754638671874,-14.166650213098524,0.5136055020727217,-0.6649413611177355
1783174288749822700,9.18882275390625,-16.47787080770731,2.710754750213027,0.5068695083485916
1783174288759891500,9.198891357421875,-16.74228980590105,4.117844484639168,1.9616862953178584
1783174288769959700,9.208959716796874,-15.720912622475623,4.088327882775664,2.9230446249797937
1783174288780028700,9.219028564453126,-14.549778592824936,2.9268177137777207,1.398697315264493
1783174288790096600,9.2290966796875,-12.912972340273857,1.7976745676383374,-0.28803843177743255
1783174288800165600,9.23916552734375,-10.919640468239784,1.4198707439355551,-0.7472296951606869
1783174288810234600,9.249234619140625,-8.80873844783604,1.309098146751523,-0.8456737027779221
1783174288820302600,9.259302490234376,-6.555501840162277,0.6142535956054925,-1.0558020155966281
1783174288830371600,9.26937158203125,-4.064667021203041,-0.14010755887031554,-1.3500346989043057
1783174288840439600,9.279439453125,-0.8130243558466435,-0.38699374991767105,-1.3270508598104118
1783174288850508800,9.2895087890625,2.374647064858675,-0.13571158893369137,-0.5156180109389126
1783174288860576500,9.299576416015626,4.534838309088349,0.15504128943420944,0.4504622326783836
1783174288870645500,9.3096455078125,4.992949156823754,0.3656900824630633,1.0792552257679402
1783174288880714800,9.31971484375,4.550380746135115,0.45348585481587794,0.9305196854144334
1783174288890782700,9.32978271484375,4.031735057938099,0.06898337372466921,0.21252240488100796
1783174288900851500,9.3398515625,3.983962083894014,-0.5221091630565002,-0.6087705976171419
1783174288910919700,9.349919677734375,4.394115248668194,-0.9349489000335335,-1.2603862844221294
1783174288920988700,9.35998876953125,5.101217223840951,-1.1893065229400992,-1.5348761563837527
1783174288931057700,9.3700576171875,5.684523307996988,-1.2353285616636276,-1.5093451170250773
1783174288941125600,9.380125732421876,5.831079896876216,-1.127323529496789,-1.2893943522416054
1783174288951194600,9.390194580078125,5.676317789709568,-0.9722091017611324,-1.0316484751362354
1783174288961262600,9.4002626953125,5.756104443129897,-0.6814407335631549,-0.7057691191338002
1783174288971331600,9.41033154296875,5.976534661993384,-0.47750148464292286,-0.47943230657503005
1783174288981399600,9.420399658203126,6.10657032418251,-0.4558332581922412,-0.43214883308093993
1783174288991468500,9.430468505859375,5.845290208536386,-0.33177140971571206,-0.4502884835466742
1783174289001537500,9.44053759765625,5.4925008529722685,-0.26091829659640786,-0.6326264337725938
1783174289011605500,9.45060546875,5.512173521691561,-0.45447570610344407,-1.0526884136207402
1783174289021674800,9.4606748046875,5.862596732646226,-0.757777977181971,-1.2892745252542197
1783174289031742500,9.470742431640625,6.108084820398688,-0.9992116749770938,-1.1882141976587475
1783174289041811500,9.4808115234375,6.36979689772129,-1.11996834442839,-0.6202220024906099
1783174289051879700,9.490879638671874,6.600441052085161,-1.145437862858176,0.06578775602113456
1783174289061948400,9.500948486328125,6.269475405794382,-1.0988424081608652,0.795938927141577
1783174289072017700,9.511017578125,5.0597769599497315,-1.0844118778787553,1.2061943101812154
1783174289082085600,9.521085693359375,3.2602100026935337,-1.0727765312731266,1.2304090793095528
1783174289092154600,9.531154541015624,1.0431804344326256,-0.891699394763261,1.015317225799337
1783174289102222600,9.54122265625,-1.0939812318652868,-0.6637713674902915,0.7975644094515592
1783174289112291600,9.55129150390625,-2.4654876117348667,-0.26252412435784933,0.799253531582281
1783174289122360600,9.561360595703125,-3.037160541242361,-0.002212561482936144,0.8154964450486004
1783174289132428500,9.571428466796876,-3.3470828149825333,0.07773805032745003,0.750892966908589
1783174289142497500,9.58149755859375,-3.678040277966857,0.36266558354273437,0.8627799550753086
1783174289152565500,9.5915654296875,-4.159324496018886,0.6230640940487384,1.1092571999955922
1783174289162634500,9.601634521484375,-4.5838241660535335,0.7046602811090648,1.3215059390343724
1783174289172702500,9.611702392578126,-4.840564300182462,0.678796064273268,1.337882634948194
1783174289182771700,9.621771728515625,-4.383317375800013,0.7716045502215624,1.2867604966066777
1783174289192840700,9.6318408203125,-3.6958068208038806,1.1039543443471194,1.2727389855168758
1783174289202908400,9.641908447265624,-2.6288404371142384,0.8434953358255326,1.6533263024583458
1783174289212977700,9.651977783203124,-2.8959447288691997,1.4905653054922818,0.17551738349087534
1783174289223044900,9.662044921875,-3.515290094655752,1.3621214425392447,-0.00871932672818657
1783174289233113900,9.67211376953125,-3.0779058086067437,1.4690049233302473,-0.3071325699564069
1783174289243181800,9.682181884765624,-1.7532172940135,1.3080997833639383,-0.7323792589660734
1783174289253250800,9.692250732421876,-0.5101151757389307,0.8956082387700677,-1.166952286986634
