time,seconds_elapsed,z,y,x
1783174279647824600,0.08682470703125,0.3451840281486511,0.07088014483451843,0.16000241041183472
1783174279657892600,0.096892578125,0.430612176656723,-0.12548619508743286,0.179596945643425
1783174279667961900,0.1069619140625,0.46046754717826843,-0.2838771641254425,0.1958041489124298
1783174279678029800,0.11702978515625,0.4216919243335724,-0.29144349694252014,0.29517993330955505
1783174279688098600,0.1270986328125,0.350293904542923,-0.156284362077713,0.42296984791755676
1783174279698167800,0.137167724609375,0.28929826617240906,-0.01810457743704319,0.5045282244682312
1783174279708235800,0.14723583984375,0.21905125677585602,0.027238935232162476,0.5537540912628174
1783174279718304500,0.157304443359375,0.16208305954933167,0.06286260485649109,0.5735921859741211
1783174279728372700,0.167372802734375,0.1322420835494995,0.07766365259885788,0.5370834469795227
1783174279738441700,0.177441650390625,0.11081456393003464,0.0829625353217125,0.43956148624420166
1783174279748510700,0.1875107421875,0.10042396932840347,0.12052003294229507,0.31151455640792847
1783174279758578700,0.19757861328125,0.10457104444503784,0.13145844638347626,0.1841927468776703
1783174279768647700,0.207647705078125,0.09846574813127518,0.12736277282238007,0.10890545696020126
1783174279778716000,0.2177158203125,0.0876430869102478,0.14686711132526398,0.058109529316425323
1783174279788784600,0.22778466796875,0.08781033754348755,0.16929227113723755,0.05322156473994255
1783174279798853600,0.237853515625,0.09873206168413162,0.1649429053068161,0.09041379392147064
1783174279808921900,0.247921875,0.09488832205533981,0.10724498331546783,0.11351405084133148
1783174279818990600,0.257990478515625,0.10911687463521957,0.03368761017918587,0.07254104316234589
1783174279829058600,0.26805859375,0.13626007735729218,-0.05205019563436508,-0.02991955168545246
1783174279839127800,0.2781279296875,0.16603730618953705,-0.09307044744491577,-0.15065273642539978
1783174279849196800,0.28819677734375,0.14969880878925323,-0.12570695579051971,-0.24970343708992004
1783174279859264800,0.2982646484375,0.09758199751377106,-0.16395333409309387,-0.30124393105506897
1783174279869333800,0.308333740234375,0.05266619101166725,-0.20020267367362976,-0.31740427017211914
1783174279879401700,0.318401611328125,0.032514024525880814,-0.21674028038978577,-0.32123732566833496
1783174279889470700,0.328470703125,0.06150759384036064,-0.19789281487464905,-0.3104163706302643
1783174279899539700,0.338539794921875,0.19186203181743622,-0.2993210256099701,-0.3044097125530243
1783174279909607700,0.348607666015625,0.2670758068561554,-0.1438094526529312,-0.2374112606048584
1783174279919676700,0.3586767578125,0.2917899191379547,0.0046416278928518295,-0.16216643154621124
1783174279929744600,0.36874462890625,0.22145585715770721,-0.016621848568320274,-0.1716637909412384
1783174279939814000,0.37881396484375,0.15415604412555695,-0.10130798816680908,-0.221019446849823
1783174279949882600,0.388882568359375,0.11274362355470657,-0.14603497087955475,-0.24901139736175537
1783174279959950600,0.39895068359375,0.08247258514165878,-0.19658035039901733,-0.25483331084251404
1783174279970019800,0.409019775390625,0.08594401180744171,-0.21595831215381622,-0.23928846418857574
1783174279980087800,0.419087890625,0.12019895017147064,-0.14071190357208252,-0.1552858203649521
1783174279990156500,0.429156494140625,0.15101440250873566,-0.044635429978370667,-0.10410118848085403
1783174280000224800,0.439224853515625,0.17558439075946808,0.007828800939023495,-0.10565702617168427
1783174280010293800,0.449293701171875,0.21837127208709717,0.033974651247262955,-0.16467614471912384
1783174280020362800,0.45936279296875,0.24249978363513947,0.04427522420883179,-0.23660705983638763
1783174280030430700,0.4694306640625,0.2512442469596863,0.04188903421163559,-0.2843681871891022
1783174280040499700,0.479499755859375,0.2360548973083496,-0.030332062393426895,-0.2869756519794464
1783174280050568000,0.48956787109375,0.20761047303676605,-0.17558565735816956,-0.25254496932029724
1783174280060636700,0.49963671875,0.18284901976585388,-0.26692306995391846,-0.1855918914079666
1783174280070705700,0.50970556640625,0.171410471200943,-0.2865047752857208,-0.14477282762527466
1783174280080774000,0.51977392578125,0.16815875470638275,-0.23286285996437073,-0.1741674691438675
1783174280090842600,0.529842529296875,0.18638649582862854,-0.13075965642929077,-0.25235307216644287
1783174280100910600,0.53991064453125,0.2208065390586853,-0.02787945792078972,-0.3226122558116913
1783174280110979800,0.549979736328125,0.24164870381355286,0.023053761571645737,-0.3517235219478607
1783174280121048600,0.560048583984375,0.2419033795595169,0.03515192121267319,-0.318684458732605
1783174280131116800,0.57011669921875,0.23665402829647064,0.0010972823947668076,-0.2299117147922516
1783174280141185800,0.580185791015625,0.22351305186748505,-0.06733503192663193,-0.13340215384960175
1783174280151253800,0.590253662109375,0.2088582068681717,-0.1372709721326828,-0.04814131185412407
1783174280161322800,0.60032275390625,0.18625381588935852,-0.20854239165782928,-0.001248503802344203
1783174280171391700,0.610391845703125,0.1702578067779541,-0.23036353290081024,-0.00987634714692831
1783174280181459700,0.620459716796875,0.17308853566646576,-0.21804238855838776,-0.06395313888788223
1783174280191528700,0.63052880859375,0.19101454317569733,-0.17907261848449707,-0.11878576129674911
1783174280201596700,0.6405966796875,0.2171560376882553,-0.10009703040122986,-0.13901177048683167
1783174280211666400,0.65066650390625,0.22896236181259155,0.013967225328087807,-0.1253494769334793
1783174280221735200,0.660735107421875,0.22848808765411377,0.1418268084526062,-0.11631649732589722
1783174280231803400,0.670803466796875,0.20758706331253052,0.2792392373085022,-0.1613207310438156
1783174280241872400,0.680872314453125,0.16709084808826447,0.38260418176651,-0.22806976735591888
1783174280251940400,0.6909404296875,0.10354011505842209,0.433859646320343,-0.28730618953704834
1783174280262009300,0.70100927734375,0.03543189540505409,0.44768255949020386,-0.30435600876808167
1783174280272078300,0.711078369140625,-0.02656223252415657,0.41287314891815186,-0.21821260452270508
1783174280282146300,0.721146240234375,-0.031304579228162766,0.3372305631637573,-0.03468799218535423
1783174280292215300,0.73121533203125,0.04569726064801216,0.2838727831840515,0.16775193810462952
1783174280302283300,0.741283203125,0.16335387527942657,0.25370654463768005,0.27091413736343384
1783174280312352500,0.7513525390625,0.2706555724143982,0.2178334891796112,0.2665276527404785
1783174280322420500,0.76142041015625,0.3747997283935547,0.15940803289413452,0.2016143649816513
1783174280332489200,0.7714892578125,0.4366830587387085,0.06192035600543022,0.16484728455543518
1783174280342558500,0.781558349609375,0.44312047958374023,-0.058722540736198425,0.21451334655284882
1783174280352626400,0.79162646484375,0.43679121136665344,-0.15104128420352936,0.37498000264167786
1783174280362695200,0.801695068359375,0.45242953300476074,-0.22252362966537476,0.5192089676856995
1783174280372763400,0.811763427734375,0.4739726483821869,-0.25703340768814087,0.5281009674072266
1783174280382832400,0.821832275390625,0.45576512813568115,-0.19735932350158691,0.46320483088493347
1783174280392901400,0.8319013671875,0.37283429503440857,-0.09371362626552582,0.43083810806274414
1783174280402969300,0.84196923828125,0.25380632281303406,-0.0831935778260231,0.47111520171165466
1783174280413038300,0.852038330078125,0.09540628641843796,-0.4661606550216675,0.4103378653526306
1783174280423106300,0.862106201171875,-0.020239990204572678,-0.6364739537239075,0.34526193141937256
1783174280433175300,0.87217529296875,-0.12131627649068832,-0.3896537721157074,0.2781718373298645
1783174280443244300,0.882244384765625,-0.17984400689601898,-0.05864638835191727,0.2476745992898941
1783174280453312500,0.8923125,-0.20108698308467865,0.2453734129667282,0.20192629098892212
1783174280463381200,0.90238134765625,-0.16614454984664917,0.4434576630592346,0.0562271848320961
1783174280473449200,0.91244921875,-0.12718729674816132,0.4488028883934021,-0.10572043806314468
1783174280483518500,0.9225185546875,-0.1169097051024437,0.22427155077457428,-0.20225058495998383
1783174280493587200,0.932587158203125,-0.1422416865825653,-0.05613774433732033,-0.2688552141189575
1783174280503655400,0.942655517578125,-0.19969826936721802,-0.3404698073863983,-0.31580209732055664
1783174280513724400,0.952724365234375,-0.2646290957927704,-0.5875237584114075,-0.31320151686668396
1783174280523792400,0.96279248046875,-0.2776256799697876,-0.6894252300262451,-0.22428081929683685
1783174280533861400,0.972861328125,-0.20241373777389526,-0.5849124193191528,-0.10086540877819061
1783174280543930400,0.982930419921875,-0.09717589616775513,-0.33139029145240784,-0.045836661010980606
1783174280553998300,0.992998291015625,-0.02763623371720314,-0.06587792187929153,-0.0947251096367836
1783174280564067300,1.0030673828125,-0.03790751472115517,0.1100425124168396,-0.24316038191318512
1783174280574135300,1.01313525390625,-0.1057901605963707,0.21423256397247314,-0.3885895013809204
1783174280584204500,1.02320458984375,-0.1538025587797165,0.2068774402141571,-0.4049490988254547
1783174280594273300,1.033273193359375,-0.12626680731773376,-0.015615819953382015,-0.30737194418907166
1783174280604341200,1.04334130859375,-0.015881359577178955,-0.4712379574775696,-0.12153001874685287
1783174280614410500,1.053410400390625,0.1551865190267563,-1.3005766868591309,0.015178030356764793
1783174280624478500,1.063478515625,0.27189382910728455,-2.5247485637664795,0.007261868566274643
1783174280634547200,1.073547119140625,0.2993614077568054,-3.711912155151367,-0.13140174746513367
1783174280644615400,1.083615478515625,0.23313844203948975,-4.372396469116211,-0.22349189221858978
1783174280654684400,1.093684326171875,0.1265219897031784,-4.379307746887207,-0.2919505536556244
1783174280664753400,1.10375341796875,0.13780000805854797,-3.592055082321167,-0.4797007441520691
1783174280674821400,1.1138212890625,0.21923786401748657,-2.421074628829956,-0.8903836011886597
1783174280684890400,1.123890380859375,0.2781204581260681,-1.6183122396469116,-1.4582642316818237
1783174280694958300,1.133958251953125,0.287547767162323,-1.5221723318099976,-1.9133188724517822
1783174280705027300,1.14402734375,0.22465521097183228,-1.8000757694244385,-1.9782021045684814
1783174280715096300,1.154096435546875,0.07291868329048157,-1.9166702032089233,-1.6463181972503662
1783174280725164300,1.164164306640625,-0.10745060443878174,-1.7160238027572632,-1.0908068418502808
1783174280735233300,1.1742333984375,-0.25314095616340637,-0.9928791522979736,-0.4605741500854492
1783174280745301200,1.18430126953125,-0.274849534034729,0.055397748947143555,0.0026574083603918552
1783174280755370500,1.19437060546875,-0.08374586701393127,0.9562647342681885,0.15132224559783936
1783174280765439200,1.204439208984375,0.2044595628976822,1.738075852394104,0.12435667961835861
1783174280775507500,1.214507568359375,0.46204209327697754,2.388176441192627,0.021963726729154587
1783174280785576400,1.224576416015625,0.5674049258232117,2.708117723464966,-0.15868663787841797
1783174280795644200,1.23464404296875,0.5327020883560181,2.739971399307251,-0.36616072058677673
1783174280805713400,1.24471337890625,0.5808995366096497,2.6187868118286133,-0.4711248278617859
1783174280815782400,1.254782470703125,0.34093162417411804,2.3082222938537598,-0.4430777430534363
1783174280825850400,1.264850341796875,0.08652511984109879,1.7720016241073608,-0.20906378328800201
1783174280835919400,1.27491943359375,0.08824871480464935,1.2478069067001343,0.0915282666683197
1783174280845987300,1.2849873046875,0.21274854242801666,0.9310662746429443,0.394662082195282
1783174280856056600,1.295056640625,0.40114933252334595,0.8906775712966919,0.6526941061019897
1783174280866124300,1.305124267578125,0.5412493348121643,1.1084390878677368,0.8453516364097595
1783174280876193300,1.315193359375,0.5249385237693787,1.283503532409668,0.9198964238166809
1783174280886262500,1.325262451171875,0.35084035992622375,1.2564113140106201,0.8517493009567261
1783174280896330200,1.335330322265625,0.15202873945236206,1.0795282125473022,0.6574304103851318
1783174280906399200,1.345399169921875,0.006276620551943779,0.916024386882782,0.4143446683883667
1783174280916467500,1.355467529296875,-0.08364581316709518,0.8955561518669128,0.23832090198993683
1783174280926536400,1.365536376953125,-0.1466929018497467,0.9429444670677185,0.1380791962146759
1783174280936605200,1.375605224609375,-0.20386351644992828,1.0099661350250244,0.07553964108228683
1783174280946673400,1.38567333984375,-0.22140651941299438,1.1376796960830688,0.0747508779168129
1783174280956742400,1.395742431640625,-0.1913146674633026,1.2230579853057861,0.170599102973938
1783174280966810000,1.40581005859375,-0.14654704928398132,1.1843558549880981,0.35216814279556274
1783174280976879400,1.41587939453125,-0.1226520910859108,0.9377021193504333,0.6360035538673401
1783174280986948400,1.4259482421875,-0.20652629435062408,0.8559660315513611,0.7233859896659851
1783174280997016300,1.436016357421875,-0.25636816024780273,0.8294180035591125,0.6890628933906555
1783174281007085300,1.446085205078125,-0.22916822135448456,0.8327557444572449,0.5907421708106995
1783174281017153300,1.4561533203125,-0.20558246970176697,0.9589238166809082,0.42867156863212585
1783174281027222300,1.46622216796875,-0.19626513123512268,1.1194738149642944,0.2994326055049896
1783174281037290200,1.476290283203125,-0.13246750831604004,1.2828638553619385,0.3417198956012726
1783174281047359200,1.486359130859375,-0.007011618465185165,1.389455795288086,0.44623085856437683
1783174281057428500,1.496428466796875,0.10050259530544281,1.3940385580062866,0.5434064269065857
1783174281067496200,1.50649609375,0.17224091291427612,1.2546590566635132,0.6078518629074097
1783174281077565400,1.5165654296875,0.25323668122291565,1.0555968284606934,0.6220738887786865
1783174281087633400,1.52663330078125,0.3733690083026886,0.8272870779037476,0.5994895696640015
1783174281097702100,1.5367021484375,0.48154741525650024,0.5280779600143433,0.5214890241622925
1783174281107771400,1.546771484375,0.4793279469013214,0.16162967681884766,0.3813038170337677
1783174281117839400,1.55683935546875,0.3188825845718384,-0.10581053793430328,0.24002845585346222
1783174281127908400,1.566908447265625,0.07457908242940903,-0.1696051061153412,0.2266574501991272
1783174281137976300,1.576976318359375,-0.044882066547870636,-0.23971788585186005,0.34220826625823975
1783174281148045300,1.58704541015625,-0.024765215814113617,-0.44047895073890686,0.3687387704849243
1783174281158114600,1.597114501953125,0.06587360799312592,-0.9207971096038818,0.14026352763175964
1783174281168182300,1.607182373046875,0.11124620586633682,-1.6527559757232666,-0.22143207490444183
1783174281178251300,1.617251220703125,0.051512569189071655,-2.485895872116089,-0.5777965784072876
1783174281188319500,1.627319580078125,-0.2103830873966217,-2.7601542472839355,-0.9195066094398499
1783174281198388200,1.63738818359375,-0.40877285599708557,-2.5205507278442383,-0.9058557748794556
1783174281208455700,1.64745556640625,-0.27878040075302124,-1.4148006439208984,-0.7619340419769287
1783174281218525000,1.65752490234375,0.14012710750102997,-0.16522620618343353,-0.6053391098976135
1783174281228594000,1.667593994140625,0.4957294166088104,0.6290323138237,-0.5438286066055298
1783174281238662000,1.677661865234375,0.6511877179145813,0.9176987409591675,-0.46006423234939575
1783174281248731000,1.68773095703125,0.6361523270606995,0.9501489400863647,-0.32388776540756226
1783174281258798800,1.697798828125,0.5860119462013245,0.717393159866333,-0.23535418510437012
1783174281268867800,1.707867919921875,0.587823748588562,0.3282751441001892,-0.19376853108406067
1783174281278936800,1.717936767578125,0.6402552723884583,-0.1859876662492752,-0.1545681357383728
1783174281289004800,1.7280048828125,0.656773030757904,-0.5862172842025757,-0.1071174368262291
1783174281299074000,1.738073974609375,0.6582196950912476,-0.6308696866035461,-0.11437775194644928
1783174281309141800,1.748141845703125,0.6238898038864136,-0.36702147126197815,-0.21649502217769623
1783174281319210800,1.758210693359375,0.5399608016014099,0.24225038290023804,-0.35230210423469543
1783174281329280000,1.768280029296875,0.39598265290260315,0.9252641797065735,-0.5542512536048889
1783174281339347700,1.77834765625,0.21010014414787292,1.0762370824813843,-0.7512391805648804
1783174281349416700,1.788416748046875,0.02065635472536087,0.6605620384216309,-0.6715654730796814
1783174281359485000,1.79848486328125,-0.08273341506719589,-0.0713510811328888,-0.4514877200126648
1783174281369554000,1.808553955078125,0.015156957320868969,-0.4887348413467407,-0.10238558053970337
1783174281379621600,1.81862158203125,0.29302239418029785,-0.5182226896286011,0.2324557900428772
1783174281389691000,1.82869091796875,0.5244085788726807,-0.27502018213272095,0.40375661849975586
1783174281399760000,1.838759765625,0.5471940636634827,0.18804174661636353,0.45142826437950134
1783174281409827800,1.848827880859375,0.3861135244369507,0.6610548496246338,0.3412564694881439
1783174281419896800,1.858896728515625,0.1456460803747177,0.8332513570785522,0.12646852433681488
1783174281429964800,1.86896484375,-0.08931685239076614,0.7854776978492737,-0.07129858434200287
1783174281440033800,1.87903369140625,-0.27301025390625,0.41632550954818726,-0.09422573447227478
1783174281450102800,1.889102783203125,-0.3250555694103241,0.019729863852262497,0.138417050242424
1783174281460170800,1.899170654296875,-0.1966470181941986,-0.30193498730659485,0.4218410551548004
1783174281470240000,1.909239990234375,0.038389790803194046,-0.48880842328071594,0.588403046131134
1783174281480307700,1.9193076171875,0.2314990609884262,-0.4305861294269562,0.5358340740203857
1783174281490377000,1.929376953125,0.34520938992500305,-0.18730664253234863,0.37046346068382263
1783174281500445000,1.93944482421875,0.346896767616272,0.06383636593818665,0.22403168678283691
1783174281510513700,1.949513671875,0.2533188462257385,0.329026460647583,0.14442381262779236
1783174281520583000,1.9595830078125,0.14570234715938568,0.5595598220825195,0.18547378480434418
1783174281530651000,1.96965087890625,0.08502022176980972,0.5427363514900208,0.29171091318130493
1783174281540719900,1.979719970703125,0.04636817052960396,0.26554787158966064,0.3441016674041748
1783174281550787800,1.989787841796875,0.045080531388521194,-0.018330976366996765,0.27483952045440674
1783174281560856800,1.99985693359375,0.054230619221925735,-0.1222483217716217,0.1890133023262024
1783174281570925800,2.00992578125,0.008925885893404484,-0.029209833592176437,0.12459957599639893
1783174281580993800,2.019993896484375,-0.043086182326078415,0.1823599487543106,0.07641899585723877
1783174281591062800,2.030062744140625,-0.09932966530323029,0.36342236399650574,0.128306046128273
1783174281601130800,2.040130859375,-0.137078657746315,0.5219587087631226,0.24141289293766022
1783174281611199700,2.05019970703125,-0.129181906580925,0.6322188973426819,0.3932889699935913
1783174281621267700,2.060267822265625,-0.11943686008453369,0.6724608540534973,0.5202247500419617
1783174281631337000,2.0703369140625,-0.05319645628333092,0.7049269080162048,0.5170820951461792
1783174281641405700,2.08040576171875,0.04702708497643471,0.6388890743255615,0.4098863899707794
1783174281651473700,2.0904736328125,0.1270991563796997,0.5421877503395081,0.2796114683151245
1783174281661543000,2.10054296875,0.1866527646780014,0.48936212062835693,0.24343430995941162
1783174281671611000,2.11061083984375,0.23800642788410187,0.5546269416809082,0.3250572681427002
1783174281681679600,2.1206796875,0.3053399324417114,0.5011996626853943,0.38653501868247986
1783174281691748900,2.130748779296875,0.4554016590118408,0.33030936121940613,0.40301960706710815
1783174281701816800,2.14081689453125,0.7069228291511536,0.06838960200548172,0.36858415603637695
1783174281711885800,2.1508857421875,0.8749576210975647,-0.14564459025859833,0.4308440387248993
1783174281721953800,2.160953857421875,0.8418700098991394,-0.24440260231494904,0.4780302047729492
1783174281732022800,2.171022705078125,0.7958693504333496,-0.21516254544258118,0.4914778172969818
1783174281742091000,2.181091064453125,0.8127391338348389,-0.21256409585475922,0.40031328797340393
1783174281752159700,2.19115966796875,0.7542038559913635,-0.5517197251319885,0.1701938360929489
1783174281762228700,2.201228759765625,0.6060642004013062,-0.7300625443458557,0.03035392425954342
1783174281772297000,2.211296875,0.5638111233711243,-0.9208300113677979,0.001850065658800304
1783174281782365700,2.22136572265625,0.5420128703117371,-1.0829600095748901,0.17716462910175323
1783174281792433700,2.23143359375,0.6304036974906921,-1.0871784687042236,0.40034177899360657
1783174281802503000,2.2415029296875,0.7869831919670105,-0.8871492743492126,0.5566403269767761
1783174281812571600,2.251571533203125,0.9265020489692688,-0.5339643955230713,0.6526367664337158
1783174281822639900,2.261639892578125,0.9716194272041321,-0.21028560400009155,0.6658868193626404
1783174281832708900,2.271708984375,0.9366139769554138,-0.05885086953639984,0.6560933589935303
1783174281842776800,2.28177685546875,0.8841444253921509,-0.004077106714248657,0.6066392660140991
1783174281852845800,2.291845703125,0.8136336207389832,-0.009428720921278,0.5024306178092957
1783174281862914800,2.301914794921875,0.6862988471984863,0.04002618044614792,0.3031247556209564
1783174281872982800,2.311982666015625,0.47695836424827576,0.07889789342880249,-0.12317723035812378
1783174281883051800,2.3220517578125,0.2451981008052826,0.03555014729499817,-0.3393292725086212
1783174281893119700,2.33211962890625,0.18652504682540894,0.16581319272518158,-0.2326013445854187
1783174281903189000,2.34218896484375,0.2749401032924652,0.4317767024040222,0.010178009048104286
1783174281913257000,2.352257080078125,0.3382752239704132,0.7361213564872742,0.3104951083660126
1783174281923325700,2.36232568359375,0.30094730854034424,0.9429951906204224,0.569696843624115
1783174281933395000,2.37239501953125,0.11201632022857666,1.0517531633377075,0.6735551357269287
1783174281943463000,2.382462890625,-0.10742868483066559,0.9824528694152832,0.6150550246238708
1783174281953531600,2.39253173828125,-0.2220337688922882,0.802448570728302,0.5341209769248962
1783174281963600000,2.402599853515625,-0.22221699357032776,0.5485166907310486,0.44420358538627625
1783174281973668900,2.4126689453125,-0.15101605653762817,0.31037843227386475,0.383321613073349
1783174281983736800,2.42273681640625,-0.11727164685726166,0.2380753457546234,0.30466166138648987
1783174281993805800,2.432805908203125,-0.13685393333435059,0.282655268907547,0.14006878435611725
1783174282003874800,2.442874755859375,-0.20398876070976257,0.30668842792510986,-0.03805408626794815
1783174282013942800,2.45294287109375,-0.2507266700267792,0.2629709541797638,-0.19673751294612885
1783174282024011800,2.46301171875,-0.26093190908432007,0.21583779156208038,-0.3306737542152405
1783174282034079700,2.473079833984375,-0.2856793701648712,0.19196930527687073,-0.44254299998283386
1783174282044149000,2.48314892578125,-0.31306517124176025,0.12460599094629288,-0.48183101415634155
1783174282054217700,2.4932177734375,-0.3505834639072418,-0.0247698612511158,-0.44400566816329956
1783174282064285700,2.50328564453125,-0.39388540387153625,-0.17025062441825867,-0.35133618116378784
1783174282074355000,2.51335498046875,-0.3897585868835449,-0.23434269428253174,-0.2727862000465393
1783174282084423000,2.5234228515625,-0.31284862756729126,-0.25232940912246704,-0.2000449001789093
1783174282094491600,2.53349169921875,-0.16410215198993683,-0.22546131908893585,-0.14601023495197296
1783174282104559900,2.543559814453125,0.001235398231074214,-0.14292782545089722,-0.1261579692363739
1783174282114628900,2.55362890625,0.11368414759635925,-0.050897929817438126,-0.11976687610149384
1783174282124697900,2.56369775390625,0.1129312738776207,0.008229571394622326,-0.09285909682512283
1783174282134765800,2.573765869140625,0.030377140268683434,0.08657605201005936,-0.04823055863380432
1783174282144834800,2.583834716796875,-0.049830611795186996,0.20628540217876434,-0.011988134123384953
1783174282154903000,2.593903076171875,-0.0657796710729599,0.3303409814834595,0.024207044392824173
1783174282164971800,2.6039716796875,-0.034883543848991394,0.45285332202911377,0.11179069429636002
1783174282175040800,2.614040771484375,0.04684341698884964,0.5533698201179504,0.2140389382839203
1783174282185109000,2.62410888671875,0.15000495314598083,0.5722857117652893,0.3053368926048279
1783174282195177700,2.634177734375,0.17242839932441711,0.546406090259552,0.39236825704574585
1783174282205245700,2.64424560546875,0.116700679063797,0.49434366822242737,0.46018537878990173
1783174282215315200,2.654315185546875,0.07539002597332001,0.48485738039016724,0.48547908663749695
1783174282225383200,2.664383056640625,0.08492600917816162,0.4992773234844208,0.39601123332977295
1783174282235452200,2.6744521484375,0.09299354255199432,0.49912917613983154,0.24413557350635529
1783174282245521400,2.684521484375,0.07249146699905396,0.46641382575035095,0.1582385152578354
1783174282255589000,2.694589111328125,0.06881116330623627,0.39632079005241394,0.15911799669265747
1783174282265658000,2.704658203125,0.07956713438034058,0.2810192406177521,0.15276049077510834
1783174282275726300,2.714726318359375,0.12462926656007767,0.22100581228733063,0.05784778296947479
1783174282285795300,2.72479541015625,0.17051072418689728,0.15071433782577515,-0.2048400342464447
1783174282295864000,2.734864013671875,0.21558380126953125,-0.07704371958971024,-0.5236075520515442
1783174282305932300,2.744932373046875,0.033843033015728,-0.07954335957765579,-0.7290283441543579
1783174282316001300,2.755001220703125,-0.18028604984283447,-0.3350835144519806,-0.8988046050071716
1783174282326069000,2.765069091796875,-0.35351720452308655,-0.8241999745368958,-1.107628345489502
1783174282336138200,2.77513818359375,-0.35663866996765137,-1.3185312747955322,-1.2189013957977295
1783174282346206200,2.785206298828125,-0.16321727633476257,-1.4920729398727417,-1.1995797157287598
1783174282356275200,2.795275146484375,0.1274808645248413,-1.2910265922546387,-0.9233704209327698
1783174282366344200,2.80534423828125,0.3485528230667114,-1.2127230167388916,-0.6211594343185425
1783174282376412200,2.815412109375,0.4045988917350769,-1.5411572456359863,-0.5615208148956299
1783174282386481400,2.8254814453125,0.29675766825675964,-1.940476417541504,-0.5369006991386414
1783174282396549000,2.835549072265625,0.27078649401664734,-2.0339725017547607,-0.20404960215091705
1783174282406618000,2.8456181640625,0.3570513427257538,-1.957581877708435,0.3623163402080536
1783174282416687400,2.855687255859375,0.5221886038780212,-1.6190084218978882,0.7960251569747925
1783174282426755000,2.865755126953125,0.5324273705482483,-0.9723265767097473,0.7080960869789124
1783174282436824300,2.87582421875,0.1535041779279709,-0.14947548508644104,0.10657533258199692
1783174282446892300,2.885892333984375,-0.5027487874031067,0.5053377747535706,-0.5591723322868347
1783174282456961300,2.895961181640625,-0.8687390685081482,0.4762565493583679,-0.8697765469551086
1783174282467029000,2.906029052734375,-0.7526652216911316,0.06748102605342865,-0.7909560203552246
1783174282477098200,2.91609814453125,-0.41049468517303467,-0.09548259526491165,-0.47914454340934753
1783174282487167200,2.926167236328125,-0.029287949204444885,0.061505161225795746,-0.2916894257068634
1783174282497235200,2.936235107421875,0.07846152037382126,0.45503470301628113,-0.2499903291463852
1783174282507304200,2.94630419921875,0.02101900428533554,0.7363913059234619,-0.400881826877594
1783174282517372200,2.9563720703125,-0.07861053943634033,0.8037350177764893,-0.5534205436706543
1783174282527441200,2.966441162109375,-0.19494621455669403,0.6971547603607178,-0.5283980369567871
1783174282537509000,2.976509033203125,-0.2166764885187149,0.5278311371803284,-0.3984007239341736
1783174282547578000,2.986578125,-0.14776000380516052,0.3690340220928192,-0.2780977487564087
1783174282557647000,2.996647216796875,-0.09721197187900543,0.29091453552246094,-0.18248812854290009
1783174282567715000,3.006715087890625,-0.10832320898771286,0.2443518191576004,-0.10754091292619705
1783174282577784300,3.016784423828125,-0.12383943051099777,0.1938810795545578,-0.0319819338619709
1783174282587852300,3.026852294921875,-0.12113445997238159,0.15522557497024536,0.09997796267271042
1783174282597921000,3.036921142578125,-0.14269615709781647,0.08982371538877487,0.23315724730491638
1783174282607990300,3.046990234375,-0.17569564282894135,0.027326248586177826,0.26827314496040344
1783174282618058200,3.057058349609375,-0.18166270852088928,-0.016794458031654358,0.23332828283309937
1783174282628127000,3.067126953125,-0.18216444551944733,-0.08106345683336258,0.15805403888225555
1783174282638195200,3.0771953125,-0.16125084459781647,-0.15635895729064941,0.08074746280908585
1783174282648264200,3.08726416015625,-0.13031183183193207,-0.2516982853412628,0.033387403935194016
1783174282658332200,3.097332275390625,-0.10670331865549088,-0.37957578897476196,-0.022918397560715675
1783174282668401200,3.107401123046875,-0.14159338176250458,-0.39161059260368347,-0.11866649240255356
1783174282678470100,3.11747021484375,-0.24513506889343262,-0.282075971364975,-0.26458626985549927
1783174282688538400,3.127538330078125,-0.39970386028289795,-0.06716766208410263,-0.4093290865421295
1783174282698607000,3.137607177734375,-0.5472903251647949,0.17292575538158417,-0.5139713287353516
1783174282708675000,3.147675048828125,-0.6275167465209961,0.3121901750564575,-0.5239840149879456
1783174282718744300,3.157744384765625,-0.6362494826316833,0.3640352189540863,-0.4111117124557495
1783174282728813000,3.16781298828125,-0.6019943356513977,0.3858148157596588,-0.2587969899177551
1783174282738881000,3.177881103515625,-0.494336873292923,0.39593276381492615,-0.16742843389511108
1783174282748950300,3.1879501953125,-0.36992278695106506,0.35189634561538696,-0.15163561701774597
1783174282759018200,3.198018310546875,-0.302570641040802,0.21248626708984375,-0.17315421998500824
1783174282769087200,3.208087158203125,-0.3281737267971039,0.0934770479798317,-0.20654574036598206
1783174282779155200,3.2181552734375,-0.40863314270973206,0.12517309188842773,-0.20963051915168762
1783174282789224200,3.22822412109375,-0.4202996492385864,0.2744581699371338,-0.21630918979644775
1783174282799293200,3.238293212890625,-0.3569561243057251,0.5087440609931946,-0.2213871330022812
1783174282809361200,3.248361083984375,-0.2781052589416504,0.7213340997695923,-0.2518736720085144
1783174282819430100,3.25843017578125,-0.21507833898067474,0.8305547833442688,-0.2635396718978882
1783174282829498400,3.268498291015625,-0.1372879296541214,0.7970783114433289,-0.19985684752464294
1783174282839567000,3.278567138671875,-0.0641099289059639,0.6058433651924133,-0.172098308801651
1783174282849635000,3.288635009765625,-0.024322833865880966,0.34866032004356384,-0.18296055495738983
1783174282859704300,3.298704345703125,0.03375307470560074,0.02911578118801117,-0.20197969675064087
1783174282869773000,3.30877294921875,0.0673118308186531,-0.4103843569755554,-0.23706896603107452
1783174282879841300,3.31884130859375,0.001171456417068839,-0.8819530010223389,-0.23292511701583862
1783174282889910300,3.32891015625,-0.033388651907444,-1.1563832759857178,-0.1426178514957428
1783174282899978200,3.338978271484375,0.03794587031006813,-0.9795209765434265,0.13013674318790436
1783174282910047200,3.349047119140625,0.21624398231506348,-0.6158729791641235,0.47736793756484985
1783174282920116200,3.3591162109375,0.4831666648387909,-0.5257880091667175,0.5429320335388184
1783174282930184200,3.36918408203125,0.6298551559448242,-0.860785186290741,0.22092950344085693
1783174282940253200,3.379253173828125,0.3669377863407135,-1.4386850595474243,-0.3287668228149414
1783174282950321200,3.389321044921875,-0.2081364095211029,-1.7803430557250977,-0.816195011138916
1783174282960390100,3.39939013671875,-0.670991837978363,-1.4803189039230347,-0.9722966551780701
1783174282970458400,3.409458251953125,-0.6708307266235352,-0.6176300048828125,-0.7165607213973999
1783174282980527000,3.419527099609375,-0.3478086292743683,0.31987667083740234,-0.16678248345851898
1783174282990596400,3.429596435546875,-0.005437970161437988,0.840519368648529,0.381369024515152
1783174283000664300,3.439664306640625,0.2728383243083954,0.891848623752594,0.8074358105659485
1783174283010733000,3.449733154296875,0.47206807136535645,0.7593914866447449,1.0766865015029907
1783174283020801300,3.45980126953125,0.6339254975318909,0.6244329810142517,1.2565773725509644
1783174283030870300,3.469870361328125,0.717829704284668,0.48995426297187805,1.3364315032958984
1783174283040939000,3.47993896484375,0.6530959606170654,0.3032084107398987,1.2096127271652222
1783174283051007200,3.49000732421875,0.43420252203941345,0.1759958416223526,0.8727784752845764
1783174283061076200,3.500076171875,0.20807553827762604,0.1279691755771637,0.4921528697013855
1783174283071144200,3.510144287109375,0.06987371295690536,0.23101407289505005,0.16890795528888702
1783174283081213200,3.520213134765625,0.011228935793042183,0.37393277883529663,-0.008411130867898464
1783174283091281200,3.53028125,-0.02717544324696064,0.41653162240982056,-0.010105433873832226
1783174283101350400,3.540350341796875,0.017832405865192413,0.3833881914615631,0.23603764176368713
1783174283111419100,3.550419189453125,0.12271860986948013,0.35122573375701904,0.591437041759491
1783174283121487000,3.560487060546875,0.1799095869064331,0.3032824695110321,0.82658451795578
1783174283131556400,3.570556396484375,0.12488681077957153,0.2536925673484802,0.8443142771720886
1783174283141624300,3.580624267578125,0.000393938273191452,0.26254549622535706,0.6544382572174072
1783174283151693000,3.590693115234375,-0.14965015649795532,0.3204825520515442,0.3294346034526825
1783174283161761300,3.60076123046875,-0.291576087474823,0.40853241086006165,-0.011281101033091545
1783174283171830300,3.610830322265625,-0.37880954146385193,0.48903098702430725,-0.25843948125839233
1783174283181899300,3.620899169921875,-0.39731326699256897,0.46883252263069153,-0.31792017817497253
1783174283191967200,3.63096728515625,-0.3078715205192566,0.3549632132053375,-0.21008585393428802
1783174283202036200,3.6410361328125,-0.16166043281555176,0.21198861300945282,-0.037054676562547684
1783174283212104400,3.6511044921875,-0.016172464936971664,0.07396683841943741,0.12583410739898682
1783174283222173400,3.66117333984375,0.05516166239976883,-0.038249555975198746,0.22747494280338287
1783174283232241400,3.671241455078125,0.01440224889665842,-0.15981993079185486,0.24609656631946564
1783174283242310400,3.681310302734375,-0.08677683770656586,-0.2500951886177063,0.17088854312896729
1783174283252379400,3.69137939453125,-0.16252858936786652,-0.26322752237319946,0.05356163531541824
1783174283262447400,3.701447265625,-0.17116890847682953,-0.17460216581821442,-0.05570220574736595
1783174283272516400,3.711516357421875,-0.12181229144334793,-0.03047190047800541,-0.12819558382034302
1783174283282584300,3.721584228515625,-0.04965595901012421,0.10161645710468292,-0.13302713632583618
1783174283292653300,3.7316533203125,0.007408923469483852,0.2183188498020172,-0.07322478294372559
1783174283302722300,3.741722412109375,0.058154743164777756,0.28704002499580383,0.014834491536021233
1783174283312790300,3.751790283203125,0.06132443994283676,0.2582494020462036,0.10239123553037643
1783174283322859300,3.761859375,0.02463553659617901,0.21790438890457153,0.1493690460920334
1783174283332927200,3.77192724609375,-0.027108084410429,0.19262300431728363,0.18308067321777344
1783174283342996500,3.78199658203125,-0.08197946101427078,0.1928033083677292,0.18078500032424927
1783174283353064200,3.792064208984375,-0.07346666604280472,0.23674733936786652,0.142753466963768
1783174283363133400,3.802133544921875,-0.010725598782300949,0.3225554823875427,0.11800919473171234
1783174283373202400,3.812202392578125,0.0414542481303215,0.3872916102409363,0.057285126298666
1783174283383270100,3.822270263671875,0.11124389618635178,0.4303664267063141,-0.011396992951631546
1783174283393339400,3.83233935546875,0.13279499113559723,0.42885375022888184,-0.05342753604054451
1783174283403407400,3.842407470703125,0.1307378113269806,0.341879278421402,-0.11496683955192566
1783174283413476400,3.852476318359375,0.1339157521724701,0.18603162467479706,-0.2530733048915863
1783174283423544300,3.86254443359375,0.1484764814376831,-0.05100072920322418,-0.3733634650707245
1783174283433613300,3.87261328125,0.19856788218021393,-0.3645770251750946,-0.4092373251914978
1783174283443682600,3.8826826171875,0.21502001583576202,-0.7238385081291199,-0.44877156615257263
1783174283453750300,3.892750244140625,0.2182919681072235,-0.9747375845909119,-0.521649181842804
1783174283463819300,3.9028193359375,0.2605748772621155,-0.9532336592674255,-0.7204141020774841
1783174283473887500,3.912887451171875,0.3806717097759247,-0.7343292832374573,-1.0591601133346558
1783174283483956200,3.922956298828125,0.459202378988266,-0.6726639270782471,-1.4249693155288696
1783174283494025200,3.933025146484375,0.3693012297153473,-1.171581506729126,-1.7341220378875732
1783174283504093400,3.943093505859375,0.1708059310913086,-1.8697290420532227,-1.7684545516967773
1783174283514162200,3.953162109375,0.057957157492637634,-2.11444091796875,-1.355163335800171
1783174283524230100,3.963230224609375,0.13189658522605896,-1.641063928604126,-0.4904041588306427
1783174283534299400,3.97329931640625,0.42548105120658875,-0.727928638458252,0.6526272296905518
1783174283544367400,3.983367431640625,0.7875957489013672,0.07843304425477982,1.626350998878479
1783174283554436400,3.993436279296875,1.1086419820785522,0.7669307589530945,2.0600593090057373
1783174283564505300,4.00350537109375,1.240928053855896,1.2795166969299316,1.9774541854858398
1783174283574573300,4.0135732421875,1.1301274299621582,1.2306349277496338,1.6907819509506226
1783174283584642300,4.023642333984375,0.9439771771430969,0.4903433322906494,1.3921914100646973
1783174283594710300,4.033710205078125,0.7110994458198547,-0.5993719100952148,1.2234055995941162
1783174283604779300,4.043779296875,0.4994823932647705,-1.500356912612915,1.0322800874710083
1783174283614847500,4.053847412109375,0.34622812271118164,-1.7448077201843262,0.5985971093177795
1783174283624916200,4.063916259765625,0.31349027156829834,-1.261277198791504,0.008928976953029633
1783174283634985500,4.0739853515625,0.33996421098709106,-0.37088334560394287,-0.5157206654548645
1783174283645053400,4.084053466796875,0.29134953022003174,0.4469605088233948,-0.7765895128250122
1783174283655122200,4.0941220703125,0.23740266263484955,0.804257333278656,-0.7537289261817932
1783174283665190100,4.104190185546875,0.09695982187986374,0.7789289951324463,-0.612294614315033
1783174283675259400,4.11425927734375,0.002363272476941347,0.5281414985656738,-0.40981340408325195
1783174283685328100,4.124328125,-0.053636547178030014,0.2014976441860199,-0.2376236766576767
1783174283695396400,4.134396240234375,-0.11796972900629044,-0.008987681940197945,-0.17025688290596008
1783174283705465300,4.14446533203125,-0.17862190306186676,-0.020102903246879578,-0.20514120161533356
1783174283715533300,4.154533203125,-0.21555595099925995,0.05047565698623657,-0.2693026065826416
1783174283725602300,4.164602294921875,-0.2393047958612442,0.1384269893169403,-0.3768026828765869
1783174283735670300,4.174670166015625,-0.2659606337547302,0.1846996694803238,-0.4990899860858917
1783174283745739300,4.1847392578125,-0.2558981478214264,0.21874064207077026,-0.5466376543045044
1783174283755808300,4.194808349609375,-0.23986004292964935,0.20939986407756805,-0.51073157787323
1783174283765876200,4.204876220703125,-0.2535218894481659,0.19286887347698212,-0.4472179114818573
1783174283775945500,4.214945556640625,-0.2533511817455292,0.17921777069568634,-0.3541361689567566
1783174283786013400,4.225013427734375,-0.21157360076904297,0.18258842825889587,-0.2705800533294678
1783174283796082200,4.235082275390625,-0.17453646659851074,0.20341673493385315,-0.21062856912612915
1783174283806150400,4.245150390625,-0.19971437752246857,0.1948830634355545,-0.1422046273946762
1783174283816219400,4.255219482421875,-0.24933600425720215,0.15211082994937897,-0.09291510283946991
1783174283826288000,4.2652880859375,-0.3027726113796234,0.10351890325546265,-0.07638802379369736
1783174283836356400,4.2753564453125,-0.3404558002948761,0.07441827654838562,-0.06551406532526016
1783174283846425300,4.28542529296875,-0.3821495771408081,0.13701070845127106,-0.056824930012226105
1783174283856493300,4.295493408203125,-0.4095630943775177,0.3152182698249817,-0.053570281714200974
1783174283866562300,4.305562255859375,-0.3718916177749634,0.5709073543548584,-0.07092716544866562
1783174283876630300,4.31563037109375,-0.32475632429122925,0.7400060892105103,-0.085832878947258
1783174283886699500,4.325699462890625,-0.3056686222553253,0.7999090552330017,-0.04274442419409752
1783174283896768300,4.335768310546875,-0.3147614598274231,0.7597733736038208,0.05690547078847885
1783174283906836200,4.345836181640625,-0.32994502782821655,0.6202874183654785,0.17016279697418213
1783174283916905500,4.355905517578125,-0.3612757921218872,0.46035659313201904,0.28426191210746765
1783174283926973400,4.365973388671875,-0.38945215940475464,0.28469225764274597,0.3692992031574249
1783174283937042200,4.376042236328125,-0.38856878876686096,0.15387246012687683,0.4404703378677368
1783174283947111400,4.386111328125,-0.3583938479423523,0.14885172247886658,0.48319724202156067
1783174283957179400,4.396179443359375,-0.33930617570877075,0.30733272433280945,0.431885302066803
1783174283967248400,4.406248291015625,-0.3469098210334778,0.6287144422531128,0.29501044750213623
1783174283977316400,4.41631640625,-0.3967849612236023,0.8717371821403503,0.12702810764312744
1783174283987385300,4.42638525390625,-0.42179691791534424,0.900318443775177,0.0015577609883621335
1783174283997453600,4.43645361328125,-0.34321528673171997,0.7204282879829407,-0.04137692227959633
1783174284007522300,4.446522216796875,-0.20458078384399414,0.4195002019405365,-0.01747610978782177
1783174284017591300,4.45659130859375,-0.045427341014146805,0.09077052772045135,-0.01375061459839344
1783174284027659500,4.466659423828125,0.03417539596557617,-0.3116104304790497,-0.14259949326515198
1783174284037728300,4.476728271484375,-0.06165099889039993,-0.8894854784011841,-0.40105873346328735
1783174284047796200,4.486796142578125,-0.2501813471317291,-1.448790192604065,-0.6451598405838013
1783174284057865500,4.496865478515625,-0.37652409076690674,-1.5165852308273315,-0.7804574966430664
1783174284067933400,4.506933349609375,-0.4318027198314667,-1.2133729457855225,-0.7817878723144531
1783174284078002400,4.51700244140625,-0.4124191403388977,-0.8157743811607361,-0.593662440776825
1783174284088071400,4.527071533203125,-0.250192254781723,-0.6527736783027649,-0.37972959876060486
1783174284098139400,4.537139404296875,-0.13617300987243652,-0.7382028698921204,-0.3740541338920593
1783174284108208400,4.54720849609375,-0.2553381621837616,-0.761759340763092,-0.4569222033023834
1783174284118276400,4.5572763671875,-0.41691452264785767,-0.5089068412780762,-0.2837086021900177
1783174284128345300,4.567345458984375,-0.37829795479774475,-0.16138264536857605,0.12967146933078766
1783174284138414300,4.577414306640625,-0.20743513107299805,0.06670564413070679,0.4940166771411896
1783174284148482300,4.587482421875,-0.023469844833016396,0.15398730337619781,0.6995658874511719
1783174284158551300,4.59755126953125,0.07429586350917816,0.1890030801296234,0.7462825179100037
1783174284168619500,4.60761962890625,0.037910159677267075,0.2447507679462433,0.6780520677566528
1783174284178688300,4.617688232421875,-0.05049879848957062,0.18724699318408966,0.5199306011199951
1783174284188756200,4.627756103515625,-0.11741170287132263,-0.03556270897388458,0.32270702719688416
1783174284198825500,4.637825439453125,-0.11778906732797623,-0.30660539865493774,0.19086191058158875
1783174284208894200,4.647894287109375,-0.10632526129484177,-0.5140708684921265,0.1170283630490303
1783174284218961700,4.657961669921875,-0.15958581864833832,-0.5235927700996399,0.11389914900064468
1783174284229031000,4.668031005859375,-0.21716375648975372,-0.32879552245140076,0.12977389991283417
1783174284239099000,4.678098876953125,-0.21641701459884644,-0.09564350545406342,0.20369793474674225
1783174284249167600,4.688167724609375,-0.12453097850084305,0.13692055642604828,0.3993299603462219
1783174284259235800,4.69823583984375,0.026795964688062668,0.3552587628364563,0.5989075303077698
1783174284269304800,4.708304931640625,0.1522243320941925,0.542382538318634,0.7254204154014587
1783174284279373600,4.71837353515625,0.1848675012588501,0.6427762508392334,0.7448945641517639
1783174284289441800,4.72844189453125,0.1379254013299942,0.571936309337616,0.651320219039917
1783174284299510800,4.7385107421875,0.07100681960582733,0.3529788851737976,0.4744306802749634
1783174284309578800,4.748578857421875,0.010319654829800129,0.14438670873641968,0.34102341532707214
1783174284319647700,4.758647705078125,-0.028358764946460724,0.026256611570715904,0.2578688859939575
1783174284329716700,4.768716796875,-0.05881667509675026,0.0037161577492952347,0.21286340057849884
1783174284339785000,4.778784912109375,-0.09958194941282272,0.04700690507888794,0.15749387443065643
1783174284349853700,4.788853759765625,-0.14127588272094727,0.07866718620061874,0.08048046380281448
1783174284359921700,4.798921630859375,-0.1903909593820572,0.11083817481994629,0.015516639687120914
1783174284369991000,4.808990966796875,-0.26718035340309143,0.124274842441082,-0.05117986351251602
1783174284380059000,4.819058837890625,-0.3476448357105255,0.11280567198991776,-0.11277984082698822
1783174284390127600,4.829127685546875,-0.36581194400787354,0.1368294060230255,-0.11424309760332108
1783174284400196900,4.83919677734375,-0.3190732002258301,0.1917312741279602,-0.1533399075269699
1783174284410264800,4.849264892578125,-0.24139218032360077,0.23028366267681122,-0.22176530957221985
1783174284420333800,4.859333740234375,-0.19535385072231293,0.25231465697288513,-0.3243934214115143
1783174284430401800,4.86940185546875,-0.19165432453155518,0.2764018774032593,-0.4146638512611389
1783174284440470800,4.879470703125,-0.22307482361793518,0.31296390295028687,-0.4698208272457123
1783174284450538800,4.889538818359375,-0.24374786019325256,0.3598218858242035,-0.4669463634490967
1783174284460607700,4.899607666015625,-0.23009835183620453,0.3841109573841095,-0.4247587025165558
1783174284470676700,4.9096767578125,-0.1994749903678894,0.34964826703071594,-0.3436344563961029
1783174284480745000,4.919744873046875,-0.14653827250003815,0.31445592641830444,-0.20392051339149475
1783174284490813700,4.929813720703125,-0.09021664410829544,0.26580649614334106,-0.04779103398323059
1783174284500881700,4.939881591796875,-0.04061100631952286,0.243150994181633,0.08087453246116638
1783174284510951000,4.949950927734375,-0.014451256953179836,0.249856099486351,0.1214706227183342
1783174284521018600,4.9600185546875,-0.0048441700637340546,0.27663472294807434,0.047726090997457504
1783174284531087600,4.970087646484375,0.0013146564597263932,0.3158619999885559,-0.06255460530519485
1783174284541156900,4.980156982421875,-0.014301055110991001,0.3878352642059326,-0.15525896847248077
1783174284551224800,4.990224853515625,-0.025382734835147858,0.4868212342262268,-0.19443194568157196
1783174284561293800,5.0002939453125,-0.033788204193115234,0.5984023213386536,-0.21567891538143158
1783174284571361800,5.01036181640625,-0.055789023637771606,0.607411801815033,-0.3074386715888977
1783174284581430800,5.0204306640625,-0.06158832460641861,0.5250335931777954,-0.37637537717819214
1783174284591499800,5.030499755859375,-0.016078077256679535,0.284356951713562,-0.4098344147205353
1783174284601567700,5.040567626953125,0.09267156571149826,-0.021854134276509285,-0.4657067358493805
1783174284611636700,5.05063671875,0.2262081652879715,-0.3661746680736542,-0.5079358220100403
1783174284621704700,5.06070458984375,0.3851136565208435,-0.7329087257385254,-0.44907572865486145
1783174284631773700,5.070773681640625,0.5512241721153259,-1.047063946723938,-0.30816641449928284
1783174284641841700,5.080841552734375,0.5753260254859924,-1.2634625434875488,-0.12200690805912018
1783174284651910700,5.09091064453125,0.4218803942203522,-1.5916460752487183,-0.2076530158519745
1783174284661979600,5.100979736328125,0.1758597046136856,-1.9770991802215576,-0.6841799020767212
1783174284672047900,5.1110478515625,-0.17241308093070984,-2.394059419631958,-1.31061589717865
1783174284682116900,5.121116943359375,-0.5420106053352356,-2.5848519802093506,-1.708580732345581
1783174284692184600,5.1311845703125,-0.6451992988586426,-1.8710792064666748,-1.589264154434204
1783174284702253800,5.14125390625,-0.3505360186100006,-0.5687971711158752,-0.8762727975845337
1783174284712321800,5.15132177734375,0.046383246779441833,0.4404524862766266,0.10273875296115875
1783174284722390500,5.161390625,0.28382161259651184,0.9235453605651855,0.8394977450370789
1783174284732459800,5.171459716796875,0.34507933259010315,0.956825852394104,1.2042382955551147
1783174284742527700,5.18152783203125,0.24399319291114807,0.6943950057029724,1.3009581565856934
1783174284752596700,5.1915966796875,0.0931796282529831,0.27756989002227783,1.3058992624282837
1783174284762664700,5.201664794921875,-0.03725774213671684,-0.19813776016235352,1.2542706727981567
1783174284772733700,5.211733642578125,-0.08077387511730194,-0.5880870819091797,1.1164867877960205
1783174284782802000,5.221802001953125,-0.03916890546679497,-0.7538230419158936,0.9164631366729736
1783174284792870700,5.23187060546875,0.054257795214653015,-0.5506377816200256,0.6452174186706543
1783174284802939600,5.241939697265625,0.07475854456424713,-0.14179539680480957,0.32561466097831726
1783174284813008000,5.2520078125,-0.018622644245624542,0.26555973291397095,0.0004524318501353264
1783174284823076600,5.26207666015625,-0.10967399179935455,0.5489256381988525,-0.24942319095134735
1783174284833144600,5.27214453125,-0.10117371380329132,0.686062753200531,-0.3588692247867584
1783174284843213800,5.2822138671875,-0.00597183033823967,0.7147822380065918,-0.30029594898223877
1783174284853282800,5.29228271484375,0.12010498344898224,0.671320915222168,-0.12892381846904755
1783174284863350800,5.302350830078125,0.2292831391096115,0.5761147737503052,0.021832939237356186
1783174284873419800,5.312419677734375,0.24598585069179535,0.48638948798179626,0.025913076475262642
1783174284883487700,5.32248779296875,0.13374853134155273,0.3898611068725586,-0.042724043130874634
1783174284893556700,5.332556640625,-0.040688663721084595,0.2722384035587311,-0.10466767102479935
1783174284903624700,5.342624755859375,-0.15020211040973663,0.1679905652999878,-0.13208864629268646
1783174284913693700,5.352693603515625,-0.14871293306350708,0.053510282188653946,-0.04097501561045647
1783174284923762700,5.3627626953125,-0.04117581248283386,-0.1180630624294281,0.11154954880475998
1783174284933830700,5.37283056640625,0.10000237822532654,-0.3042253255844116,0.2085554152727127
1783174284943900000,5.38289990234375,0.1862536370754242,-0.4170309901237488,0.17885184288024902
1783174284953967900,5.3929677734375,0.18953002989292145,-0.3590031862258911,0.033548761159181595
1783174284964036600,5.40303662109375,0.10573898255825043,-0.17873141169548035,-0.20418283343315125
1783174284974104600,5.4131044921875,-0.05121307820081711,0.0027419584803283215,-0.4197762608528137
1783174284984173800,5.423173828125,-0.18754056096076965,0.1471545249223709,-0.5249894857406616
1783174284994242600,5.43324267578125,-0.28200799226760864,0.2698191702365875,-0.4940655529499054
1783174285004310800,5.443310791015625,-0.34384632110595703,0.3543716073036194,-0.3537486493587494
1783174285014379800,5.4533798828125,-0.3502064645290375,0.383995920419693,-0.12422235310077667
1783174285024447700,5.46344775390625,-0.31440266966819763,0.3230004906654358,0.12391528487205505
1783174285034516700,5.473516845703125,-0.2645588219165802,0.17486481368541718,0.3019307553768158
1783174285044585700,5.483585693359375,-0.27735635638237,-0.017333384603261948,0.38030678033828735
1783174285054653700,5.49365380859375,-0.31639528274536133,-0.13809925317764282,0.3599136769771576
1783174285064722700,5.50372265625,-0.31508901715278625,-0.10012417286634445,0.2993541955947876
1783174285074790700,5.513790771484375,-0.2788519859313965,0.09028221666812897,0.22595557570457458
1783174285084860000,5.52385986328125,-0.2505500316619873,0.34067103266716003,0.15436793863773346
1783174285094928000,5.533927978515625,-0.22521457076072693,0.5419884324073792,0.0932404026389122
1783174285104996600,5.54399658203125,-0.2102331668138504,0.6491287350654602,0.08508716523647308
1783174285115065900,5.55406591796875,-0.18665039539337158,0.6397325396537781,0.12401104718446732
1783174285125133800,5.5641337890625,-0.14862018823623657,0.49958181381225586,0.13323943316936493
1783174285135202600,5.57420263671875,-0.08475534617900848,0.3212862014770508,0.11482405662536621
1783174285145270800,5.584270751953125,-0.029819931834936142,0.16841650009155273,0.04903385415673256
1783174285155339800,5.59433984375,-0.021868141368031502,0.10379413515329361,-0.11817885935306549
1783174285165407700,5.60440771484375,-0.01632210798561573,0.10498537123203278,-0.3117715120315552
1783174285175476700,5.614476806640625,0.01505065057426691,0.14719624817371368,-0.5360652208328247
1783174285185545700,5.624545654296875,0.0973106324672699,0.24670153856277466,-0.7176488637924194
1783174285195614000,5.634614013671875,0.25727227330207825,0.35676631331443787,-0.7954908013343811
1783174285205682700,5.6446826171875,0.3757496476173401,0.40358415246009827,-0.8457430601119995
1783174285215750700,5.654750732421875,0.3125535249710083,0.14584393799304962,-0.9301007390022278
1783174285225819600,5.664819580078125,0.09171246737241745,-0.4492385983467102,-1.121716022491455
1783174285235888600,5.674888671875,-0.1659107804298401,-1.186287522315979,-1.3499383926391602
1783174285245956600,5.68495654296875,-0.4501100182533264,-1.9554235935211182,-1.5082191228866577
1783174285256025600,5.695025634765625,-0.562468945980072,-2.3930110931396484,-1.6906733512878418
1783174285266093800,5.70509375,-0.44324320554733276,-2.1489312648773193,-1.8344284296035767
1783174285276162600,5.71516259765625,-0.253708153963089,-1.301587700843811,-1.6655869483947754
1783174285286230500,5.72523046875,-0.13870804011821747,-0.4785407483577728,-1.087329387664795
1783174285296299800,5.7352998046875,-0.02270175702869892,-0.28971701860427856,-0.26044660806655884
1783174285306368500,5.745368408203125,0.18905523419380188,-0.5999537110328674,0.44572171568870544
1783174285316436500,5.7554365234375,0.3362484574317932,-0.987211287021637,1.0060808658599854
1783174285326505700,5.765505615234375,0.42006850242614746,-1.2073543071746826,1.397809386253357
1783174285336573700,5.77557373046875,0.45743852853775024,-1.3045809268951416,1.5461064577102661
1783174285346642700,5.785642578125,0.45319342613220215,-1.2991046905517578,1.4168463945388794
1783174285356710700,5.795710693359375,0.41655075550079346,-1.0888508558273315,1.1071255207061768
1783174285366779600,5.805779541015625,0.37228822708129883,-0.6485297083854675,0.6973881125450134
1783174285376848600,5.8158486328125,0.26690179109573364,-0.10182476788759232,0.27361175417900085
1783174285386916600,5.82591650390625,0.15224845707416534,0.36796775460243225,-0.0525389201939106
1783174285396985600,5.835985595703125,0.09490355849266052,0.670660674571991,-0.20682761073112488
1783174285407053800,5.8460537109375,0.1032288670539856,0.8247338533401489,-0.2126074731349945
1783174285417122600,5.85612255859375,0.14199475944042206,0.8880490064620972,-0.06526323407888412
1783174285427190500,5.8661904296875,0.20405679941177368,0.8714985251426697,0.1897141933441162
1783174285437259800,5.876259765625,0.2427559494972229,0.7283800840377808,0.439045786857605
1783174285447328500,5.88632861328125,0.2045297473669052,0.44499367475509644,0.5824508666992188
1783174285457396500,5.896396484375,0.0965639129281044,0.1826377511024475,0.5799276828765869
1783174285467465700,5.9064658203125,-0.0637621060013771,0.0366579033434391,0.44166064262390137
1783174285477533700,5.91653369140625,-0.22557465732097626,-0.07993363589048386,0.19588994979858398
1783174285487602700,5.926602783203125,-0.32856523990631104,-0.17284253239631653,-0.07414072751998901
1783174285497671700,5.936671630859375,-0.32489636540412903,-0.23970843851566315,-0.30457058548927307
1783174285507739600,5.94673974609375,-0.2621733248233795,-0.26160547137260437,-0.41213458776474
1783174285517808600,5.95680859375,-0.21186594665050507,-0.24783746898174286,-0.42206791043281555
1783174285527876600,5.966876708984375,-0.18156956136226654,-0.1985924243927002,-0.4510308504104614
1783174285537945600,5.976945556640625,-0.1859554797410965,-0.14975877106189728,-0.5278663039207458
1783174285548013600,5.987013671875,-0.24500814080238342,-0.14538507163524628,-0.6264908909797668
1783174285558082600,5.99708251953125,-0.3026314973831177,-0.19831006228923798,-0.75466388463974
1783174285568151800,6.00715185546875,-0.32247284054756165,-0.282643586397171,-0.8455597162246704
1783174285578219800,6.0172197265625,-0.29857337474823,-0.3388671875,-0.8164931535720825
1783174285588288500,6.02728857421875,-0.24377937614917755,-0.30151209235191345,-0.670686662197113
1783174285598356700,6.037356689453125,-0.1636708825826645,-0.22309660911560059,-0.4938848912715912
1783174285608425700,6.04742578125,-0.09969376772642136,-0.12296921014785767,-0.3492118716239929
1783174285618493400,6.057493408203125,-0.10287028551101685,0.011037712916731834,-0.32384857535362244
1783174285628562700,6.067562744140625,-0.1589852273464203,0.1669924259185791,-0.3986823558807373
1783174285638631700,6.077631591796875,-0.22954241931438446,0.2713332772254944,-0.5024828910827637
1783174285648699600,6.08769970703125,-0.27303850650787354,0.36894187331199646,-0.5326080322265625
1783174285658768600,6.0977685546875,-0.22999843955039978,0.47466325759887695,-0.45696890354156494
1783174285668836600,6.107836669921875,-0.13576701283454895,0.5826507210731506,-0.29138901829719543
1783174285678905600,6.117905517578125,-0.01773586869239807,0.7238662838935852,-0.11835014820098877
1783174285688974600,6.127974609375,0.10753177106380463,0.8014284372329712,-0.03728166222572327
1783174285699042600,6.13804248046875,0.2643716633319855,0.6337078809738159,-0.10870970040559769
1783174285709111800,6.14811181640625,0.43962976336479187,0.2327159345149994,-0.27043014764785767
1783174285719179500,6.158179443359375,0.5478289127349854,-0.16810521483421326,-0.40554913878440857
1783174285729248500,6.16824853515625,0.5802821516990662,-0.3342475891113281,-0.38774511218070984
1783174285739316700,6.178316650390625,0.6220172047615051,-0.35965701937675476,-0.20697279274463654
1783174285749385500,6.188385498046875,0.7192015051841736,-0.3133862018585205,0.04703791067004204
1783174285759454700,6.198454833984375,0.8342012166976929,-0.24829703569412231,0.22305361926555634
1783174285769522700,6.208522705078125,0.8279294371604919,-0.10505013912916183,0.30754345655441284
1783174285779591700,6.218591796875,0.6184259057044983,0.03711294010281563,0.34067150950431824
1783174285789659600,6.22865966796875,0.3694736361503601,0.023150518536567688,0.3916012644767761
1783174285799728600,6.238728759765625,0.22956107556819916,-0.34547922015190125,0.3928019404411316
1783174285809796600,6.248796630859375,0.20215556025505066,-0.986309826374054,0.25805291533470154
1783174285819865600,6.258865478515625,0.19567586481571198,-1.4043867588043213,0.012327658012509346
1783174285829934600,6.2689345703125,0.05300845205783844,-1.4079633951187134,-0.23681211471557617
1783174285840002600,6.27900244140625,-0.2388066053390503,-0.945824384689331,-0.3746154010295868
1783174285850071600,6.289071533203125,-0.48851656913757324,-0.2747077941894531,-0.33612099289894104
1783174285860139500,6.299139404296875,-0.591903030872345,0.30288517475128174,-0.1847916692495346
1783174285870208800,6.309208740234375,-0.5015502572059631,0.6932148933410645,-0.002583527471870184
1783174285880276700,6.31927685546875,-0.30049818754196167,0.8704681992530823,0.23874972760677338
1783174285890345500,6.329345458984375,-0.0995299369096756,0.9046717286109924,0.49958932399749756
1783174285900414700,6.339414794921875,0.05776892974972725,0.862617552280426,0.7023283243179321
1783174285910482700,6.349482666015625,0.13428235054016113,0.7406677007675171,0.7553742527961731
1783174285920551400,6.359551513671875,0.1464996337890625,0.612856388092041,0.6980724334716797
1783174285930619600,6.36961962890625,0.15460176765918732,0.6117961406707764,0.629450261592865
1783174285940688600,6.379688720703125,0.1386517733335495,0.7304313778877258,0.5793097615242004
1783174285950757600,6.389757568359375,0.11365773528814316,0.9679773449897766,0.5733246207237244
1783174285960825600,6.39982568359375,0.10907714813947678,1.2438125610351562,0.6049371957778931
1783174285970894600,6.40989453125,0.1045449823141098,1.4501326084136963,0.6455589532852173
1783174285980962600,6.419962646484375,0.09381569176912308,1.5110090970993042,0.6649931073188782
1783174285991031600,6.430031494140625,0.11124448478221893,1.3958089351654053,0.6524330973625183
1783174286001099500,6.440099609375,0.14017538726329803,1.1923141479492188,0.5921856760978699
1783174286011168800,6.450168701171875,0.12213966995477676,1.0203213691711426,0.5038145780563354
1783174286021237500,6.460237548828125,0.059249989688396454,0.8577777147293091,0.39478588104248047
1783174286031305500,6.470305419921875,-0.04107608273625374,0.6475464701652527,0.35898101329803467
1783174286041374700,6.480374755859375,-0.1267993152141571,0.39480483531951904,0.42396649718284607
1783174286051442700,6.490442626953125,-0.17266294360160828,0.14355500042438507,0.5331422090530396
1783174286061511400,6.500511474609375,-0.20538091659545898,-0.06507899612188339,0.5917134284973145
1783174286071579600,6.51057958984375,-0.23280136287212372,-0.24080689251422882,0.5474516749382019
1783174286081648600,6.520648681640625,-0.2538782060146332,-0.3508739471435547,0.37687334418296814
1783174286091717600,6.530717529296875,-0.261812299489975,-0.3871174454689026,0.14941491186618805
1783174286101785600,6.54078564453125,-0.25251704454421997,-0.402692049741745,-0.04595769941806793
1783174286111854600,6.5508544921875,-0.22104112803936005,-0.37936756014823914,-0.129975363612175
1783174286121922800,6.5609228515625,-0.19131210446357727,-0.3198322057723999,-0.1644151210784912
1783174286131991600,6.570991455078125,-0.19510364532470703,-0.2568287253379822,-0.19620367884635925
1783174286142060500,6.581060546875,-0.24155983328819275,-0.19786420464515686,-0.2718902826309204
1783174286152128800,6.591128662109375,-0.3187451660633087,-0.13387005031108856,-0.4139222800731659
1783174286162197500,6.601197509765625,-0.3858523368835449,-0.07244918495416641,-0.5777726769447327
1783174286172265500,6.611265380859375,-0.4387219250202179,-0.031495627015829086,-0.6830272078514099
1783174286182334700,6.621334716796875,-0.4600203335285187,-0.02799719199538231,-0.6513365507125854
1783174286192402700,6.631402587890625,-0.43933796882629395,-0.07245121151208878,-0.5503655076026917
1783174286202471700,6.6414716796875,-0.41146859526634216,-0.10916761308908463,-0.4320220649242401
1783174286212541200,6.651541259765625,-0.3924783766269684,-0.12692344188690186,-0.3424972593784332
1783174286222609400,6.661609375,-0.40509602427482605,-0.10219626128673553,-0.2644965648651123
1783174286232678100,6.67167822265625,-0.42685458064079285,-0.004834292456507683,-0.21381285786628723
1783174286242746000,6.68174609375,-0.44936659932136536,0.06494037061929703,-0.21589142084121704
1783174286252815400,6.6918154296875,-0.4376404285430908,0.12328516691923141,-0.2400369644165039
1783174286262883000,6.701883056640625,-0.4139851927757263,0.16653737425804138,-0.26443830132484436
1783174286272952300,6.711952392578125,-0.4210609495639801,0.20050707459449768,-0.2878706753253937
1783174286283021300,6.722021240234375,-0.4184863865375519,0.2527618110179901,-0.3437337577342987
1783174286293089000,6.732089111328125,-0.3995630443096161,0.27185240387916565,-0.37014058232307434
1783174286303158300,6.742158203125,-0.3246040940284729,0.2149493545293808,-0.31892749667167664
1783174286313226200,6.752226318359375,-0.1979726403951645,0.002475432585924864,-0.2468237429857254
1783174286323295200,6.762295166015625,-0.07850782573223114,-0.27597060799598694,-0.16070778667926788
1783174286333364200,6.7723642578125,0.036217961460351944,-0.5652567744255066,-0.09465634822845459
1783174286343432200,6.78243212890625,0.16008533537387848,-0.8056681156158447,-0.04364779591560364
1783174286353501400,6.79250146484375,0.29667168855667114,-0.9402602910995483,0.0741368979215622
1783174286363569200,6.802569091796875,0.3150376081466675,-1.1265901327133179,0.12098630517721176
1783174286373638100,6.81263818359375,0.28382936120033264,-1.5229665040969849,0.04684656113386154
1783174286383706000,6.8227060546875,0.2688463628292084,-1.9274109601974487,-0.258805513381958
1783174286393775000,6.832775146484375,0.20762906968593597,-2.244152545928955,-0.9614587426185608
1783174286403844000,6.842843994140625,-0.09664642810821533,-2.183048725128174,-1.7796941995620728
1783174286413912300,6.852912353515625,-0.6250135898590088,-1.5289816856384277,-2.1781392097473145
1783174286423981300,6.862981201171875,-0.937886118888855,-0.3067395091056824,-1.847398281097412
1783174286434049000,6.873049072265625,-0.7316392064094543,0.8109009861946106,-0.9846171140670776
1783174286444118300,6.8831181640625,-0.2331632673740387,1.3242132663726807,-0.06710382550954819
1783174286454186200,6.893186279296875,0.1890777200460434,1.1625986099243164,0.7937070727348328
1783174286464255000,6.9032548828125,0.3656921982765198,0.5416464805603027,1.6107021570205688
1783174286474324200,6.91332421875,0.3069268763065338,-0.1503484696149826,2.272453784942627
1783174286484392200,6.92339208984375,0.10758217424154282,-0.7098991870880127,2.563246965408325
1783174286494461200,6.933461181640625,-0.10810564458370209,-0.8326858282089233,2.445681571960449
1783174286504529200,6.943529052734375,-0.3088061809539795,-0.4189312756061554,2.0368406772613525
1783174286514598100,6.95359814453125,-0.41223058104515076,0.36269477009773254,1.4696556329727173
1783174286524667100,6.963667236328125,-0.44049271941185,1.1551644802093506,0.936782717704773
1783174286534735000,6.973735107421875,-0.43797364830970764,1.6263234615325928,0.5608950853347778
1783174286544804000,6.98380419921875,-0.32917216420173645,1.7216323614120483,0.39213284850120544
1783174286554872300,6.993872314453125,-0.14967964589595795,1.5375597476959229,0.44308072328567505
1783174286564941000,7.003941162109375,0.05536363273859024,1.0516055822372437,0.6060684323310852
1783174286575009000,7.014009033203125,0.27324217557907104,0.3451269865036011,0.7666589021682739
1783174286585078300,7.024078369140625,0.4064795672893524,-0.23162999749183655,0.8041386604309082
1783174286595147000,7.03414697265625,0.3623776137828827,-0.529820442199707,0.6725843548774719
1783174286605215200,7.04421533203125,0.22381573915481567,-0.46797940135002136,0.46079501509666443
1783174286615284200,7.0542841796875,0.12183477729558945,-0.1461651623249054,0.23097991943359375
1783174286625352200,7.064352294921875,0.040776416659355164,0.18957608938217163,0.021361183375120163
1783174286635421200,7.074421142578125,0.006179024465382099,0.4048338234424591,-0.02932862751185894
1783174286645489200,7.0844892578125,0.012965993024408817,0.495440274477005,0.05742330104112625
1783174286655558100,7.09455810546875,0.016955140978097916,0.47367560863494873,0.19938789308071136
1783174286665627100,7.104627197265625,0.02475161664187908,0.4145147502422333,0.3257488012313843
1783174286675695000,7.114695068359375,0.002438055817037821,0.30604287981987,0.3692834973335266
1783174286685764400,7.124764404296875,-0.06432706862688065,0.14001162350177765,0.32767581939697266
1783174286695832300,7.134832275390625,-0.17268763482570648,0.001146683469414711,0.233755424618721
1783174286705901000,7.144901123046875,-0.2954179346561432,-0.021631445735692978,0.10752121359109879
1783174286715969300,7.15496923828125,-0.4053087532520294,0.047889839857816696,-0.07125679403543472
1783174286726038300,7.165038330078125,-0.4699101150035858,0.1551222950220108,-0.24235184490680695
1783174286736107000,7.17510693359375,-0.47892090678215027,0.29197439551353455,-0.36389824748039246
1783174286746175200,7.18517529296875,-0.4317604899406433,0.36533322930336,-0.4308549165725708
1783174286756244200,7.195244140625,-0.41305285692214966,0.372649222612381,-0.4326855540275574
1783174286766312200,7.205312255859375,-0.46281686425209045,0.31272849440574646,-0.37049224972724915
1783174286776381200,7.215381103515625,-0.5523573756217957,0.20702309906482697,-0.32996878027915955
1783174286786450200,7.2254501953125,-0.6314245462417603,0.12416595965623856,-0.33971789479255676
1783174286796518400,7.235518310546875,-0.6654829382896423,0.03224456310272217,-0.3804495930671692
1783174286806587100,7.245587158203125,-0.6673954129219055,-0.13519591093063354,-0.3526923358440399
1783174286816655000,7.255655029296875,-0.6191000938415527,-0.3389383852481842,-0.20889095962047577
1783174286826724400,7.265724365234375,-0.5181654095649719,-0.40940552949905396,-0.030155876651406288
1783174286836792300,7.275792236328125,-0.39272838830947876,-0.31020039319992065,0.09924472123384476
1783174286846861000,7.285861083984375,-0.30295997858047485,-0.09789491444826126,0.12229170650243759
1783174286856930300,7.295930419921875,-0.2352464348077774,0.07975204288959503,0.013970823958516121
1783174286866998300,7.305998291015625,-0.1442275494337082,0.07976634055376053,-0.18003660440444946
1783174286877067300,7.3160673828125,-0.04651830345392227,-0.18335957825183868,-0.32434239983558655
1783174286887135200,7.32613525390625,0.0670740157365799,-0.7736331224441528,-0.33509883284568787
1783174286897204200,7.336204345703125,0.24470871686935425,-1.4256298542022705,-0.18443132936954498
1783174286907272200,7.346272216796875,0.5656325221061707,-1.8059521913528442,0.11744995415210724
1783174286917341200,7.356341064453125,0.8055180907249451,-1.7722890377044678,0.4662574529647827
1783174286927410200,7.36641015625,0.775501549243927,-1.5539295673370361,0.5125693082809448
1783174286937478400,7.376478515625,0.42284438014030457,-1.3986822366714478,0.07701409608125687
1783174286947547100,7.386547119140625,0.0007365362253040075,-1.3532434701919556,-0.5513139963150024
1783174286957615000,7.396614990234375,-0.37679263949394226,-1.2198306322097778,-1.0895321369171143
1783174286967684400,7.406684326171875,-0.6980751752853394,-0.8154022097587585,-1.2547211647033691
1783174286977753000,7.416753173828125,-0.8883689641952515,-0.1586296260356903,-0.9683110117912292
1783174286987821000,7.426821044921875,-0.825594961643219,0.3555528521537781,-0.4536057710647583
1783174286997890300,7.436890380859375,-0.6006891131401062,0.6130869388580322,0.05623698607087135
1783174287007958300,7.446958251953125,-0.42903947830200195,0.5584253072738647,0.4052053689956665
1783174287018027300,7.45702734375,-0.414720743894577,0.18483786284923553,0.6198025941848755
1783174287028095200,7.46709521484375,-0.4334982931613922,-0.30716168880462646,0.667413592338562
1783174287038164200,7.477164306640625,-0.5386888980865479,-0.6619331240653992,0.5349237322807312
1783174287048233200,7.487233154296875,-0.7195790410041809,-0.7291949391365051,0.2688603401184082
1783174287058301200,7.49730126953125,-0.8749489188194275,-0.5226073861122131,-0.0634947121143341
1783174287068370200,7.5073701171875,-0.906679093837738,-0.13969464600086212,-0.3876047134399414
1783174287078438400,7.5174384765625,-0.8573458790779114,0.27070939540863037,-0.5370922088623047
1783174287088507100,7.527507080078125,-0.7796936631202698,0.5060736536979675,-0.5256597995758057
1783174287098575000,7.5375751953125,-0.7056721448898315,0.5313190817832947,-0.3837657570838928
1783174287108644400,7.547644287109375,-0.6387590765953064,0.3550718128681183,-0.14833950996398926
1783174287118713000,7.557713134765625,-0.5794044137001038,0.0008493061177432537,0.15620441734790802
1783174287128781300,7.56778125,-0.5195565223693848,-0.546782374382019,0.47297781705856323
1783174287138850300,7.577850341796875,-0.46413055062294006,-0.9250010251998901,0.6950747966766357
1783174287148918300,7.587918212890625,-0.4754341244697571,-0.8757062554359436,0.768404483795166
1783174287158987300,7.5979873046875,-0.492738276720047,-0.43843328952789307,0.6353425979614258
1783174287169056300,7.60805615234375,-0.37957289814949036,0.17432193458080292,0.3555889427661896
1783174287179124200,7.618124267578125,-0.2496117204427719,0.6405125260353088,0.10225146263837814
1783174287189193200,7.628193115234375,-0.19251161813735962,0.8275487422943115,-0.022617734968662262
1783174287199261200,7.63826123046875,-0.1794765144586563,0.8709478974342346,-0.026169858872890472
1783174287209330400,7.648330322265625,-0.1901102364063263,0.7612533569335938,0.0032321352045983076
1783174287219398100,7.658398193359375,-0.221024751663208,0.4961756467819214,0.05164387822151184
1783174287229467000,7.668466796875,-0.24023699760437012,0.24438713490962982,0.1002921313047409
1783174287239536000,7.6785361328125,-0.22067607939243317,0.11132867634296417,0.09185710549354553
1783174287249604000,7.68860400390625,-0.17984840273857117,0.06882261484861374,0.010938672348856926
1783174287259672800,7.6986728515625,-0.13150829076766968,0.07799134403467178,-0.07581459730863571
1783174287269741000,7.708740966796875,-0.09919167309999466,0.13433896005153656,-0.19925406575202942
1783174287279810000,7.71881005859375,-0.11534135043621063,0.2439778447151184,-0.32497310638427734
1783174287289878000,7.7288779296875,-0.15822802484035492,0.3999141454696655,-0.4542689919471741
1783174287299947000,7.738947021484375,-0.20890557765960693,0.47342273592948914,-0.5428404211997986
1783174287310016000,7.74901611328125,-0.26587289571762085,0.449128657579422,-0.5662186145782471
1783174287320084000,7.759083984375,-0.3117162883281708,0.3710455894470215,-0.5509195327758789
1783174287330153000,7.769153076171875,-0.3555299639701843,0.23274852335453033,-0.535807192325592
1783174287340221000,7.779220947265625,-0.4203534424304962,0.0879327580332756,-0.493371844291687
1783174287350290200,7.789290283203125,-0.5061727166175842,0.02547050453722477,-0.4175991415977478
1783174287360358000,7.79935791015625,-0.6095914840698242,0.08351889252662659,-0.30271115899086
1783174287370427000,7.809427001953125,-0.6943582892417908,0.1948530375957489,-0.2248574197292328
1783174287380496100,7.81949609375,-0.7152460217475891,0.232931986451149,-0.17803265154361725
1783174287390563800,7.829563720703125,-0.6885606646537781,0.20198890566825867,-0.14202360808849335
1783174287400632800,7.8396328125,-0.6180734634399414,0.09564914554357529,-0.14955821633338928
1783174287410701000,7.849701171875,-0.5290118455886841,-0.06212227791547775,-0.16234196722507477
1783174287420770000,7.85977001953125,-0.38645845651626587,-0.11424646526575089,-0.052145957946777344
1783174287430837800,7.869837646484375,-0.20854949951171875,0.11420027166604996,0.27758973836898804
1783174287440907000,7.879906982421875,0.06495821475982666,0.45742499828338623,0.5617386102676392
1783174287450976000,7.88997607421875,0.34543341398239136,0.7470947504043579,0.4487333297729492
1783174287461044000,7.9000439453125,0.3862801790237427,1.0241752862930298,0.1773529350757599
1783174287471113000,7.910113037109375,-0.0999937430024147,1.674404501914978,-0.045350100845098495
1783174287481181000,7.920180908203125,-0.06012515723705292,1.968866229057312,-0.1258569359779358
1783174287491250000,7.93025,0.8050029277801514,1.633782148361206,-0.19804513454437256
1783174287501319000,7.94031884765625,1.219469428062439,1.4723434448242188,0.07081057131290436
1783174287511387000,7.950386962890625,1.3439502716064453,1.0525182485580444,0.35387638211250305
1783174287521456000,7.9604560546875,1.266626238822937,0.24661746621131897,0.5360770225524902
1783174287531523800,7.97052392578125,0.9458874464035034,-0.8316251039505005,0.604494571685791
1783174287541593000,7.980593017578125,0.46619755029678345,-2.0671961307525635,0.45781081914901733
1783174287551661000,7.9906611328125,-0.16810637712478638,-3.43375563621521,0.26794135570526123
1783174287561729800,8.000729736328125,-0.6391199827194214,-4.117362022399902,0.05367673188447952
1783174287571799000,8.010799072265625,-0.706879198551178,-3.5947105884552,-0.10977126657962799
1783174287581867000,8.020866943359374,-0.4972827732563019,-2.0102179050445557,-0.2831087112426758
1783174287591936000,8.03093603515625,-0.09459702670574188,-0.20820464193820953,-0.4269808232784271
1783174287602004000,8.04100390625,0.34475770592689514,1.1211458444595337,-0.579972505569458
1783174287612073000,8.051072998046875,0.5114616751670837,1.5122578144073486,-0.8296593427658081
1783174287622141000,8.061140869140624,0.3833329975605011,1.2501866817474365,-1.0156432390213013
1783174287632210000,8.0712099609375,0.1354116052389145,0.5324784517288208,-1.0882054567337036
1783174287642279000,8.08127880859375,-0.060493189841508865,-0.47771576046943665,-0.8335875868797302
1783174287652347000,8.091346923828125,-0.13325467705726624,-1.4052842855453491,-0.25215861201286316
1783174287662416000,8.101415771484374,-0.15348458290100098,-1.9261685609817505,0.384533166885376
1783174287672483800,8.11148388671875,-0.06575462967157364,-1.5569919347763062,0.8299465179443359
1783174287682553000,8.121552978515625,0.17173755168914795,-0.6884579658508301,0.776729941368103
1783174287692621800,8.131621826171875,0.3413718342781067,0.2965967059135437,0.3183668851852417
1783174287702689800,8.141689697265624,0.4378701448440552,1.2511484622955322,-0.11953426897525787
1783174287712759000,8.151759033203126,0.42102566361427307,1.7104605436325073,-0.3847203254699707
1783174287722827000,8.161826904296875,0.3299751281738281,1.5459471940994263,-0.4130752682685852
1783174287732895700,8.171895751953125,0.22126169502735138,1.0310277938842773,-0.25025635957717896
1783174287742964000,8.1819638671875,0.19951485097408295,0.5413168668746948,-0.04649125784635544
1783174287753033000,8.192032958984376,0.1452641785144806,0.2811063826084137,0.22332817316055298
1783174287763102000,8.20210205078125,0.055823247879743576,0.2949758470058441,0.4338185489177704
1783174287773170000,8.212169921875,-0.020612960681319237,0.49278756976127625,0.5865790843963623
1783174287783239000,8.222239013671874,-0.043830398470163345,0.812117874622345,0.6326829195022583
1783174287793307100,8.23230712890625,-0.04134897515177727,1.0115206241607666,0.5767827033996582
1783174287803375900,8.2423759765625,-0.07347629219293594,0.9755727648735046,0.5441073179244995
1783174287813443800,8.25244384765625,-0.14101970195770264,0.6982913017272949,0.47336292266845703
1783174287823513000,8.26251318359375,-0.2046854943037033,0.3395642936229706,0.37331196665763855
1783174287833581800,8.272581787109376,-0.23409885168075562,0.10235953330993652,0.21179614961147308
1783174287843649800,8.28264990234375,-0.27211466431617737,-0.03028053790330887,0.03769172355532646
1783174287853719000,8.292718994140625,-0.36392757296562195,-0.052406247705221176,-0.03903665393590927
1783174287863787000,8.302787109375,-0.44367459416389465,0.05785421282052994,-0.04311528429389
1783174287873856000,8.31285595703125,-0.45647379755973816,0.25427481532096863,-0.0064084334298968315
1783174287883924000,8.322924072265625,-0.40081799030303955,0.4614711403846741,0.04647022485733032
1783174287893993000,8.332992919921875,-0.3343594968318939,0.5790128111839294,0.04149390757083893
1783174287904062000,8.34306201171875,-0.3262546956539154,0.4947628676891327,0.04170243442058563
1783174287914130000,8.3531298828125,-0.3390250504016876,0.3148799240589142,0.004549684002995491
1783174287924199000,8.363198974609375,-0.3397158682346344,0.23658137023448944,-0.06956129521131516
1783174287934267100,8.37326708984375,-0.3430234491825104,0.27059024572372437,-0.10448489338159561
1783174287944336000,8.3833359375,-0.39303067326545715,0.38295355439186096,-0.05062699317932129
1783174287954405000,8.393405029296876,-0.45226821303367615,0.4888840615749359,0.02925562858581543
1783174287964473000,8.40347314453125,-0.46546897292137146,0.5517823696136475,0.16252367198467255
1783174287974541800,8.413541748046875,-0.39215606451034546,0.5556231737136841,0.34203779697418213
1783174287984609800,8.42360986328125,-0.2204548865556717,0.5439742803573608,0.48485326766967773
1783174287994679000,8.433678955078125,-0.03606529161334038,0.5598057508468628,0.6039009094238281
1783174288004747000,8.4437470703125,0.11240807175636292,0.5608856678009033,0.684748649597168
1783174288014816000,8.45381591796875,0.2332218438386917,0.4707115888595581,0.7189401388168335
1783174288024885000,8.463885009765624,0.23918838798999786,0.32105711102485657,0.6998668909072876
1783174288034953000,8.473952880859375,0.14353317022323608,0.2316492199897766,0.5439910292625427
1783174288045022000,8.48402197265625,0.01344254519790411,0.24875523149967194,0.158500075340271
1783174288055090000,8.49408984375,0.03069373592734337,-0.10525068640708923,-0.3214104473590851
1783174288065159000,8.504158935546876,0.10566757619380951,-0.4238811433315277,-0.5067228078842163
1783174288075227100,8.51422705078125,0.21360869705677032,-0.596343994140625,-0.5164741277694702
1783174288085295900,8.5242958984375,0.3311603367328644,-0.596655547618866,-0.3837893307209015
1783174288095365000,8.534365234375,0.27119284868240356,-0.7328917980194092,-0.21564656496047974
1783174288105433000,8.54443310546875,0.017250318080186844,-1.1218112707138062,-0.22364164888858795
1783174288115501800,8.554501708984375,-0.378215491771698,-1.3055363893508911,-0.5439692139625549
1783174288125570000,8.564570068359375,-0.6639567613601685,-1.1538702249526978,-1.1359611749649048
1783174288135639000,8.57463916015625,-0.6234071254730225,-0.9213498830795288,-1.5322166681289673
1783174288145707800,8.584707763671876,-0.3178330659866333,-0.8080017566680908,-1.417852520942688
1783174288155776000,8.59477587890625,0.08691399544477463,-0.7958323359489441,-1.0303618907928467
1783174288165845000,8.604844970703125,0.4308018684387207,-0.7668576836585999,-0.6406370401382446
1783174288175913000,8.614912841796874,0.4952552318572998,-0.8489901423454285,-0.41332221031188965
1783174288185982000,8.62498193359375,0.25642481446266174,-0.8051965832710266,-0.3397830128669739
1783174288196050000,8.6350498046875,-0.0839456096291542,-0.5207741856575012,-0.4460712969303131
1783174288206119200,8.645119140625,-0.317403644323349,-0.20755766332149506,-0.6311623454093933
1783174288216188700,8.655188720703125,-0.3159908652305603,-0.16976691782474518,-0.7077334523200989
1783174288226256600,8.665256591796876,-0.14295251667499542,-0.3705916404724121,-0.5819398760795593
1783174288236325400,8.675325439453125,0.07592471688985825,-0.5874505639076233,-0.27967602014541626
1783174288246393600,8.6853935546875,0.28067654371261597,-0.6912145018577576,0.03477301076054573
1783174288256462600,8.695462646484375,0.3965681195259094,-0.6420680284500122,0.24573561549186707
1783174288266530600,8.705530517578126,0.4045597314834595,-0.4819428622722626,0.2695504128932953
1783174288276599600,8.715599609375,0.3350290358066559,-0.2951408326625824,0.09230627119541168
1783174288286668500,8.72566845703125,0.48722442984580994,-0.05305977910757065,-0.09538133442401886
1783174288296736500,8.735736572265624,0.372891366481781,0.1766485720872879,-0.06404418498277664
1783174288306805500,8.745805419921876,-0.003077993867918849,0.18258635699748993,0.13890254497528076
1783174288316873500,8.75587353515625,-0.09472346305847168,0.10958954691886902,0.21353119611740112
1783174288326942700,8.765942626953125,0.012910852208733559,-0.00895201601088047,0.22150470316410065
1783174288337011500,8.776011474609374,0.14781954884529114,-0.03878476843237877,0.2418997585773468
1783174288347079400,8.786079345703126,0.2075079083442688,0.03472699970006943,0.2753376066684723
1783174288357148700,8.796148681640625,0.16433358192443848,0.26620930433273315,0.3182099163532257
1783174288367216600,8.806216552734375,-0.02198861353099346,0.555092990398407,0.32921063899993896
1783174288377285400,8.816285400390624,-0.2083764672279358,0.7348374724388123,0.287160187959671
1783174288387353600,8.826353515625,-0.260731041431427,0.7222700119018555,0.23164178431034088
1783174288397422600,8.836422607421875,-0.23161058127880096,0.5474581122398376,0.21501286327838898
1783174288407491600,8.84649169921875,-0.08840841799974442,0.41603484749794006,0.26626405119895935
1783174288417559600,8.8565595703125,0.14444869756698608,0.37081295251846313,0.3111070692539215
1783174288427628500,8.866628662109376,0.3254584074020386,0.3738819658756256,0.2693753242492676
1783174288437696800,8.87669677734375,0.34992197155952454,0.45249488949775696,0.20204445719718933
1783174288447765500,8.886765625,0.17535950243473053,0.5784520506858826,0.2553417384624481
1783174288457833500,8.89683349609375,-0.08216352015733719,0.6474375128746033,0.3965362310409546
1783174288467902700,8.90690283203125,-0.285396546125412,0.5875720381736755,0.5096055269241333
1783174288477971500,8.916971435546875,-0.32735705375671387,0.4471002519130707,0.6036882400512695
1783174288488039400,8.927039306640625,-0.2417239099740982,0.3185286819934845,0.6751834750175476
1783174288498108700,8.937108642578124,-0.09803475439548492,0.2618008553981781,0.7028788328170776
1783174288508176600,8.9471767578125,0.03894306719303131,0.35034242272377014,0.7370461225509644
1783174288518245600,8.95724560546875,0.01784980297088623,0.5646823048591614,0.66368168592453
1783174288528313600,8.967313720703125,-0.07934679090976715,0.9091976284980774,0.47403502464294434
1783174288538382600,8.977382568359374,-0.174384206533432,1.0923789739608765,0.28548377752304077
1783174288548451600,8.98745166015625,-0.2315596044063568,1.077231764793396,0.26521098613739014
1783174288558519600,8.99751953125,-0.15856893360614777,1.0285024642944336,0.3874923288822174
1783174288568588500,9.007588623046875,-0.01464186143130064,0.9104345440864563,0.5373446941375732
1783174288578656800,9.01765673828125,0.14109183847904205,0.7457090616226196,0.7240186333656311
1783174288588725500,9.0277255859375,0.2181629240512848,0.6844430565834045,0.8717673420906067
1783174288598794800,9.037794677734375,0.19065545499324799,0.6674018502235413,0.9339101314544678
1783174288608862700,9.04786279296875,0.06650607287883759,0.5297065377235413,1.1400673389434814
1783174288618931500,9.057931396484374,-0.06307408958673477,-0.1311262845993042,1.2677444219589233
1783174288628999400,9.06799951171875,-0.15979637205600739,-0.5824351906776428,0.8819714188575745
1783174288639068700,9.078068603515625,-0.3323017656803131,-0.7097266316413879,0.35477036237716675
1783174288649136600,9.08813671875,-0.4354633092880249,-0.7206466794013977,-0.04758106544613838
1783174288659205600,9.09820556640625,-0.3821931779384613,-0.46313390135765076,-0.26370617747306824
1783174288669273600,9.108273681640625,-0.14894342422485352,-0.1134832426905632,-0.2822878658771515
1783174288679342600,9.118342529296875,0.04372933506965637,0.20678569376468658,-0.17466814815998077
1783174288689411600,9.12841162109375,-0.06421417742967606,-0.3052784204483032,-0.051788825541734695
1783174288699479600,9.1384794921875,-0.3148972690105438,-1.1658143997192383,-0.19806385040283203
1783174288709548500,9.148548583984375,-0.7089913487434387,-2.044168710708618,-0.779674232006073
1783174288719616800,9.15861669921875,-1.1705241203308105,-2.6353142261505127,-1.5520344972610474
1783174288729685500,9.168685546875,-1.440962553024292,-2.5752382278442383,-2.093507766723633
1783174288739754800,9.178754638671874,-1.3153135776519775,-2.0265235900878906,-2.3091678619384766
1783174288749822700,9.18882275390625,-0.7895234823226929,-1.2137490510940552,-2.2356433868408203
1783174288759891500,9.198891357421875,-0.21594852209091187,-0.3999904692173004,-1.9311838150024414
1783174288769959700,9.208959716796874,0.15496137738227844,0.1734679937362671,-1.6630234718322754
1783174288780028700,9.219028564453126,0.3607925772666931,0.6264172196388245,-1.5371015071868896
1783174288790096600,9.2290966796875,0.4588480293750763,0.5860320329666138,-1.2051512002944946
1783174288800165600,9.23916552734375,0.45591098070144653,0.27903932332992554,-0.48815250396728516
1783174288810234600,9.249234619140625,0.30834975838661194,-0.1923884004354477,0.3844519257545471
1783174288820302600,9.259302490234376,0.06624779850244522,-0.46609967947006226,1.0754797458648682
1783174288830371600,9.26937158203125,-0.13600969314575195,-0.48767712712287903,1.2621662616729736
1783174288840439600,9.279439453125,-0.15066765248775482,-0.3815360963344574,0.9022800922393799
1783174288850508800,9.2895087890625,0.016263006255030632,-0.1376560479402542,0.28577563166618347
1783174288860576500,9.299576416015626,0.2964356541633606,0.1947285681962967,-0.23011720180511475
1783174288870645500,9.3096455078125,0.5446345210075378,0.4610859453678131,-0.47558048367500305
1783174288880714800,9.31971484375,0.6654859781265259,0.5883272290229797,-0.44729477167129517
1783174288890782700,9.32978271484375,0.6450733542442322,0.621116578578949,-0.2668459117412567
1783174288900851500,9.3398515625,0.537482500076294,0.5505841970443726,-0.008875135332345963
1783174288910919700,9.349919677734375,0.38878756761550903,0.3535209596157074,0.24577659368515015
1783174288920988700,9.35998876953125,0.255181223154068,0.10272945463657379,0.4589732587337494
1783174288931057700,9.3700576171875,0.15137040615081787,-0.15274520218372345,0.6802870035171509
1783174288941125600,9.380125732421876,0.08868029713630676,-0.28534838557243347,0.9131394028663635
1783174288951194600,9.390194580078125,0.0896100103855133,-0.3176048696041107,1.0532786846160889
1783174288961262600,9.4002626953125,0.13033951818943024,-0.2926400601863861,1.0788661241531372
1783174288971331600,9.41033154296875,0.15507842600345612,-0.24533379077911377,1.05905282497406
1783174288981399600,9.420399658203126,0.1687273383140564,-0.18860876560211182,1.0610610246658325
1783174288991468500,9.430468505859375,0.16220206022262573,-0.07654988020658493,1.1111446619033813
1783174289001537500,9.44053759765625,0.08402400463819504,0.04165782034397125,1.1501774787902832
1783174289011605500,9.45060546875,-0.0689072236418724,0.10610099136829376,1.1441457271575928
1783174289021674800,9.4606748046875,-0.23233798146247864,0.1322106420993805,1.0899512767791748
1783174289031742500,9.470742431640625,-0.35918885469436646,0.12994110584259033,0.9582167267799377
1783174289041811500,9.4808115234375,-0.45910051465034485,0.03986727446317673,0.7286435961723328
1783174289051879700,9.490879638671874,-0.5223498344421387,-0.19780173897743225,0.4441423714160919
1783174289061948400,9.500948486328125,-0.5758995413780212,-0.4926193952560425,0.2461935579776764
1783174289072017700,9.511017578125,-0.653548002243042,-0.7945270538330078,0.1637071967124939
1783174289082085600,9.521085693359375,-0.7736358642578125,-1.0596187114715576,0.23974333703517914
1783174289092154600,9.531154541015624,-0.8863562941551208,-1.0595697164535522,0.4050249457359314
1783174289102222600,9.54122265625,-0.9159257411956787,-0.8182547092437744,0.4692484140396118
1783174289112291600,9.55129150390625,-0.9063761830329895,-0.4737870395183563,0.37268567085266113
1783174289122360600,9.561360595703125,-0.8937288522720337,-0.13334807753562927,0.18881191313266754
1783174289132428500,9.571428466796876,-0.8708107471466064,0.006161618512123823,0.041243232786655426
1783174289142497500,9.58149755859375,-0.8161702752113342,0.03959812968969345,-0.020322473719716072
1783174289152565500,9.5915654296875,-0.7352860569953918,0.008998144418001175,0.022313669323921204
1783174289162634500,9.601634521484375,-0.6619992256164551,-0.0012601343914866447,0.0978248342871666
1783174289172702500,9.611702392578126,-0.6045010685920715,-0.029468335211277008,0.15492379665374756
1783174289182771700,9.621771728515625,-0.6180593967437744,-0.3447214961051941,0.7306885719299316
1783174289192840700,9.6318408203125,-0.4511508047580719,-0.8488634824752808,0.43813183903694153
1783174289202908400,9.641908447265624,-0.3781438171863556,-0.3038114905357361,0.09391381591558456
1783174289212977700,9.651977783203124,-0.28141674399375916,0.21477361023426056,-0.08487297594547272
1783174289223044900,9.662044921875,-0.21048930287361145,0.45652446150779724,-0.1630943864583969
1783174289233113900,9.67211376953125,-0.20330436527729034,0.6214870810508728,-0.26983413100242615
1783174289243181800,9.682181884765624,-0.24611932039260864,0.6403791904449463,-0.40379536151885986
1783174289253250800,9.692250732421876,-0.08287713676691055,0.6176608204841614,-0.3328673839569092
