time,seconds_elapsed,z,y,x
1783169822727712300,0.062712158203125,0.042862113387882705,0.044023850643634795,-0.004620499407500029
1783169822737781200,0.07278125,0.04848989014178514,0.06872048500478267,-0.0034585977549664673
1783169822747851000,0.08285107421875,0.07877659959495067,0.07281856797337531,-0.04438570622596889
1783169822757921300,0.09292138671875,0.011617372557520865,0.07312544196546077,-0.0676877809561789
1783169822767990000,0.102989990234375,-0.00947919148504734,0.0651642538279295,-0.056865887891594316
1783169822778060300,0.113060302734375,-0.011720832931995391,0.05551905812621116,-0.05811771458359435
1783169822788130300,0.12313037109375,-0.0006704466074705124,0.08239128296077251,-0.017586583160236476
1783169822798199300,0.13319921875,0.03107698304802179,0.07237433133721351,-0.00975408116998151
1783169822808269300,0.143269287109375,0.00990793829113245,0.037841947138309476,-0.0005267820867709815
1783169822818339000,0.153339111328125,0.006308452494442463,0.013113748595118522,0.02252535473667085
1783169822828408300,0.163408203125,0.024185762229561803,0.014344167172908782,0.024842490838933733
1783169822838478000,0.17347802734375,0.051504269526898856,0.007930208477377892,0.05784799426412209
1783169822848547000,0.183547119140625,0.0712853670567274,0.015343115082383155,0.059057972842082376
1783169822858617000,0.1936171875,0.0013508300870656966,0.01599777959883213,0.04429335176739842
1783169822868687000,0.20368701171875,-0.008075754427909851,0.027459669333696365,0.023500940036866813
1783169822878756000,0.213756103515625,0.02852291465103626,0.00032791678011417387,0.08505823714770376
1783169822888826000,0.223826171875,0.02850771708190441,-0.010811316871643066,0.104620540827699
1783169822898896000,0.233895751953125,0.022341011145710944,-0.011412789896130562,0.09322663829512894
1783169822908965000,0.243965087890625,0.04614654188603162,0.020191139635443688,0.09546422462146728
1783169822919035000,0.254034912109375,0.06531038430035115,0.07872866879999638,0.028261414170637725
1783169822929105200,0.264105224609375,0.0323792978182435,0.06445230616629123,0.010983586432319134
1783169822939174100,0.274174072265625,-0.009817337398231029,0.014178747478127479,0.03820451510669663
1783169822949244000,0.284243896484375,0.12956541432887314,-0.01741466065943241,0.04369642705386504
1783169822959314200,0.294314208984375,0.18383973309099674,0.04926292034089565,0.031789624829404055
1783169822969383000,0.3043828125,0.19381927531361579,0.08796703726649284,-0.023193463256582617
1783169822979453200,0.314453125,0.21305267583280801,0.0705623134791851,-0.0822427048029378
1783169822989523200,0.324523193359375,0.09108487702608108,0.06142623634338379,-0.1322812308925204
1783169822999592200,0.33459228515625,0.0868880098581314,-0.0018307225584983824,-0.13037744309781119
1783169823009662200,0.344662109375,0.05712824688851833,-0.005665186154842377,-0.13668980458239094
1783169823019732000,0.35473193359375,-0.048501872840523715,0.008648585879802703,-0.13258567546550185
1783169823029801200,0.36480126953125,-0.07221767947077751,-0.0015063129097223282,-0.14099511882718652
1783169823039871000,0.37487109375,-0.07571341263204813,0.008790040177106856,-0.08033754703504964
1783169823049941000,0.38494091796875,0.1364145495712757,-0.01603869613111019,-0.03463202691478655
1783169823060010000,0.395010009765625,0.07356178755611181,0.005003507375717163,-0.04065742468414828
1783169823070080000,0.405080078125,-0.34049276857078076,0.12046177815794944,-0.048669703688099974
1783169823080149200,0.415149169921875,-0.07777940525114536,0.08740063555538653,-0.00969097107220441
1783169823090219000,0.425218994140625,0.14118395593017338,0.033864860200881954,0.04855011416273191
1783169823100289000,0.4352890625,0.04579144483804703,0.035498014360666276,0.013705960600916296
1783169823110358000,0.44535791015625,-0.008611468739807605,0.02300385896861553,0.04609499436188489
1783169823120428000,0.455427978515625,-0.006686345896124839,0.0014969605594873428,0.037663156505301595
1783169823130498000,0.465498046875,0.19120996959805486,-0.02563771460354328,0.08134129898380488
1783169823140567000,0.475567138671875,0.5605234667226672,-0.018030162209272383,0.10127015268756076
1783169823150637000,0.485636962890625,0.2168675579458475,0.11846680494844913,0.11861313635027035
1783169823160707000,0.49570703125,-0.17784429206848143,0.2291501164138317,0.06430009301295504
1783169823170776000,0.505776123046875,-0.06464870552122592,0.118511813133955,0.00734152186922729
1783169823180846000,0.51584619140625,-0.04885901571512222,0.005052607214450836,0.00305936930431053
1783169823190916000,0.525916015625,0.15903583896309137,-0.03850128782987594,-0.03789501076610759
1783169823200984800,0.53598486328125,0.3786234695225954,-0.0461585245847702,-0.007427501385938375
1783169823211055000,0.54605517578125,0.2776803385660052,0.04147182807326317,-0.07241705623408778
1783169823221125000,0.556125,-0.08517185359001159,0.061707391372323034,-0.020129837902262807
1783169823231194000,0.566194091796875,-0.1657701156541705,0.06673369510173797,-0.031553678915370253
1783169823241264000,0.57626416015625,-0.042619244542717934,0.05836626425087452,-0.043167197281680995
1783169823251334000,0.586333984375,-0.007095218957960605,0.004581482571363449,0.013209938978590071
1783169823261403100,0.596403076171875,-0.40168694972395896,0.011402268502116203,-0.06124837729213759
1783169823271473200,0.60647314453125,-0.04948562318086624,-0.004557517173886299,-0.11811596395047382
1783169823281543000,0.61654296875,0.041162615993618965,0.025263620594143867,-0.03606737521383911
1783169823291612200,0.626612060546875,-0.024414894810318947,0.07798515695631504,-0.05508238374199718
1783169823301682000,0.636681884765625,-0.024940379989147186,0.14077625191211698,-0.06871412832923234
1783169823311751200,0.646751220703125,0.011831307569146155,0.14508768537044525,-0.07216479850606992
1783169823321821000,0.656821044921875,-0.037675942921638485,0.11237550233602524,-0.04841834100922569
1783169823331891000,0.666890869140625,-0.028738018706440924,0.061518590801954265,-0.00039699996095150705
1783169823341960000,0.6769599609375,-0.048638650962710375,0.04555237538516521,0.0009783161133993417
1783169823352030000,0.687030029296875,-0.049429216818511486,0.048805239701271055,0.009253922228654846
1783169823362100200,0.697100341796875,-0.017263269490003584,0.055748190706968306,0.016807452013902366
1783169823372169000,0.7071689453125,0.013509469914436339,0.07562602660953999,0.0024407807482406496
1783169823382239000,0.717239013671875,-0.04268938716948032,0.016247370445728302,-0.016648717788234353
1783169823392309000,0.72730908203125,0.05982815349698067,0.023983517655730247,0.017281901125237344
1783169823402378000,0.7373779296875,0.1517693550914526,-0.004656301373243332,0.029207024457678196
1783169823412448300,0.7474482421875,0.14613047242164612,-0.02991933744549751,0.01768426224789582
1783169823422518000,0.75751806640625,0.13277882341742514,-0.02470481766760349,0.017509526735497636
1783169823432587300,0.767587158203125,0.16348989576250314,-0.016570611050724982,0.012112435198621823
1783169823442657000,0.777656982421875,0.18252660466581583,-0.058117257925868034,0.021378066131379454
1783169823452727000,0.78772705078125,0.1301166184708476,-0.07342705526053905,0.03377737371367402
1783169823462796000,0.797796142578125,0.10542553706765175,-0.11610592103600502,0.05579753714087419
1783169823472866000,0.807865966796875,0.10377630855590105,-0.07889116588532924,0.016968706990219653
1783169823482936000,0.81793603515625,0.10242167907655239,-0.06642156041264534,-0.028418047770764676
1783169823493005000,0.828005126953125,0.062328153619170185,-0.0809977827757597,0.11059334076014346
1783169823503075000,0.838074951171875,0.13657821570038794,-0.01590542514026165,0.046263692859141156
1783169823513145000,0.84814501953125,0.07795943799316883,0.030858079600334164,-0.07457379587655887
1783169823523214000,0.858214111328125,-0.048936464865505694,0.027612814068794247,-0.015252267594309523
1783169823533283800,0.868283935546875,0.016175766514241696,0.009115618869662284,-0.06173362179212272
1783169823543353000,0.87835302734375,0.016140402939915657,0.006055646777153015,-0.08035153902778401
1783169823553423000,0.888423095703125,-0.07411620656847953,-0.011682254487276077,-0.06383811979070306
1783169823563493000,0.8984931640625,-0.004171732726693153,0.0186830731600523,-0.06083694694703445
1783169823573562000,0.90856201171875,0.04124824845045805,0.08590601308345794,-0.05135546304020099
1783169823583632000,0.9186318359375,0.015339023429155349,0.0712462040901184,-0.08654382692980579
1783169823593702100,0.9287021484375,-0.0774333682924509,0.05425298371315002,0.08474541747202165
1783169823603771000,0.93877099609375,0.08960428307950496,0.1544797830939293,-0.0440355684808921
1783169823613841200,0.948841064453125,-0.015268880802392958,0.29922844576835633,-0.0007623809409327805
1783169823623911200,0.9589111328125,-0.020288462530076504,0.1751134057998657,-0.017691724035143852
1783169823633980200,0.968980224609375,-0.05723667569905519,0.11994155367612838,0.010862307273363694
1783169823644050200,0.97905029296875,-0.00015256021320819854,0.04897650461494922,0.04554073061314411
1783169823654120000,0.989119873046875,-0.029115035325288773,0.07959960641562938,0.010578001306112856
1783169823664189200,0.999189208984375,-0.03517535827755928,0.07673486463427544,0.033397608015313746
1783169823674259000,1.009259033203125,-0.0059635845795273775,-0.0023994623571634292,0.0804201564177405
1783169823684329000,1.019328857421875,0.03941723363101482,0.13771101912260056,0.0020019235400948673
1783169823694398200,1.029398193359375,-0.09380641094446182,0.2912695957183838,0.020075020708795636
1783169823704468000,1.039468017578125,-0.03783259478807449,0.18290040641427038,0.11596491426327266
1783169823714538000,1.0495380859375,0.025146131694316863,0.1641781702876091,0.019339308579079804
1783169823724607000,1.05960693359375,-0.06037409694194793,0.10926000066399574,0.04764953946066089
1783169823734677000,1.069677001953125,-0.09310849180817604,0.16863398065268992,0.02323574976203963
1783169823744746000,1.07974609375,-0.10380348882377147,0.1519873817563057,-0.015516371023748069
1783169823754816000,1.08981591796875,-0.09400222577750682,0.15081190823614596,-0.0014350651712622493
1783169823764886000,1.099885986328125,-0.07253653616160154,0.14415478843450547,-0.022422195756295695
1783169823774955000,1.109955078125,-0.05806728130429983,0.1357961254119873,-0.05120366087881848
1783169823785025000,1.12002490234375,-0.05173047949820757,0.08450549863576888,-0.04339497815556824
1783169823795095000,1.130094970703125,0.00774900669157505,0.04462766175568104,-0.05268550606756471
1783169823805164000,1.1401640625,0.038996962392330164,-0.026297639816999435,-0.035198949215700846
1783169823815234300,1.150234375,0.023488135354220865,-0.012408230674266815,-0.018058374523604287
1783169823825304000,1.160303955078125,0.008069324687123298,0.010628946042060852,-0.0469571641491726
1783169823835373000,1.170373046875,0.009093407037854193,0.03477846791446209,-0.04274423176241107
1783169823845443000,1.180443115234375,0.0034849195063114164,0.015461188504099844,-0.028452909021591765
1783169823855512800,1.190512939453125,0.013939678025245665,0.016876315999031066,0.010057868155837058
1783169823865581800,1.200581787109375,0.02512450438439846,0.03041618105173111,0.0322898111701943
1783169823875651800,1.21065185546875,0.07314063953459263,0.12731880444586277,0.029242287567304445
1783169823885721600,1.2207216796875,-0.08448094871640205,0.15326047043204308,0.003237685013283044
1783169823895790800,1.230790771484375,0.05285714544057846,0.01882160484790802,0.07584640049510635
1783169823905860600,1.240860595703125,0.07181669745445252,0.031044542083144187,0.04778474668026902
1783169823915930600,1.2509306640625,-0.0304775558501482,0.06680091511905192,0.021549650705466047
1783169823925999900,1.260999755859375,0.051264323291182516,0.06067103406190872,-0.02851483180928044
1783169823936069600,1.271069580078125,0.024244506679475305,0.07803250322937964,-0.08770408461452461
1783169823946140000,1.281139892578125,0.0025870938837528226,0.05326572624146938,-0.09640334123563953
1783169823956208600,1.291208740234375,0.04663870931714773,0.030815409502387044,-0.05810184116102755
1783169823966279000,1.30127880859375,-0.021781039175391197,0.10127718521654605,-0.06496214625141583
1783169823976347600,1.31134765625,-0.08521569273173808,0.10935644677579402,-0.046829720110911875
1783169823986417700,1.321417724609375,-0.03834054431021213,0.11855974392890929,-0.0031034733075182884
1783169823996488000,1.331488037109375,0.05467383947372436,0.11407763007879257,-0.006984899584436789
1783169824006556700,1.341556640625,0.0684182871878147,0.08528875796794891,0.003909072335669771
1783169824016627000,1.351626953125,0.03079816610664129,0.02912380315363407,-0.002760194561490789
1783169824026696700,1.36169677734375,0.001301145726442337,0.0051221653193235395,-0.01151185722327791
1783169824036765700,1.371765625,0.0450648841291666,-0.03885141644179821,0.014165139077883212
1783169824046835700,1.381835693359375,-0.00021685762107372282,-0.003562660917639732,0.0047510304519906635
1783169824056905700,1.39190576171875,-0.03566109596788883,0.010877952367067336,0.01576683865347877
1783169824066975000,1.40197509765625,-0.005254559527337551,0.04087620026767254,0.023488153620529917
1783169824077044700,1.412044677734375,0.05324205310493707,0.06202654032409191,-0.0036039975750260054
1783169824087114800,1.42211474609375,0.10130465774536132,0.02172024889886379,0.027226024974603205
1783169824097183700,1.432183837890625,0.09341799614876509,-0.01272387249469757,0.007613571143103763
1783169824107253800,1.442253662109375,0.03836772457808256,-0.03860474820435047,0.047254959785658864
1783169824117323800,1.45232373046875,0.0417144046574831,-0.022538579544425008,0.04032583637591451
1783169824127392800,1.462392822265625,0.06623568245172501,-0.007983984491229057,0.015944003584980965
1783169824137462800,1.472462890625,-0.039004561176896095,0.018136545193195342,0.04098554239366203
1783169824147532800,1.48253271484375,0.08693418708741664,-0.003889408653974533,0.0034184849402867255
1783169824157601800,1.492601806640625,-0.07105009699612856,0.037598786032199856,0.15469711563903837
1783169824167671800,1.502671875,0.0862350989073515,0.23610066620409487,-0.023216013015108183
1783169824177740800,1.51274072265625,0.06785188547670841,0.20876140837967394,-0.06487890668106265
1783169824187810600,1.522810546875,-0.014442366850376129,0.07152209842205047,0.002853069609869271
1783169824197880800,1.532880859375,-0.003834463596343994,0.0730675742983818,-0.06666739753303118
1783169824207949800,1.54294970703125,0.04122106818258762,0.030893735435605047,-0.05044375502276234
1783169824218019800,1.553019775390625,-0.02211509343534708,0.11644319016635417,-0.06513679043226875
1783169824228089900,1.56308984375,-0.0989504958346486,0.14259060785770417,-0.0705390239351429
1783169824238158600,1.57315869140625,0.02601502348333597,0.11180208636224269,-0.021149052281631154
1783169824248228900,1.583228759765625,0.03640490007251501,0.08896540065407753,-0.00019717567306943236
1783169824258299000,1.593298828125,0.006474456711113453,0.07371990072727203,-0.009378334059612825
1783169824268368000,1.603367919921875,-0.005870937860012054,0.052308279386162754,-0.023574863789603114
1783169824278438000,1.61343798828125,0.005474924279749393,0.06858546044826506,-0.007974568208912387
1783169824288507600,1.623507568359375,0.02899871546924114,0.03480710948705673,0.0034540768434759227
1783169824298577000,1.633576904296875,0.012338964830338955,0.013877718704938887,-0.048099246856383976
1783169824308646700,1.643646728515625,0.021114099699258804,0.03197685449719429,-0.028235421212855726
1783169824318716700,1.653716552734375,-0.0018424129962921142,0.016280688193440435,-0.01960569529714994
1783169824328785700,1.66378564453125,0.008482581663131714,0.013687164568901062,0.002355221356637776
1783169824338855700,1.673855712890625,0.014606909762322902,0.023564415460824967,-0.005272634040145203
1783169824348925000,1.683925048828125,0.07486614815294743,0.028013796085119246,0.011676464067306368
1783169824358994700,1.69399462890625,0.07407792038470506,0.0231751238822937,0.015412380926311016
1783169824369064700,1.704064697265625,0.06165566118508577,0.026437340548634527,0.004555745341908187
1783169824379133700,1.7141337890625,0.06774608701467513,0.021227496945858,0.000517813329026103
1783169824389203700,1.72420361328125,0.06037818859517574,0.02688333075046539,0.001209604118624702
1783169824399274000,1.73427392578125,0.05508066670894622,0.040783261287212366,-0.017934675078699364
1783169824409342700,1.7443427734375,0.060223582555353636,0.04462999984323978,-0.021447249776916578
1783169824419412700,1.754412841796875,0.03913227920979261,0.038465047472715376,0.018707540881028398
1783169824429482800,1.764482666015625,-0.008279752567410469,0.03512041321992874,0.018239558043098077
1783169824439551700,1.7745517578125,0.006266951440274715,0.05501812286674976,0.006019242023210972
1783169824449621800,1.784621826171875,0.03696399526000023,0.027303017467260358,0.020884702257020396
1783169824459691800,1.79469189453125,0.04679799153208732,0.020116320833563805,0.030651907770056275
1783169824469760800,1.8047607421875,0.04798457096815109,0.01007657285630703,0.02106574877919629
1783169824479830800,1.814830810546875,0.025537761360406874,0.02561199564039707,0.019432548953639342
1783169824489900800,1.82490087890625,0.03907031988948583,0.09567805003523826,0.00405431689210236
1783169824499969800,1.8349697265625,0.03005436200201511,0.06453297018706798,-0.004176080108247697
1783169824510039800,1.845039794921875,0.03699731300771236,0.06909574805796145,-0.02818985590492375
1783169824520108800,1.85510888671875,0.06960135949254036,0.0919686741232872,-0.07378469132548197
1783169824530178800,1.8651787109375,-0.10753712239414454,0.11613222452104091,-0.09635825085174292
1783169824540248800,1.875248779296875,-0.06819470756500959,0.005885550907254219,-0.033187700724834575
1783169824550317800,1.88531787109375,0.0030050270348787305,0.008607669347524643,-0.0359265602373518
1783169824560387800,1.895387939453125,0.010633037695288658,0.036111762344837185,-0.0541990159030538
1783169824570457600,1.90545751953125,0.048026656544208526,0.013449264159798621,-0.06745752499741502
1783169824580526800,1.91552685546875,0.028452187502384183,0.007919687083363533,-0.04418659432413988
1783169824590596600,1.9255966796875,0.03515665357708931,0.024250059637427327,-0.025635202986048534
1783169824600667000,1.9356669921875,0.06752192286998034,0.037999768048524854,0.02082735517974943
1783169824610735900,1.94573583984375,0.09437631978690623,0.07214578327834606,0.023076275750854983
1783169824620805600,1.9558056640625,0.10791150866448879,0.0649462271630764,0.02353447698028758
1783169824630876000,1.9658759765625,0.10467501096129417,0.016693360647559163,0.016011735058948397
1783169824640944600,1.975944580078125,0.09692541974782944,-0.04304360743463039,0.012567047098325564
1783169824651015000,1.986014892578125,0.08290273961424827,-0.03745207103788852,0.03787001332216896
1783169824661083600,1.996083740234375,0.059767070959508416,-0.03759995507597923,0.03553822764004581
1783169824671153700,2.006153564453125,0.03037380321472883,-0.027421675410866736,0.05660545599027537
1783169824681224000,2.016223876953125,0.02466653148382902,0.001197100830078125,0.05578433973258361
1783169824691292700,2.026292724609375,0.02593494398444891,0.05016483761668205,0.030179011294990777
1783169824701363000,2.036363037109375,0.04380611623972654,0.05842179383039474,-0.012559804506786168
1783169824711432700,2.0464326171875,0.06098813718706369,0.06683131025731563,-0.02260168964220211
1783169824721502000,2.056501953125,0.03622866672277451,0.06474222902357578,-0.05257200835626572
1783169824731571700,2.06657177734375,-0.034190731154382224,0.047050504988431927,-0.06934177697459236
1783169824741641700,2.076641845703125,-0.0336363121420145,0.04436696499288082,-0.04804595489972271
1783169824751711000,2.0867109375,0.0131473586037755,0.04271276804506779,-0.04203669541440904
1783169824761780700,2.09678076171875,0.06125526369065046,0.04827390930354595,-0.04301108427136205
1783169824771850800,2.106850830078125,0.06408376511484384,0.07092120991945267,-0.02915825341250747
1783169824781919700,2.116919677734375,0.04232435324937105,0.0849012199550867,-0.03787356611927971
1783169824791989800,2.12698974609375,0.06386924558132887,0.08432546589374541,-0.012320223597250879
1783169824802059800,2.137059814453125,-0.001442307762801647,0.0720475836008787,-0.016034083888074382
1783169824812128800,2.147128662109375,0.002246317622065544,0.071664721763134,-0.02203874026350677
1783169824822198800,2.15719873046875,0.05080138195455074,0.05713935280442237,-0.011492531468300149
1783169824832267800,2.167267822265625,0.03792670281231403,0.08370587269067764,-0.007646304368926212
1783169824842337800,2.177337890625,-0.0006371288597583771,0.1016366661787033,0.0023532120626419783
1783169824852408800,2.187408935546875,0.011217559584975242,0.08311199845075606,-0.029653754445025694
1783169824862477800,2.197477783203125,0.07277180622220039,0.05850304237306118,-0.020736334161739794
1783169824872547800,2.2075478515625,0.0584235473960638,0.01599953316450119,-0.019493613224802538
1783169824882617600,2.21761767578125,0.04971095636934042,0.0022889877200126646,-0.01891302772471681
1783169824892686800,2.227686767578125,0.04587649277299642,-0.002055178964138031,0.0011913104101084172
1783169824902756600,2.237756591796875,0.0532604655444622,-0.008033668851852416,0.029961916211899368
1783169824912827000,2.247826904296875,0.03383329601883888,0.0030447745233774183,0.01620600638887845
1783169824922895600,2.2578955078125,0.03205284234285354,0.026236849540472028,0.027917569169029592
1783169824932965600,2.267965576171875,0.054020636261999606,0.05155132353901863,0.017963764175865798
1783169824943036000,2.278035888671875,0.06634294221848248,0.05056406606733799,0.013663071307260542
1783169824953104600,2.288104736328125,0.02524082424044609,0.03346913888156414,0.03308000256665982
1783169824963175000,2.2981748046875,0.02258387999087572,0.04630290149152279,0.02957413160386495
1783169824973244700,2.30824462890625,0.04592208548039198,0.04059153810739517,0.036967000067839394
1783169824983314000,2.31831396484375,0.07139613395482301,0.06144260295629501,0.027950119731761515
1783169824993384000,2.328384033203125,0.08634703484922647,0.05300386043488979,0.031624022471532225
1783169825003452700,2.33845263671875,0.04036941978931427,0.045755789002776145,0.016545787136722355
1783169825013523000,2.34852294921875,0.080801383420825,0.06408697998523712,0.013626456490764393
1783169825023592700,2.3585927734375,0.047399172295629975,0.05611702401936054,-0.00988384502949193
1783169825033662000,2.368661865234375,-0.021199732156097887,0.028903438401222226,-0.01934395735473372
1783169825043731700,2.378731689453125,-0.014151567210257053,0.057496495679020876,-0.018787501648906618
1783169825053801700,2.3888017578125,-0.01564531289935112,0.07924830875992775,-0.030629568074084818
1783169825063870700,2.39887060546875,-0.00928834508806467,0.07081599597930907,-0.04650161153455264
1783169825073940700,2.408940673828125,-0.05521598352640867,0.024832243439555167,-0.025915992688806726
1783169825084010800,2.4190107421875,0.018541618862748147,0.03617722879648209,-0.007918938164692371
1783169825094079700,2.429079833984375,0.0575716067418456,0.043293782803416246,-0.003612089549936354
1783169825104149800,2.439149658203125,0.09319032487273216,0.01866904463469982,-0.011927854145644233
1783169825114219800,2.4492197265625,0.06271539937108754,0.036706805628538126,-0.004005481914849952
1783169825124288800,2.459288818359375,0.05518149673491716,0.08064122442305087,0.00755144742601551
1783169825134358800,2.46935888671875,0.058285307969152926,0.0888923354178667,0.005918804722884669
1783169825144428800,2.4794287109375,0.053259881022572515,0.10225567485988139,0.02663133788392879
1783169825154497800,2.489497802734375,0.0639835196107626,0.040049686315655704,0.044804214765829964
1783169825164567800,2.49956787109375,0.03417056514918804,0.02167816332280636,-0.007309163102740422
1783169825174636800,2.50963671875,0.010094693034887314,-0.00025368250012397763,-0.0006965400299523025
1783169825184706600,2.51970654296875,0.03400134606212377,-0.0312923793643713,0.01960785072161816
1783169825194776800,2.52977685546875,0.052336628697812554,-0.03234042711257935,0.054362718564784154
1783169825204845600,2.539845458984375,0.00842266816943884,-0.01053834514915943,0.017648186287516725
1783169825214915800,2.549915771484375,-0.0230225636690855,0.0006190086811780929,0.02117112711612135
1783169825224985900,2.55998583984375,0.0039461072772741315,0.01495031637251377,-0.005623411106038838
1783169825235054800,2.570054931640625,0.0522822681620717,0.019128478839993475,0.019135164309106768
1783169825245124900,2.580124755859375,0.049291854174435136,0.006788052704930305,0.009476478938153014
1783169825255194600,2.590194580078125,0.02574409758746624,0.052662499651312825,-0.005058498099120333
1783169825265263900,2.600263916015625,0.026359599137306212,0.07287935824990271,-0.021668482179008422
1783169825275334000,2.610333984375,0.038353403791785236,0.09879238266348839,-0.03081517204036936
1783169825285403600,2.620403564453125,0.04968436062335968,0.07091244209110736,-0.06355084554823115
1783169825295473000,2.630472900390625,0.029530630388855932,0.06643325085043907,-0.03473604441168718
1783169825305542700,2.640542724609375,0.020600304958224295,0.058410687914490694,-0.04554233804834075
1783169825315612700,2.65061279296875,0.05656038387268782,0.0523889434069395,-0.054200458941468965
1783169825325681700,2.660681640625,0.03315174349546432,0.03658113342225552,-0.003114615756040439
1783169825335751700,2.670751708984375,0.00549509028494358,0.051414545416831964,0.03765485446783714
1783169825345820700,2.680820556640625,0.0005158405676484107,0.06511749207675456,0.022912317360797897
1783169825355890700,2.690890625,0.026419220370054244,0.0658785395771265,0.029808159555448216
1783169825365961000,2.7009609375,0.060327335190773004,0.06107786129713058,0.03192001887657679
1783169825376029700,2.71102978515625,0.031362814252078534,0.0739431880891323,0.020400946461223066
1783169825386099700,2.721099609375,0.029282208585739135,0.0855243202894926,0.008015512140654027
1783169825396169700,2.731169677734375,0.0038128362864255903,0.07413198865950107,-0.004790339549072087
1783169825406238700,2.74123876953125,0.016157938596606254,0.08222001804709433,-0.0027154786369297653
1783169825416309000,2.75130908203125,0.033897593426704405,0.08108604558110237,-0.04933704502303153
1783169825426378800,2.761378662109375,0.046750060737133024,0.07654664858579635,-0.026340282515482975
1783169825436447700,2.77144775390625,0.05173486341238021,0.04045242189764976,-0.053804408828588196
1783169825446517800,2.781517822265625,0.03536766597926617,0.02102934402525425,-0.06039572425186634
1783169825456587800,2.791587890625,0.05681845028698444,0.005846972462534904,-0.03126065991870127
1783169825466656800,2.80165673828125,0.06421411349624395,0.006376549294590949,-0.04318279670961201
1783169825476726800,2.811726806640625,0.03298457023501396,0.013198504269123076,-0.024970007942430674
1783169825486795800,2.821795654296875,0.023536066149175167,-0.005440145227313041,0.002767373220948502
1783169825496865800,2.83186572265625,0.05049041630923748,-0.025738836890459058,0.016870662576379255
1783169825506935800,2.841935791015625,-0.0034767361998558045,-0.016380056914687156,0.03192751719644293
1783169825517004800,2.8520048828125,0.021366320894658564,0.01036065049469471,0.06080266108494252
1783169825527074800,2.86207470703125,0.044838089635968206,0.023451018214225766,0.08278180751516483
1783169825537144600,2.87214453125,0.022651976791024205,0.07430442261695862,0.09910352183873765
1783169825547213800,2.8822138671875,0.056550154739618295,0.08061199832856655,0.10172082819766365
1783169825557283800,2.892283935546875,0.08162175989300012,0.10342471863925456,0.07967559426128863
1783169825567353600,2.902353515625,0.06622048488259315,0.06794307089149952,0.03360454703057185
1783169825577422800,2.9124228515625,0.017590017226338385,0.04188274696171283,-0.018547728943126274
1783169825587492600,2.92249267578125,-0.03903817118555307,0.04007774336636066,-0.04572136614336632
1783169825597563000,2.93256298828125,-0.0157005502179265,0.05003682732284069,-0.033949962934758514
1783169825607631600,2.942631591796875,-0.0056070262268185615,0.05026245277225971,-0.037036366376467046
1783169825617702000,2.952701904296875,-0.029367841042578217,0.07910042472183704,-0.03900257014920935
1783169825627770600,2.9627705078125,-0.015219780963659285,0.09325871393382548,-0.022035242265323177
1783169825637840600,2.972840576171875,-0.030328795029222963,0.09302432065606117,-0.03828021982456557
1783169825647911000,2.982910888671875,-0.020809563794732092,0.09746025727689266,-0.03239833131227642
1783169825657979600,2.992979736328125,-0.004969020584225654,0.06738309892117977,0.0009615659079980105
1783169825668050000,3.0030498046875,-0.020854864241182804,0.04369184221029281,0.018568908728472888
1783169825678119700,3.01311962890625,-0.02792202614843845,0.028974165549874305,0.027190076878387478
1783169825688188700,3.023188720703125,-0.0009106851041316985,0.023432898035645484,0.02009318655314855
1783169825698259000,3.033259033203125,0.03701630996912718,0.06757540662288665,0.031160268284147603
1783169825708328700,3.04332861328125,0.08648936592936515,0.12084990069270134,-0.003919959055865183
1783169825718398000,3.05339794921875,0.06272972015738487,0.13315700908005237,-0.05433312714411877
1783169825728467700,3.0634677734375,-0.07405746211856604,0.11719897696971893,-0.04277583247707225
1783169825738537700,3.073537841796875,0.03623305063694715,-0.01949263597726822,-0.01108596909455955
1783169825748606700,3.083606689453125,0.022199264587461947,0.014728782576322555,-0.02308208443713374
1783169825758676700,3.0936767578125,0.01955839468985796,0.050341363227367396,-0.027365716573083773
1783169825768746800,3.103746826171875,0.01896919662505388,0.021685762107372282,-0.030736754775606095
1783169825778815700,3.113815673828125,0.06086246498078107,-0.010711948150396347,0.0029723577411379662
1783169825788885800,3.1238857421875,0.0430064902946353,-0.020419687694311142,0.00885473944377154
1783169825798954800,3.133954833984375,0.01680646563321352,0.021871640068292616,-0.012421619878802448
1783169825809024800,3.144024658203125,0.0436444959372282,0.0366121130824089,-0.015344914313824846
1783169825819094800,3.1540947265625,0.050531332841515536,0.046188919723033905,0.009547187820496038
1783169825829163800,3.164163818359375,0.025835283002257344,0.04245090223848819,-0.006692236780794337
1783169825839233800,3.17423388671875,-0.004292728757858276,0.010891980892419814,-0.006193301682174205
1783169825849303800,3.1843037109375,-0.023047698110342026,0.0003805237501859665,0.03395478524034843
1783169825859371800,3.194371826171875,0.00720481681227684,0.0011216975063085555,0.07547214208892546
1783169825869441800,3.20444189453125,0.025190847618877885,0.003050619742274284,0.0744270854488248
1783169825879511800,3.21451171875,0.011039280408620834,0.0546416907697916,0.07983884026529267
1783169825889580800,3.224580810546875,-0.0025490999609231947,0.05252162987589836,0.07777008030037395
1783169825899650800,3.23465087890625,0.0045262452527880664,0.08789514107406139,0.08171793201016261
1783169825909720600,3.244720458984375,0.01997662010192871,0.07996025642156601,0.07083074602386914
1783169825919789800,3.254789794921875,-0.022946283562481403,0.08893792812526226,0.03434369322638958
1783169825929859800,3.26485986328125,-0.042512277036905285,0.10834756199419497,0.007030697787809185
1783169825939929600,3.2749296875,-0.06909954745024442,0.10835282269120215,-0.03328470395905897
1783169825949998800,3.284998779296875,-0.09493132332116365,0.1134966153204441,-0.04166342795549426
1783169825960068600,3.295068603515625,-0.07360095052272081,0.08113456089794635,-0.029645073381648398
1783169825970137900,3.305137939453125,-0.06024871699661016,0.0700438425630331,-0.01605870687267743
1783169825980207600,3.31520751953125,-0.05134937122613191,0.08107610870897769,-0.017975463746814056
1783169825990278000,3.32527783203125,-0.07394406487196684,0.09386486313343048,-0.029798350547486915
1783169826000346600,3.3353466796875,-0.0759340696454048,0.06722352444529534,-0.0005825902275042608
1783169826010416600,3.345416748046875,-0.06149900931864977,0.04439443752169609,-0.014271983286109752
1783169826020487000,3.35548681640625,-0.06969137586355209,0.034897125858068465,-0.026708188812690787
1783169826030555600,3.3655556640625,-0.08217500986158847,0.03911503581404686,-0.024090859620878473
1783169826040626000,3.3756259765625,-0.06941080535650253,0.052395373147726056,0.002097132109454833
1783169826050695700,3.38569580078125,-0.032732933561503884,0.053318333211541176,-0.007781233027321286
1783169826060764700,3.3957646484375,-0.03069938190728426,0.06258768133819102,0.010935167013597674
1783169826070835000,3.4058349609375,0.004860007251799106,0.08591127378046512,0.01696100317437667
1783169826080904700,3.41590478515625,0.042160394859313964,0.11259177543520926,0.014141237612487747
1783169826090974000,3.425973876953125,0.02280395248234272,0.09540741640031337,0.008327724461560137
1783169826101043700,3.436043701171875,0.021461305701732634,0.08791969099342822,0.03276236971854232
1783169826111113000,3.446113037109375,-0.00035889644026756285,0.07327741765677928,0.012295221586734987
1783169826121182700,3.4561826171875,0.025125088906288146,0.0760433752387762,-0.013992161697731353
1783169826131252700,3.466252685546875,0.020925299128890035,0.07778875760138035,-0.044406653115875085
1783169826141321700,3.47632177734375,0.0066296472728252405,0.0897948372155428,-0.033932267447863707
1783169826151391700,3.486391845703125,0.0030120412975549694,0.06053893211483955,-0.023724574458599088
1783169826161461800,3.496461669921875,-0.01687485469430685,0.07211012744307517,-0.025105891015473752
1783169826171530800,3.50653076171875,-0.009590835165977477,0.08704758433401584,-0.012270155644137411
1783169826181600800,3.516600830078125,0.043697102907299994,0.0858206728875637,-0.029656024033925494
1783169826191670800,3.5266708984375,0.028045360267162322,0.06897825915813445,-0.027188565341313368
1783169826201739800,3.53673974609375,0.0329132585644722,0.07440905203521252,-0.0029278290462447327
1783169826211809800,3.546809814453125,0.011147709219157696,0.025642975300550458,0.016998773334920406
1783169826221879800,3.5568798828125,0.013695347875356673,0.027184359523653983,0.017106147266109473
1783169826231948800,3.56694873046875,0.04509937092065811,0.016574118182063103,-0.0038741060535656285
1783169826242018800,3.577018798828125,0.028465046983957288,-0.008037175983190536,0.004183140036696568
1783169826252087800,3.587087890625,0.013735095363855362,0.00802607006728649,-0.018520315779815427
1783169826262157600,3.597157470703125,0.05407499679774046,0.005728314518928528,0.00479021625148598
1783169826272227800,3.607227783203125,0.07255027242600917,0.0304208572268486,-0.006261457847827114
1783169826282296600,3.617296630859375,0.0450453026458621,0.07438800924718379,0.032928405901254156
1783169826292366800,3.627366943359375,0.10623656118959188,0.03842237737476825,0.047869146161247045
1783169826302436900,3.637436767578125,0.10925035605281591,0.0002636193722486496,0.05673968139577191
1783169826312505600,3.647505615234375,0.051393210367858405,-0.004492635244131088,0.042791454737889575
1783169826322576000,3.657575927734375,0.07905278618782759,0.0206610952347517,0.03802223104208242
1783169826332646000,3.66764599609375,0.09275690189152956,0.04490706321895122,0.014455536859203129
1783169826342715000,3.67771484375,-0.00649374593347311,0.048043023157119745,0.0038022555269068103
1783169826352785000,3.687784912109375,-0.07436024445742369,0.044594928529858587,-0.03496861562512349
1783169826362854700,3.697854736328125,-0.021290040788054465,0.05222878440916538,-0.02758546027098782
1783169826372924000,3.707923828125,0.001079027408361435,0.052663084173202514,-0.052428942057187664
1783169826382993700,3.71799365234375,0.011547229930758476,0.059172319936752316,-0.04615813185912557
1783169826393063000,3.72806298828125,0.036899113330245016,0.07791969050467014,-0.049971406536968424
1783169826403132700,3.738132568359375,0.07200520576387644,0.07375964821577072,-0.03464667649464682
1783169826413202700,3.74820263671875,0.09954992303252219,0.06123334411978721,0.0073479287771275265
1783169826423271700,3.758271728515625,0.06736965491771697,0.04020400009453296,0.040528533040895126
1783169826433341700,3.768341796875,0.04156009087860584,0.0606762947589159,0.03680860833546612
1783169826443411700,3.77841162109375,0.0774421361207962,0.07092237896323203,0.026535142933879978
1783169826453480700,3.788480712890625,0.06053893211483955,0.043314825591444964,0.04234044130106922
1783169826463550700,3.79855078125,-0.011819909392297268,0.028706454524397847,0.02914874579864554
1783169826473621000,3.80862109375,-0.005983750584721565,0.03372048329412937,0.028126197817875072
1783169826483689700,3.818689697265625,0.010253682988882065,0.03426701126098632,0.029804045069334095
1783169826493759700,3.828759765625,0.02118131971657276,0.05045709856152534,0.019246419830969533
1783169826503829800,3.838829833984375,0.02033084036707878,0.0431435606777668,-0.03375889734206721
1783169826513898800,3.848898681640625,0.01692541583776474,0.03453647585213184,-0.03802661495625507
1783169826523968800,3.85896875,0.0019096330136060713,0.00566109450161457,-0.035218325203028505
1783169826534037800,3.869037841796875,0.0037245734810829162,0.016979776373505593,-0.02746384775189217
1783169826544107800,3.879107666015625,0.004201543343067169,0.00021978023052215574,-0.03752399919636082
1783169826554177800,3.889177734375,0.012113631641864776,0.021481179445981977,-0.013789140805765054
1783169826564246800,3.899246826171875,0.04097498446702957,0.04723170677423477,-0.002630946725211106
1783169826574316800,3.90931689453125,0.02060088948011398,0.06390110202431679,0.01822865305659361
1783169826584386800,3.91938671875,0.0013245266020298003,0.10562661259770392,0.03163784093433059
1783169826594455800,3.929455810546875,0.02085807911157608,0.10906477035284041,0.025272918145451694
1783169826604525800,3.93952587890625,0.00324818814098835,0.10986790342926979,0.01393926703329198
1783169826614595800,3.949595947265625,-0.009506079491972923,0.10582301195263862,0.0045160526523366565
1783169826624664800,3.959664794921875,0.022956512695550917,0.06607026275694369,-0.01792967924317345
1783169826634734800,3.96973486328125,0.002824117510020733,0.023290859216451642,-0.030840361280553043
1783169826644804600,3.9798046875,-0.03971212492436171,0.03126315326988697,-0.012498265311587601
1783169826654873900,3.989873779296875,-0.006786883661150932,0.03674655311703682,-0.027934209776576607
1783169826664943600,3.999943603515625,-0.0005687397986650467,0.0213712893307209,-0.006264257159689441
1783169826675012900,4.010012939453125,-0.037169746965169906,0.03193827605247497,-0.028066631384054196
1783169826685082600,4.02008251953125,-0.04975216516256332,0.05914777001738548,-0.02028974117171019
1783169826695152600,4.030152587890625,0.011234510719776153,0.05935118363499641,0.009976564814243465
1783169826705222000,4.040221923828125,0.024213234758377073,0.07075754379034042,0.02553631832199171
1783169826715291600,4.050291748046875,0.005531038381159305,0.07658756511807441,0.026737675202079116
1783169826725362000,4.06036181640625,0.03953326122611761,0.10964695415496825,0.003431499685486778
1783169826735430700,4.0704306640625,0.07647299882769584,0.09221125070750713,-0.006644890507729723
1783169826745501000,4.0805009765625,0.043484921461343765,0.0540448939204216,-0.0189652511022985
1783169826755571000,4.090571044921875,0.04689765251427889,0.013659107518196106,-0.020552839954150838
1783169826765639700,4.1006396484375,0.03972118501365184,0.013352818048000335,-0.03414893783926964
1783169826775710000,4.1107099609375,0.018035422906279564,0.00706102442741394,-0.01793325943974778
1783169826785779700,4.12077978515625,0.0135308049634099,0.006572948649525642,0.011595580850820988
1783169826795849000,4.130848876953125,0.022537410500645637,-0.008040683114528656,0.0332158856397029
1783169826805918700,4.140918701171875,0.0199812962770462,0.002899228572845459,0.04154176063747145
1783169826815987700,4.15098779296875,0.026309330254793165,0.05009118785858154,0.03625204759836197
1783169826826057700,4.1610576171875,0.06831073516011238,0.042843116426467896,0.03979589421767741
1783169826836127700,4.171127685546875,0.0701923111230135,0.036490532529354094,0.05794033045638352
1783169826846197000,4.181197021484375,0.04658201069384813,0.04125613949596882,0.013056492849392816
1783169826856267500,4.191267578125,0.039593466980755325,0.07015197911262512,-0.00022076661121100185
1783169826866337500,4.201337646484375,0.09612140988856553,0.06147475166022777,0.007483588087884708
1783169826876406500,4.211406494140625,0.05027355868816375,0.071459554579854,-0.026373919923603533
1783169826886476500,4.2214765625,0.04504062647074461,0.07822831806242465,-0.03113488724771887
1783169826896546600,4.231546630859375,0.023800562304258345,0.06580430529713631,-0.05520613798582926
1783169826906615600,4.241615478515625,0.0338847339451313,0.08021335439980029,-0.06429485058225691
1783169826916685600,4.251685546875,0.027936639195680617,0.042750177446007724,-0.03841650475640781
1783169826926755300,4.26175537109375,0.009273732040822505,0.019727029255032537,0.003556550837261602
1783169826936824600,4.271824462890625,0.04435205968469381,0.04820493572056293,0.03421081496118568
1783169826946894300,4.281894287109375,0.06218260766863823,0.04922083476483822,0.07234803698533214
1783169826956963600,4.291963623046875,0.02367138296663761,0.0654389791160822,0.05583214266337454
1783169826967033600,4.30203369140625,-0.005184709161520004,0.0626852964937687,0.02990849639107473
1783169826977103400,4.312103271484375,-0.006764379568397998,0.02786240491569042,0.028332077387208117
1783169826987172600,4.322172607421875,0.0030906594917178153,0.01142681842148304,-0.01836059974003583
1783169826997242400,4.332242431640625,-0.030243747094273566,0.008392565292119979,-0.029816580323921513
1783169827007312600,4.342312744140625,-0.03423720064461231,-0.0167354462236166,0.006308872619550675
1783169827017381400,4.35238134765625,0.046395255950093264,0.009144844964146614,0.004985451129218563
1783169827027451400,4.362451416015625,0.03551905714869499,0.03345511035621166,0.009477520117769016
1783169827037521700,4.372521728515625,-0.014380992051959036,0.02036123550534248,0.07224801981011406
1783169827047590400,4.38259033203125,0.08896773874163627,0.0017950667232275008,0.10892970926370471
1783169827057660700,4.39266064453125,0.2649330851957202,0.11434826371371745,0.042852076051058244
1783169827067730400,4.40273046875,0.09471417343914508,0.1517600027412176,0.03280417216680944
1783169827077799700,4.412799560546875,0.0886769391015172,0.08310907584130764,-0.019484982393775135
1783169827087869400,4.422869384765625,0.003064648267626762,0.05831657989025116,-0.04521270423517562
1783169827097938400,4.4329384765625,-0.025638299125432966,0.019180501288175583,-0.02614070482277311
1783169827108008700,4.4430087890625,-0.036900574634969235,-0.029448212802410122,-0.042483452801220116
1783169827118078500,4.453078369140625,-0.05176496628969907,-0.00263034850358963,-0.0501501606373582
1783169827128147700,4.463147705078125,-0.08178454923927783,0.04122515983581543,-0.05253129275338724
1783169827138217500,4.473217529296875,-0.05321837996840477,0.0732417618215084,-0.0536454371409025
1783169827148287500,4.48328759765625,-0.0051233343631029125,0.0956722048163414,-0.03672901746034622
1783169827158356500,4.4933564453125,0.013400456582009791,0.10820493865311145,-0.007036300978111103
1783169827168426500,4.503426513671875,0.02946984011232853,0.09566519055366515,0.03510454893051646
1783169827178496500,4.51349658203125,0.024041969844698904,0.08788929585516453,0.005132714112801477
1783169827188565500,4.5235654296875,-0.001488192731142044,0.08781447705328464,0.014519277144642547
1783169827198635500,4.533635498046875,-0.011903788283467292,0.05598316850662231,-0.008920772150997071
1783169827208705500,4.54370556640625,-0.012178221310675143,0.01683773755431175,0.005106940350728109
1783169827218774500,4.5537744140625,-0.04229951106905937,0.00618657968044281,-0.000015416764840483664
1783169827228844500,4.563844482421875,-0.009524199670553207,0.04250643181800842,-0.007975198396574705
1783169827238913500,4.57391357421875,0.04975596455484629,0.05518529612720012,0.004617503732815385
1783169827248983600,4.583983642578125,0.028423838190734386,0.05044190099239349,0.008139065455086528
1783169827259053600,4.594053466796875,-0.008412731297314166,0.04442074100673198,0.031977311154920605
1783169827269122600,4.60412255859375,0.023493688312172887,0.060577510559558866,0.059575822703726584
1783169827279192300,4.6141923828125,0.036388533459603786,0.07459317643046379,0.03360141435856931
1783169827289262600,4.6242626953125,0.007058978600800037,0.0880558845937252,0.003112341600563377
1783169827299331300,4.634331298828125,0.019841011023521423,0.08682955766916274,-0.000985211645066738
1783169827309401600,4.644401611328125,0.039060675278306006,0.07842121028602123,-0.011101979514444246
1783169827319471600,4.6544716796875,0.030207506737112998,0.06579962912201881,-0.00770931400200352
1783169827329540600,4.66454052734375,0.042402386921644206,0.033928573086857795,-0.014529469745093955
1783169827339610600,4.674610595703125,0.005510580115020275,0.043566170004010196,-0.014289742705086246
1783169827349680400,4.684680419921875,-0.016150339812040327,0.058065819999575614,-0.03276091754697263
1783169827359749600,4.69474951171875,-0.027598201021552086,0.02098959653675556,-0.004423999587865546
1783169827369819600,4.704819580078125,-0.04431085089147091,0.03919686887860298,0.008236708010127767
1783169827379888600,4.714888671875,-0.04916150579303503,0.04143909484744072,0.020425140187563372
1783169827389958700,4.724958740234375,-0.015322364555299282,0.04794599252343178,0.04177022649794817
1783169827400028400,4.7350283203125,0.006538461858034134,0.056899698829650874,0.018551409604400396
1783169827410097700,4.74509765625,0.026954642421007154,0.05086392579674721,0.020393612538138404
1783169827420167400,4.75516748046875,0.03542611816823482,0.05125029476583004,-0.021238712459616362
1783169827430237400,4.765237548828125,0.05160597633570432,0.05639876357018947,-0.012320324061950667
1783169827440306400,4.775306396484375,0.06064706866443157,0.013853753307461738,-0.02423844226486981
1783169827450376400,4.78537646484375,0.0470563502073288,0.02063362270593643,-0.018963059145212173
1783169827460446700,4.79544677734375,0.037164194007217884,0.04597615375518799,0.007879528602911159
1783169827470515500,4.805515380859375,0.05888999586403369,0.05639467191696167,-0.0004032196391839534
1783169827480585500,4.81558544921875,0.02529752286374569,0.034577392384409905,0.018970484399842096
1783169827490654500,4.825654541015625,0.018636311408877372,0.046826633104681964,0.028317564804665744
1783169827500724500,4.835724365234375,-0.029523908387124535,0.05848375315070152,0.016915862558130174
1783169827510794800,4.845794677734375,-0.0023816344395279883,0.06310264512300491,0.00885439238389954
1783169827520863500,4.855863525390625,0.03952683148533106,0.06545768381655216,-0.01990002033491619
1783169827530933500,4.86593359375,0.027008418434858322,0.04066811047494411,-0.02041100206435658
1783169827541003500,4.87600341796875,0.0373965414583683,0.04495207140445709,-0.021965474097896367
1783169827551072500,4.886072509765625,0.05209492889642715,0.011678747355937958,0.03577892279443331
1783169827561142500,4.896142578125,0.05864508119225502,0.03887655088305473,0.036411192815983665
1783169827571212500,4.906212646484375,0.05305471383929252,0.04630757766664028,0.02072918290174566
1783169827581281500,4.916281494140625,0.031131343583762645,0.0680962156265974,0.024998311588307842
1783169827591351600,4.9263515625,0.04282499624788761,0.091454294860363,0.01583202197733335
1783169827601421600,4.936421630859375,0.02770078461319208,0.08051905934810638,-0.039462296615447846
1783169827611490600,4.946490478515625,-0.0445464132130146,0.05346680177152156,-0.0739792640495114
1783169827621560600,4.956560546875,-0.03828647603541612,0.02983399724960327,-0.05694412249326706
1783169827631629600,4.966629638671875,-0.01795183627605438,0.014490297645330429,-0.05905163443284109
1783169827641699600,4.976699462890625,-0.04108341327756643,0.0028700024783611298,-0.04155825511454604
1783169827651769600,4.98676953125,-0.028984979204833505,0.0018587796092033385,-0.01191258351127617
1783169827661838600,4.996838623046875,0.000692073917388916,0.05593932936489582,0.006471725897910073
1783169827671908600,5.00690869140625,0.028999299991130826,0.07849369100034237,0.02436287236213684
1783169827681978400,5.016978271484375,0.06274637903124093,0.08730302039980888,0.04248139784145169
1783169827692047600,5.027047607421875,0.06442892529070376,0.08189911552965641,0.06905752580626867
1783169827702117400,5.037117431640625,0.06624211219251155,0.0800911893248558,0.05350878688287921
1783169827712187600,5.047187744140625,0.04346650902181864,0.05450315908193588,0.04014153845072724
1783169827722256400,5.05725634765625,0.02290975094437599,0.02865852372944355,0.0346207474689465
1783169827732326400,5.067326416015625,0.019628245055675505,-0.017561375653743744,0.026341113632544873
1783169827742395600,5.077395751953125,-0.006076397304236888,0.005049684605002403,0.01250420186202973
1783169827752465400,5.08746533203125,-0.05370616348534822,0.04436462690532207,-0.059809220467647535
1783169827762535700,5.09753564453125,-0.05127601372897625,0.04796002104878425,-0.05025036047566682
1783169827772604400,5.1076044921875,-0.028195290131866932,0.035951018825173375,-0.05650061650946736
1783169827782674400,5.11767431640625,-0.0326364874497056,0.0627414105951786,-0.038747380678588524
1783169827792744700,5.12774462890625,-0.031607144401967525,0.06445756686329841,-0.004242825201526284
1783169827802813400,5.1378134765625,-0.003337327729165554,0.09380407285690306,0.031194188820058477
1783169827812883700,5.1478837890625,0.017530103732645512,0.09638590604364872,0.02411042283787392
1783169827822953500,5.157953369140625,0.03840045780390501,0.08284253385961056,0.05484613643386401
1783169827833022700,5.168022705078125,0.017124737802147863,0.06029167935550212,0.02793066611262038
1783169827843092500,5.178092529296875,0.009888064546883105,0.07266659228205681,0.0020066910467576235
1783169827853161200,5.1881611328125,-0.017568682177364826,0.08894201977849006,-0.036839912222605194
1783169827863231200,5.198231201171875,-0.021726970900595187,0.06040449208021163,-0.046817828743718565
1783169827873301200,5.20830126953125,-0.012946283073723315,0.039890696361660954,-0.03370074654719792
1783169827883370200,5.218370361328125,-0.025915654762089253,0.04792611877918243,-0.03046410271353088
1783169827893440300,5.228440185546875,0.003806698806583881,0.02586392457485199,0.00511875865268521
1783169827903510000,5.238510009765625,0.022663374967873094,0.026667057651281356,0.04195472535253502
1783169827913579300,5.248579345703125,0.04728606730997562,0.02613923438489437,0.07300153245800174
1783169827923649000,5.25864892578125,0.009459902262687683,0.04646130692362785,0.09066000267751514
1783169827933719000,5.268718994140625,-0.012949205683171748,0.08030395529270172,0.06858144186027347
1783169827943788000,5.2787880859375,0.02839052044302225,0.04387888921499252,0.05490479868538677
1783169827953858000,5.288858154296875,-0.01733107402920723,0.04750175588726997,-0.006698748719971627
1783169827963928300,5.29892822265625,-0.03077858462333679,0.04056581914424896,-0.0210359472959768
1783169827973997000,5.3089970703125,0.005281739795207977,0.0643751492768526,-0.059576599021861326
1783169827984067300,5.3190673828125,0.017759528574347493,0.05675239931344986,-0.06095818044021725
1783169827994135000,5.329135009765625,0.017997428983449935,0.02502162853181362,-0.03849199941172264
1783169828004205300,5.339205322265625,0.005872691425681114,0.05910159278810024,-0.021723746897047383
1783169828014274000,5.349274169921875,0.030987843459844587,0.05033610253036022,-0.005328072288120165
1783169828024344300,5.35934423828125,0.051070846545696255,0.06384674148857593,0.0322194584808778
1783169828034414000,5.3694140625,0.09428688793778418,0.09634966568648815,0.04324994366168976
1783169828044483000,5.379483154296875,0.046154725192487235,0.05173310984671116,0.01537039581495337
1783169828054553000,5.389552978515625,-0.029648119288682936,0.0160164842993021,0.001798619520338252
1783169828064623000,5.399623046875,0.02050473562926054,0.05545008454322815,0.0050566258024424314
1783169828074692400,5.4096923828125,0.03728460551649332,0.06148527305424213,0.007046091719763353
1783169828084762000,5.41976220703125,-0.006200608205795288,0.05164484704136848,-0.00898293240070343
1783169828094831000,5.4298310546875,-0.025669863307476042,0.05090016615390777,-0.01992858884227462
1783169828104901000,5.439901123046875,0.025022797575592993,0.05216039534807205,-0.0015913699778262525
1783169828114971100,5.44997119140625,0.04127250610888004,0.05832359415292739,-0.015481518906075506
1783169828125040000,5.4600400390625,0.016794482934474945,0.040945758372545236,-0.0005210921315010636
1783169828135110100,5.470110107421875,0.003927987098693847,0.047124739268422124,0.0046765587099827826
1783169828145180200,5.48018017578125,0.01105856963098049,0.10404781897366046,0.018849890227476133
1783169828155249200,5.490249267578125,0.039240123498439784,0.08941665155291557,0.02203432894987054
1783169828165319200,5.500319091796875,0.02711070976555347,0.07477437821626663,0.015643148341728374
1783169828175389000,5.510388916015625,0.03887918123155832,0.008223638466000556,-0.017869217760208993
1783169828185458200,5.520458251953125,0.017471067021787166,-0.012757190242409705,-0.02177319379565306
1783169828195528000,5.53052783203125,0.05971914016455412,-0.022838439273834228,-0.006935553150530904
1783169828205597200,5.54059716796875,0.03751052322685718,0.000730067840218544,0.01301551238503307
1783169828215667200,5.550667236328125,-0.0032061025649309156,0.02338087558746338,0.009209918690146878
1783169828225737200,5.5607373046875,0.021806758138537406,0.06128419752418995,0.0010768171849660575
1783169828235806200,5.57080615234375,0.0234235456854105,0.05192483302652835,-0.0061361829337663945
1783169828245876000,5.5808759765625,-0.0012386018842458725,0.046991468277573584,0.012186888674320653
1783169828255946200,5.5909462890625,0.006327449455857276,0.05376256984770297,0.013856456721201537
1783169828266015000,5.601014892578125,0.05065145208984613,0.04827975452244281,-0.0006054185472428798
1783169828276085200,5.611085205078125,0.049593467469513416,0.077964698690176,0.010377966955676674
1783169828286155300,5.6211552734375,0.06739449709802865,0.10345160664618015,0.0314022786127869
1783169828296224000,5.63122412109375,0.055932899624109265,0.07414484814107418,0.024661937507102265
1783169828306294300,5.641294189453125,0.042777649974822994,0.06554068592488765,0.03247914146352559
1783169828316363000,5.651363037109375,0.0401543157339096,0.06459376046359538,-0.02071605855869129
1783169828326433300,5.661433349609375,0.046394379167258734,0.022537995022535322,-0.04977781106047332
1783169828336503300,5.67150341796875,0.01787000321149826,-0.025884382840991017,-0.02819865113273263
1783169828346572300,5.681572265625,-0.030261282750964163,0.0039051907449960707,-0.04463283112114295
1783169828356642300,5.691642333984375,-0.028839433254301546,0.04422434165179729,-0.04871354282982647
1783169828366712000,5.701712158203125,-0.0026391163319349287,0.07331248897016047,-0.0049711212097667155
1783169828376783000,5.711783203125,0.011626724907755851,0.0590466477304697,0.01783699599104002
1783169828386852400,5.721852294921875,0.01445931798517704,0.07732172461152076,0.01356135536530055
1783169828396922000,5.731922119140625,0.009618015433847904,0.06457271767556667,0.026346246465388683
1783169828406992100,5.7419921875,0.017090835532546044,0.07893558954894542,0.01141764873433858
1783169828417061000,5.75206103515625,0.03844371242374182,0.07495616452395916,0.019752355492534113
1783169828427131100,5.762131103515625,0.02801058121472597,0.069747489964962,-0.009478132039122284
1783169828437201200,5.772201171875,0.03172872495502233,0.06341711789965629,-0.02959616990573704
1783169828447270100,5.782270263671875,0.02543342420309782,0.027848376390337944,-0.04080950084016658
1783169828457340200,5.792340087890625,0.02205664124637842,0.04482698372006416,-0.028340215027891098
1783169828467409200,5.8024091796875,0.022082944731414318,0.05882569845616817,-0.015118695209361611
1783169828477479200,5.812479248046875,0.04116583086401224,0.05170388375222683,0.025217370299622417
1783169828487549200,5.822549072265625,0.02135959889292717,0.09266191708445548,0.03865089803417213
1783169828497618200,5.8326181640625,0.012104863813519478,0.08860299708247184,0.04562290160441771
1783169828507688000,5.84268798828125,-0.02648351777791977,0.0922258637547493,0.04194618585305288
1783169828517758200,5.85275830078125,-0.008707330329716205,0.07466857975423336,0.010253673855727537
1783169828527827200,5.8628271484375,0.008590718212723732,0.0402764808088541,-0.030291906218091025
1783169828537897200,5.872897216796875,0.009041384589672088,0.013556816187500953,-0.044514666367881
1783169828547967200,5.88296728515625,-0.007710428246855736,0.015413257709145546,-0.032007441431703046
1783169828558036000,5.893035888671875,-0.007762158434092998,0.015332593688368796,-0.036525759106362236
1783169828568106200,5.903106201171875,0.03541413546949625,0.023590718945860862,-0.015530974937835708
1783169828578175000,5.913175048828125,0.05894231057316064,0.03879880947172642,0.019991077885543926
1783169828588245200,5.923245361328125,0.023638942001760005,0.06448328582644462,0.031338839721446854
1783169828598315300,5.933315185546875,-0.010440437732636927,0.06177578043341636,0.019515560195129365
1783169828608384300,5.94338427734375,0.047933717563748354,0.07195406009852885,0.008931521873874589
1783169828618454300,5.953454345703125,0.028930910930037496,0.04786825111210346,0.007621873180568218
1783169828628524000,5.96352392578125,0.028207272830605506,0.0306996741682291,0.018538193929800762
1783169828638593300,5.97359326171875,0.032364392510056496,0.022024784803390502,-0.004992054399941116
1783169828648663000,5.9836630859375,0.0518137738674879,0.01892623426616192,-0.015538135330984368
1783169828658733000,5.993733154296875,0.0041959903851151465,0.02934942860305309,-0.012643409403320401
1783169828668802300,6.00380224609375,0.013392857797443865,0.0317149886906147,-0.021516552153462543
1783169828678872000,6.0138720703125,0.037031215277314185,0.04219605069458485,-0.041437204284453764
1783169828688942000,6.023942138671875,0.010841712009906768,0.018456278666853905,-0.005947839021123945
1783169828699011000,6.034010986328125,-0.005820084455609322,0.04461830940544605,0.008413270153431221
1783169828709081000,6.0440810546875,0.00345773923844099,0.07925006232559681,0.004348760660877451
1783169828719150000,6.054150146484375,0.022129706482589242,0.0643055911719799,0.020385173503356054
1783169828729220000,6.06422021484375,0.028908406837284562,0.04796002104878425,0.03112073999135755
1783169828739290000,6.0742900390625,0.07187251929491759,0.053664954692125316,0.026707745854696256
1783169828749359000,6.084359130859375,0.10209317777454853,0.0365296954959631,0.0006663914868608117
1783169828759429000,6.09442919921875,0.025223580844700336,0.04077507798075676,-0.0011243187216576189
1783169828769499100,6.1044990234375,0.03796002056002617,0.031627894929051395,-0.003236315040104091
1783169828779568000,6.114568115234375,-0.0012166823133826256,0.025431378376483914,-0.02751153651825152
1783169828789638100,6.12463818359375,-0.02438333062827587,0.03390343864560127,-0.04011091498360037
1783169828799708200,6.134708251953125,-0.023262802165746686,0.05867255372107029,-0.019925647966517135
1783169828809777200,6.144777099609375,0.018476152411103248,0.05982932254076004,-0.015325880819791927
1783169828819847200,6.15484716796875,0.013208148880302905,0.058007367810606954,-0.017825579547882078
1783169828829916200,6.164916259765625,-0.014176409390568733,0.040816579034924506,-0.00988542506522499
1783169828839986200,6.174986083984375,0.025832652653753757,0.03687923958599567,0.014004897881718352
1783169828850056200,6.18505615234375,0.017521628165245055,0.031133973932266235,0.012338718235166742
1783169828860126200,6.195126220703125,0.0348649771541357,0.05613280611038208,0.047389427219750355
1783169828870196200,6.2051962890625,0.03899520882666111,0.08946692043542862,0.08810690239490941
1783169828880266200,6.215266357421875,0.03898790230304003,0.08980945026278496,0.05544889723313972
1783169828890335000,6.2253349609375,0.012040566405653952,0.10022679938077926,0.04333340242775157
1783169828900405200,6.2354052734375,0.029713878001272676,0.05726853214204311,0.039166921264911066
1783169828910475300,6.245475341796875,0.0006122866794466972,0.025516718572378156,-0.006522131777741014
1783169828920544300,6.255544189453125,-0.010554127240180969,0.030038579910993575,-0.04293900541584007
1783169828930614300,6.2656142578125,0.009390636418759823,0.02045592805147171,-0.048824108798522496
1783169828940683000,6.27568310546875,0.02902443443238735,0.040756957802176474,-0.053875062912004064
1783169828950753300,6.285753173828125,0.001016191305220127,0.05124912572205066,-0.057797204791801046
1783169828960823300,6.2958232421875,0.014921382538974284,0.05798749406635761,-0.029450167297478763
1783169828970892300,6.305892333984375,0.030121289758384226,0.0675385817438364,-0.027179117092955857
1783169828980962300,6.31596240234375,0.06819996826201677,0.042080315360426904,-0.010142888691322877
1783169828991032000,6.326031982421875,0.04916764327287674,0.04722410798966884,0.02864414814421907
1783169829001101300,6.336101318359375,0.017246318355202673,0.0574041412204504,0.006199019036907703
1783169829011171000,6.346171142578125,0.022195757456123826,0.05663958658874035,0.017176824182411655
1783169829021241000,6.356240966796875,0.02569207513928413,0.05721767873764038,-0.012905366541445255
1783169829031310000,6.36631005859375,0.005412672698497772,0.05350538021624088,-0.0014782923916354775
1783169829041380000,6.376380126953125,0.02329670443534851,0.026846505871415138,-0.0008095902166794985
1783169829051449300,6.386449462890625,0.01186111818552017,0.03763970256447792,0.0009026570613030343
1783169829061519000,6.39651904296875,0.02388707154393196,0.055231473356485365,0.010029308781633153
1783169829071589000,6.406589111328125,0.01633592551201582,0.03685878131985664,-0.00626981925079599
1783169829081658000,6.416658203125,0.03918196357041597,0.024564532414078712,0.010177731675840913
1783169829091728100,6.42672802734375,0.010795242519676685,0.0437099623888731,0.018274583690706638
1783169829101798400,6.43679833984375,0.004350596424937248,0.08122633083462714,0.022946110032545403
1783169829111867100,6.4468671875,0.03151391316056251,0.08854162228405475,0.005608871124032884
1783169829121937200,6.456937255859375,0.04316869511902332,0.07742401594221592,0.025082948531303554
1783169829132007200,6.467007080078125,0.016017068821191787,0.08826338986456393,0.028644385606236753
1783169829142076200,6.477076171875,0.04272562752664089,0.054958501634001726,0.0207621901222039
1783169829152146200,6.487146240234375,0.037973172302544114,0.03657704176902771,0.006162568617193028
1783169829162216200,6.49721630859375,0.004186053512990474,0.03366495371460915,-0.0341409189295955
1783169829172285200,6.50728515625,-0.004366963037848472,-0.001291208854317665,-0.02158835701434873
1783169829182355200,6.517355224609375,0.0031806758627295493,-0.003094458884000778,-0.04427777973893098
1783169829192424200,6.527424072265625,0.010062252070009707,0.0277414088845253,-0.028384419495798646
1783169829202494200,6.537494140625,0.001489069513976574,0.06029051031172275,-0.005917389083933085
1783169829212564200,6.547564208984375,0.03503682658970356,0.048825113445520395,0.009957184260338545
1783169829222633200,6.55763330078125,0.026286241640150546,0.05813479358255863,0.04301871045539155
1783169829232703200,6.567703125,0.016100947712361813,0.0625806670755148,0.058552836331538856
1783169829242773200,6.577773193359375,0.01653466295450926,0.07290741530060768,0.026895788373239336
1783169829252842200,6.58784228515625,0.026036358532309532,0.05686287395060062,0.03511912544514052
1783169829262912300,6.597912353515625,0.0453591909006238,0.0646323389083147,0.006080954748345539
1783169829272982000,6.60798193359375,0.052449733683466906,0.047315877926349635,0.0003725870389025658
1783169829283051300,6.61805126953125,0.026467443425953387,0.005659340935945511,-0.029698379038041456
1783169829293121000,6.62812109375,-0.04781242927163839,0.05785948377251625,-0.0246733174176421
1783169829303190300,6.638190185546875,-0.0058925651699304575,0.0747802234351635,-0.012252117663947865
1783169829313260000,6.648260009765625,0.02912818706780672,0.08807108216285706,-0.022322224246850236
1783169829323330000,6.658330078125,0.01882072806507349,0.08279752567410469,-0.010148989638546482
1783169829333399300,6.6683994140625,0.021859072847664356,0.062438043734431264,-0.013668350270576774
1783169829343469000,6.678468994140625,0.06231149474531412,0.037927871856093406,-0.008728866308089346
1783169829353539300,6.688539306640625,0.07638064436912537,0.027196634483337402,0.01782099470430985
1783169829363608000,6.698608154296875,0.052205111272633074,0.04316927964091301,0.003350488604838028
1783169829373678000,6.708677978515625,0.019031448206305503,0.048826867011189455,0.025348549798084423
1783169829383748400,6.718748291015625,0.03399900797456503,0.04498363558650016,0.021857492811931296
1783169829393817000,6.728817138671875,0.011304068824648857,0.044724107867479324,0.005639987781504169
1783169829403887400,6.738887451171875,-0.011740706676244736,0.05710369696915149,0.011372558350441977
1783169829413956000,6.7489560546875,0.01936053403019905,0.04279693919718265,0.023354161110473795
1783169829424026400,6.7590263671875,0.012166530872881411,0.04493979644477367,-0.006084854605328292
1783169829434096000,6.76909619140625,-0.006056815820932388,0.032550854992866515,-0.0009709091250784694
1783169829444165000,6.7791650390625,0.017198387560248374,0.0392611662864685,-0.03659146302002482
1783169829454235100,6.789235107421875,0.042781449367105956,0.024558687195181846,-0.015005206631217152
1783169829464305200,6.79930517578125,0.025543022057414055,0.0013233575582504273,0.0069215337583329525
1783169829474374400,6.80937451171875,-0.016885083827376364,0.03854863410294056,0.00861984384250827
1783169829484444200,6.819444091796875,0.016342647513747213,0.09845745162069797,0.012182924885256215
1783169829494513200,6.82951318359375,0.014938918195664883,0.11359773760735987,0.02011220178087242
1783169829504583200,6.839583251953125,-0.050264790859818456,0.12600421471595763,0.033341329517122355
1783169829514653200,6.849653076171875,-0.038436698161065576,0.08739771294593811,0.0178903610129375
1783169829524722200,6.85972216796875,0.001795358984172344,0.05086334127485752,-0.0011071301248390226
1783169829534792200,6.869792236328125,-0.035595921777188774,0.049589083555340766,-0.02288279900536872
1783169829544862200,6.8798623046875,-0.0379541753411293,0.04201777151823043,-0.028692069806018843
1783169829554931200,6.88993115234375,-0.01778407849371433,0.047482466664910315,-0.04319898979258723
1783169829565001200,6.900001220703125,0.018532851034402845,0.07999006703794002,-0.024377339278906583
1783169829575071000,6.910071044921875,0.029645196679234504,0.11636486423313618,-0.04261389251416549
1783169829585140200,6.92014013671875,0.03750935418307781,0.08842822503745555,-0.04626532769380137
1783169829595210000,6.9302099609375,0.05888239707946777,0.03802431796789169,-0.007960932409204542
1783169829605279200,6.940279296875,0.08531213884353638,0.021593407648801802,-0.026027453706646338
1783169829615349200,6.950349365234375,0.04703764550685882,0.010724223110079764,0.005341507158428431
1783169829625419300,6.960419189453125,0.02312251691222191,-0.003740355572104454,0.007940547208301722
1783169829635488300,6.97048828125,0.05408171879947185,0.05727087022960186,0.01438506543887779
1783169829645558000,6.98055810546875,0.03621493045836687,0.06821487357020378,0.0014482351800892501
1783169829655628300,6.990628173828125,0.026158231346309183,0.0941647228628397,0.019945576509693638
1783169829665697000,7.000697021484375,0.029857378125190733,0.08031564573049545,-0.002251103395037353
1783169829675767300,7.010767333984375,0.03632102118134498,0.055368251478672026,0.006261361949704587
1783169829685837300,7.02083740234375,0.03352671428769827,0.031208792734146118,0.017043169599073007
1783169829695906000,7.030906005859375,0.0395946360245347,0.011179565662145613,-0.004379237997531891
1783169829705976300,7.040976318359375,0.020299568445980548,0.011723755541443824,0.021109989779721946
1783169829716045000,7.051045166015625,0.060895198206603524,0.007520458632707595,0.04267998002031818
1783169829726115300,7.061115234375,0.060175359499454496,0.03404781555235386,0.03909330803942866
1783169829736185000,7.07118505859375,-0.004403203395009041,0.04609831883013248,0.03858442693552933
1783169829746254000,7.081254150390625,-0.007142272970080375,0.06043488721847534,0.020233937597554177
1783169829756324400,7.091324462890625,0.026119360640645024,0.05369593435227871,0.06366048906832002
1783169829766394000,7.10139404296875,0.016197101563215254,0.036461306434869764,0.020343005728907883
1783169829776463400,7.11146337890625,0.0005962123274803161,0.033141806623339654,0.003940691316640005
1783169829786533000,7.121533203125,-0.0031660628154873845,0.03899228621721267,0.005664181507844477
1783169829796603100,7.13160302734375,0.030030688865482807,0.035313889965415,-0.012354098467389121
1783169829806672100,7.141672119140625,0.019667408022284505,0.031094226443767546,-0.02244090958992019
1783169829816742100,7.1517421875,0.040652036122977735,0.045447161445021624,-0.008976557458844035
1783169829826811100,7.16181103515625,0.04096738568246364,0.026882746228575706,-0.012270146510982885
1783169829836881200,7.171881103515625,0.02491670685261488,0.03996493064165115,-0.03153166801296174
1783169829846951200,7.181951171875,0.023458909259736538,0.05222878440916538,-0.015027601126115769
1783169829857019600,7.19201953125,-0.0007756605476140976,0.03871697640717029,-0.011355214489996433
1783169829867089700,7.202089599609375,-0.01762684210538864,0.041243280014395714,0.013268884357903151
1783169829877160000,7.212159912109375,0.011933891160786152,0.05921791264414787,0.025422911942237985
1783169829887228700,7.222228759765625,0.016208499740064143,0.07265431732237339,0.026718723906436932
1783169829897298700,7.232298583984375,0.025765724897384643,0.07685702970921993,0.0332813886239659
1783169829907368700,7.24236865234375,0.03830839560627937,0.0588636923789978,0.028169735565502195
1783169829917437700,7.252437744140625,0.02816226464509964,0.03261164526939392,0.012896708310954273
1783169829927508000,7.262508056640625,0.016828092943131923,0.025358897662162778,0.013615560637414455
1783169829937576700,7.27257666015625,0.020042963336408138,0.031765842095017434,0.0024384243943728506
1783169829947647000,7.28264697265625,0.010393091459572314,0.06076806469559669,0.004055458536418154
1783169829957716700,7.292716796875,-0.002539455349743366,0.07495090382695198,-0.019806323302630335
1783169829967785700,7.30278564453125,-0.013819851037859916,0.0822480750977993,-0.033912672264827415
1783169829977855700,7.312855712890625,0.03228869692534208,0.07475859612524509,-0.04164077316569164
1783169829987925800,7.32292578125,0.03342822234928608,0.06230535726547241,-0.03733976976983249
1783169829997994800,7.332994873046875,0.04789981529414653,0.041220483660697936,-0.021323997856583444
1783169830008064800,7.343064697265625,0.0489689058303833,0.033574352821707724,0.001143964137043804
1783169830018133800,7.3531337890625,0.0322071561217308,0.028318916511535643,0.026351799423340705
1783169830028203800,7.363203857421875,0.017388357174396515,0.05602876121401786,0.011808693878538905
1783169830038273800,7.373273681640625,-0.011943828032910823,0.07695522938668728,-0.013305307378154246
1783169830048342800,7.3833427734375,0.012732932583987711,0.032709260424971576,-0.029971688687242565
1783169830058412800,7.393412841796875,-0.0015834697991609571,0.02775660645365715,-0.050439626836916426
1783169830068482800,7.40348291015625,-0.03789104697704315,0.0137421096265316,-0.04307276959703304
1783169830078551800,7.4135517578125,0.0009089315384626388,-0.04554536112248897,-0.006849144375557079
1783169830088621800,7.423621826171875,0.021356676283478735,-0.036060908940434455,0.02194455004087649
1783169830098691600,7.433691650390625,0.03760784612149,0.018919220003485678,0.06586868490339257
1783169830108760800,7.4437607421875,0.05691986483484506,0.0678220748603344,0.06581409603878856
1783169830118830600,7.45383056640625,0.042080899882316586,0.07108312248289585,0.028585558957932515
1783169830128899800,7.46389990234375,0.0662140551418066,0.08074936097264289,0.07612773818713613
1783169830138969600,7.473969482421875,0.06987316217124462,0.07997954564392566,0.0684674966244027
1783169830149039900,7.484039794921875,0.039353813005983826,0.03762567403912544,0.02602712491308339
1783169830159108900,7.49410888671875,0.01597235289663076,0.043166357031464576,0.004060965828597545
1783169830169178600,7.5041787109375,0.013373276314139365,0.06358195307254791,-0.015220109757222234
1783169830179249000,7.514248779296875,-0.012016016486287116,0.0676607468187809,-0.04620715863262303
1783169830189317600,7.524317626953125,-0.0297106631308794,0.05840250460803508,-0.07611215702551416
1783169830199388000,7.534387939453125,0.0007937807261943817,0.056119362106919285,-0.06760964681920595
1783169830209458000,7.5444580078125,0.010922960552573203,0.05165186130404472,-0.05921613167901523
1783169830219526700,7.554526611328125,0.007093465392291546,0.04276128336191177,-0.03240867917635478
1783169830229597000,7.564596923828125,0.00248830968439579,0.048293198525905606,-0.0105916371058207
1783169830239665700,7.574665771484375,0.005931435875594616,0.057626844060420984,0.056951593413669614
1783169830249736000,7.58473583984375,0.008473229312896728,0.09245032016038894,0.03634007294168696
1783169830259805700,7.5948056640625,-0.03072451634854078,0.08362813127934932,0.04130864600134082
1783169830269874700,7.604874755859375,-0.010616086560487747,0.06811492032706737,0.03315455650705844
1783169830279944700,7.61494482421875,0.02329582765251398,0.043217210435867306,0.039139028610987586
1783169830290014700,7.6250146484375,-0.012792846077680588,0.06409282520413398,0.029167386567033826
1783169830300084000,7.635083984375,-0.022063947769999502,0.07787000614404678,-0.0037718375557567923
1783169830310153700,7.64515380859375,0.06701105073839425,0.04191080401241779,0.005601774662965908
1783169830320223000,7.655222900390625,0.0838251151561737,0.05213350734114647,0.011845491358125581
1783169830330292700,7.665292724609375,0.05654372499883174,0.02821837874650955,-0.01279336666748859
1783169830340362800,7.67536279296875,0.0765489866733551,0.0283861365288496,-0.008331144827930256
1783169830350431700,7.685431640625,0.0523956654086709,0.02705985636115074,0.000603610182646662
1783169830360501800,7.695501708984375,0.049840427967906,0.034597850650548934,0.0017425967504736035
1783169830370571800,7.70557177734375,0.054986558684706685,0.04894669399857521,0.0031374943081289527
1783169830380640800,7.715640869140625,0.02994593319147825,0.03445698087513446,0.004387174708815291
1783169830390710800,7.725710693359375,0.03577390869259834,0.027933716586232185,0.0053417811530642205
1783169830400780800,7.73578076171875,0.019248890349268914,0.024169980138540267,0.002269945092825219
1783169830410849800,7.745849853515625,0.016011808124184606,0.027898645272850988,-0.012520760271186008
1783169830420919600,7.75591943359375,0.051749184198677536,0.023174539360404013,0.006832722963718697
1783169830430988800,7.76598876953125,0.06955255191475153,0.03620762393474579,0.009856016307650133
1783169830441058800,7.776058837890625,0.06575315963178872,0.03848024504184722,-0.01104539962215349
1783169830451128800,7.78612890625,0.0427162751764059,0.06876783127784729,-0.009724197488371283
1783169830461197800,7.79619775390625,0.08053630274385214,0.06310965938568115,-0.015893533773068336
1783169830471267600,7.806267578125,0.04946370361000299,0.03467091588675975,-0.0157202686985489
1783169830481337900,7.816337890625,0.027828502646088597,0.03146072166860103,-0.04054265746437013
1783169830491406600,7.826406494140625,0.0355839390784502,0.03262158214151859,-0.028966776827862483
1783169830501476900,7.836476806640625,0.06209960556030273,0.06199848327338695,-0.013739479278028011
1783169830511545600,7.846545654296875,0.04695522792041301,0.08137421487271786,-0.028435035438183695
1783169830521615600,7.85661572265625,0.037568390893936154,0.06206862590014934,-0.04009811943410896
1783169830531686000,7.866685791015625,0.014045476487278937,0.05091419467926025,-0.0005706577611155807
1783169830541754600,7.876754638671875,0.02568827574700117,0.03755260880291462,0.01897165344362147
1783169830551825000,7.886824951171875,0.050825639612972734,0.035250761601328846,0.04578985566915944
1783169830561895000,7.89689501953125,0.05123626624047756,0.07361176417768,0.05129552214704454
1783169830571964000,7.9069638671875,0.03001169190406799,0.06786591400206089,-0.011306635241070761
1783169830582034000,7.917033935546875,0.0435007035523653,0.06297346578538418,-0.026881111393915486
1783169830592103700,7.927103759765625,0.05710895766615867,0.05345277324616909,-0.024127182176429778
1783169830602173000,7.9371728515625,0.03010638445019722,0.05746668506264686,-0.03148434913936071
1783169830612242700,7.94724267578125,0.007906827601790428,0.046648938450217246,-0.003086467373790219
1783169830622312000,7.95731201171875,0.01928776105493307,0.04299275403022766,-0.0008546258016489445
1783169830632381700,7.967381591796875,0.029397651658952233,0.06509995642006397,0.0025684805148281156
1783169830642451700,7.97745166015625,0.01576777023524046,0.05616378577053546,-0.0007960457485169172
1783169830652520700,7.987520751953125,0.01785042172819376,0.06089432142376899,0.004843375777406618
1783169830662590700,7.9975908203125,0.014841303040087222,0.07266308515071869,-0.02558690686491318
1783169830672660700,8.00766064453125,0.0030640637457370755,0.023458032476902008,-0.01270831873253919
1783169830682729700,8.017729736328125,0.011892390106618404,-0.008063479468226432,0.010649623503908514
1783169830692799700,8.0277998046875,-0.0017129413977265357,-0.022279051825404166,-0.015177494458202271
1783169830702868700,8.03786865234375,0.012530103488266468,-0.037650808480381964,0.022585441760299727
1783169830712938800,8.047938720703126,0.04007102136462927,0.0005506196200847625,0.034293881001602855
1783169830723008800,8.0580087890625,0.008130114963650703,0.049998248878121376,0.0710201311161276
1783169830733077800,8.068077880859375,0.0006008885025978088,0.0832756645798683,0.06459332207217812
1783169830743147800,8.078147705078125,0.027086159846186637,0.09164543351829052,0.06455960246566683
1783169830753217800,8.0882177734375,0.02790507501363754,0.07774374941587447,0.046179539973335335
1783169830763286800,8.098286865234375,0.002217091527581215,0.06324936011731624,0.03630067251306027
1783169830773356800,8.108356689453124,-0.010107260255515576,0.05267535913288593,-0.014446979093411937
1783169830783425800,8.11842578125,-0.008528466631472111,0.06509878737628459,-0.05659980256762355
1783169830793495800,8.128495849609376,-0.013375029879808426,0.044851533639431,-0.06292653050427324
1783169830803565800,8.13856591796875,-0.04650193119496107,0.028549802657961844,-0.07388663559630512
1783169830813634800,8.148634765625,-0.007729132947325706,0.050584524333477016,-0.054070338888932014
1783169830823704800,8.158704833984375,-0.042916473923623556,0.05208674558997154,-0.028776487553305922
1783169830833774800,8.16877490234375,-0.030691490861773488,0.07120821016728877,0.012599981253547594
1783169830843843600,8.178843505859374,-0.007444763047993182,0.06650280895531177,0.02629023282867856
1783169830853913900,8.188913818359374,-0.00014729951620101928,0.09155658619105815,0.01076119411960244
1783169830863982800,8.19898291015625,-0.0205652336448431,0.09292904358804226,0.00887344414424151
1783169830874052000,8.209052001953125,-0.020333178454637526,0.05808627826571464,0.044389560417179015
1783169830884122000,8.2191220703125,0.018355740901827813,0.045183542072772975,0.02481110018682666
1783169830894191000,8.229191162109375,0.021710019765794276,0.048989364096522325,0.01271741535444744
1783169830904261000,8.23926123046875,0.021931845822930333,0.06985913364589214,0.008650366844935342
1783169830914331000,8.249330810546875,0.0516787493109703,0.0442804557532072,-0.014187944564735516
1783169830924400000,8.259400146484374,0.0032785832792520523,0.021353169152140618,-0.019455920696072278
1783169830934470000,8.269469970703126,-0.01886252138018608,0.0438841499119997,-0.009307013255916536
1783169830944540000,8.279539794921876,0.018111410751938818,0.05219429761767387,0.015775012826779858
1783169830954609000,8.28960888671875,0.009777882170677184,0.04987666832506656,0.024129584196070208
1783169830964679000,8.299678955078125,0.009262333863973618,0.017623919495940207,0.040460924864513796
1783169830974748200,8.309748046875,0.009138999745249747,0.025039748710393904,0.03904510324983857
1783169830984818000,8.31981787109375,0.00000526069700717926,0.025128011515736577,0.0446994940160308
1783169830994888200,8.32988818359375,0.005644435627758503,0.018985270977020262,0.02614777388437651
1783169831004957000,8.33995703125,0.013321253865957259,0.06119418115317821,0.0159364961319603
1783169831015027000,8.35002685546875,0.006728723733127117,0.07778758855760097,0.02062303737984039
1783169831025097200,8.36009716796875,0.0012578911066055297,0.06961889514923095,-0.014380754589941352
1783169831035166000,8.370166015625,-0.018267478096485136,0.0895809022039175,-0.02454095060909167
1783169831045236200,8.380236328125,-0.0028711715221405028,0.08428981005847454,-0.012314478843053802
1783169831055306000,8.390305908203125,0.006444353833794593,0.06771043117940426,-0.01255696409572847
1783169831065375000,8.400375,0.03492693647444248,0.0289437704116106,0.01182583680958487
1783169831075445000,8.410445068359374,0.1157338728532195,0.07839724488854408,-0.005538828961970285
1783169831085514000,8.420513916015626,-0.04209200579822063,0.042670097947120664,-0.07963811179511249
1783169831095584000,8.430583984375,-0.06782178259938955,-0.02394727729856968,0.06296205847538076
1783169831105654000,8.440654052734375,0.0478860790297389,0.06993804410099982,0.010993605502834543
1783169831115723000,8.450722900390625,-0.007707797898352146,0.09444237076044082,0.009955960417632012
1783169831125793000,8.46079296875,-0.020379940205812453,0.09935878437459468,0.015993952807085588
1783169831135863000,8.470863037109375,-0.016074351966381073,0.08445815236270428,0.0026667349912226196
1783169831145932000,8.48093212890625,0.006696282768249511,0.06066109718978405,0.01000147092663683
1783169831156002000,8.491001953125,0.007667758148908615,0.06099135205745697,-0.01662646029065363
1783169831166071000,8.501071044921876,0.024874329015612602,0.017701076385378836,0.016041554808476938
1783169831176141000,8.51114111328125,0.06885287921279669,0.028579028752446174,0.026984644833626226
1783169831186211000,8.521211181640625,0.05923953995406627,0.02228898869752884,0.07573282971857115
1783169831196280000,8.531280029296875,0.08995850334465504,0.030945173361897466,0.046689306993223725
1783169831206350000,8.54135009765625,0.000365033920109272,0.13168226035237313,-0.04533889703126624
1783169831216419800,8.551419921875,-0.007556114467978477,0.027526304829120635,0.017978377223107963
1783169831226489000,8.561489013671874,0.04987900641262531,0.01481178468465805,0.0056544272988103324
1783169831236558800,8.571558837890626,0.008905483250319958,0.02098082870841026,0.009916085064969956
1783169831246628000,8.581628173828125,-0.0634165333777666,0.0352051688939333,-0.0034549810257740315
1783169831256698000,8.591697998046875,-0.046748599432408805,0.043057051438093186,0.02207985772518441
1783169831266768000,8.601767822265625,0.047939562782645224,0.05693535466492176,0.021591343555878845
1783169831276837000,8.611837158203125,0.07151245381087064,0.05592062466442585,0.004487155351415276
1783169831286907000,8.621906982421875,0.08102525530457497,0.027630934247374533,-0.011731171662919223
1783169831296977200,8.63197705078125,0.1442968272536993,0.01100245552957058,0.013404475170001387
1783169831307046000,8.6420458984375,0.059359366941452024,0.10918518186211586,-0.10350346469758077
1783169831317116000,8.652115966796876,0.004535597603023052,0.04932721774876117,-0.11052739025130867
1783169831327185000,8.662184814453125,0.0022080314382910728,0.006625555619597435,-0.003292009016405791
1783169831337255000,8.6722548828125,0.11354834550768136,0.057617491710186,0.022061627948749808
1783169831347325200,8.6823251953125,0.08627923031002283,0.11006196469664573,0.034212047937046734
1783169831357394000,8.692393798828125,-0.019863222855329512,0.10322948832809925,0.060946270806714886
1783169831367464200,8.702464111328124,-0.13966215319037437,0.07905950818955898,0.03810923803867772
1783169831377534000,8.712533935546874,-0.29298575198650356,0.14171557858884334,0.1831130993168801
1783169831387603000,8.72260302734375,0.12766893305778504,0.05170622183978557,0.15729136991593987
1783169831397673200,8.732673095703126,0.09953940163850784,-0.006314589974284171,0.022587606317922473
1783169831407742000,8.742741943359375,-0.11953648000657557,-0.033469723403453826,0.03676881974777207
1783169831417812200,8.752812255859375,-0.0741524469256401,-0.02900748329758644,-0.004009473103377968
1783169831427882000,8.762882080078125,-0.06623246758133172,0.04088905974924564,-0.06730417019976302
1783169831437951000,8.772950927734374,-0.0343923912063241,0.08368424538075923,-0.04865125471595674
1783169831448021000,8.78302099609375,-0.03560527412742376,0.09521335513293742,-0.03918008214058354
1783169831458091000,8.793091064453124,-0.04115414042621851,0.07814297786653042,-0.007974467744212597
1783169831468160000,8.803159912109376,-0.060142041751742356,0.052609892681241034,-0.024578396542649716
