time,seconds_elapsed,z,y,x
1783169822727712300,0.062712158203125,-0.006663847714662552,0.00855675246566534,0.05656396970152855
1783169822737781200,0.07278125,-0.00465369364246726,0.00445921253412962,0.05260278657078743
1783169822747851000,0.08285107421875,-0.005439687520265579,0.005059189163148403,0.05246732756495476
1783169822757921300,0.09292138671875,-0.0038071696180850267,0.0034415852278470993,0.04993705824017525
1783169822767990000,0.102989990234375,-0.006306932773441076,0.0044964211992919445,0.06055133417248726
1783169822778060300,0.113060302734375,-0.008141318336129189,0.005721208639442921,0.06274232268333435
1783169822788130300,0.12313037109375,-0.007941597141325474,0.014612127095460892,0.05171944200992584
1783169822798199300,0.13319921875,-0.0023846449330449104,0.0232053492218256,0.04359973222017288
1783169822808269300,0.143269287109375,-0.002102782716974616,0.026140892878174782,0.04416488856077194
1783169822818339000,0.153339111328125,-0.0014068987220525742,0.03156229108572006,0.04067295417189598
1783169822828408300,0.163408203125,-0.0005306350067257881,0.03814392164349556,0.03671734780073166
1783169822838478000,0.17347802734375,0.001808419357985258,0.04388223588466644,0.023271311074495316
1783169822848547000,0.183547119140625,0.0021243176888674498,0.04473899304866791,0.02485770545899868
1783169822858617000,0.1936171875,0.00559468287974596,0.046895354986190796,0.027576792985200882
1783169822868687000,0.20368701171875,0.007471678778529167,0.04810336232185364,0.02582336775958538
1783169822878756000,0.213756103515625,0.008249321952462196,0.04715767502784729,0.019843239337205887
1783169822888826000,0.223826171875,0.010458910837769508,0.05105186998844147,0.026012690737843513
1783169822898896000,0.233895751953125,0.008989378809928894,0.05433181673288345,0.03198962286114693
1783169822908965000,0.243965087890625,0.006318060681223869,0.05307022109627724,0.026648418977856636
1783169822919035000,0.254034912109375,0.009408925659954548,0.04983820766210556,0.01342715509235859
1783169822929105200,0.264105224609375,0.036184974014759064,0.011799246072769165,0.016765333712100983
1783169822939174100,0.274174072265625,0.06420569121837616,-0.016616683453321457,0.02999858185648918
1783169822949244000,0.284243896484375,0.07967165857553482,-0.02661421336233616,0.05215601623058319
1783169822959314200,0.294314208984375,0.07855979353189468,-0.0344897136092186,0.061077605932950974
1783169822969383000,0.3043828125,0.06584414094686508,-0.02456672489643097,0.05918688699603081
1783169822979453200,0.314453125,0.04198887199163437,-0.008973386138677597,0.06733136624097824
1783169822989523200,0.324523193359375,0.02645093947649002,0.019114844501018524,0.07135453075170517
1783169822999592200,0.33459228515625,0.011677851900458336,0.03845658525824547,0.06713448464870453
1783169823009662200,0.344662109375,0.010867380537092686,0.0381697379052639,0.05193575844168663
1783169823019732000,0.35473193359375,0.010007978416979313,0.02943883091211319,0.033616941422224045
1783169823029801200,0.36480126953125,0.01107884757220745,0.02532491646707058,0.037576716393232346
1783169823039871000,0.37487109375,0.008655636571347713,0.06539803743362427,0.03526242822408676
1783169823049941000,0.38494091796875,0.003057127818465233,0.06910661607980728,0.025066062808036804
1783169823060010000,0.395010009765625,-0.011330333538353443,0.02179129794239998,0.043187543749809265
1783169823070080000,0.405080078125,-0.021670963615179062,-0.005336630158126354,0.04658404365181923
1783169823080149200,0.415149169921875,-0.02033991552889347,0.004447024315595627,0.03010759875178337
1783169823090219000,0.425218994140625,-0.023978088051080704,0.017394065856933594,0.03921004384756088
1783169823100289000,0.4352890625,-0.02233172208070755,0.03097831830382347,0.05545452609658241
1783169823110358000,0.44535791015625,-0.017407000064849854,0.035247802734375,0.06566201895475388
1783169823120428000,0.455427978515625,-0.0013958094641566277,0.08312638103961945,0.056263189762830734
1783169823130498000,0.465498046875,-0.00031524524092674255,0.21388790011405945,0.06512461602687836
1783169823140567000,0.475567138671875,-0.019537143409252167,0.17076680064201355,0.06809909641742706
1783169823150637000,0.485636962890625,-0.025604983791708946,0.11404488980770111,0.05752404034137726
1783169823160707000,0.49570703125,-0.0373774915933609,0.0004642666317522526,0.05814668908715248
1783169823170776000,0.505776123046875,-0.04423890635371208,-0.03347151726484299,0.07781804352998734
1783169823180846000,0.51584619140625,-0.037770356982946396,-0.020159443840384483,0.08281812816858292
1783169823190916000,0.525916015625,-0.03650499880313873,0.04514320194721222,0.07627752423286438
1783169823200984800,0.53598486328125,-0.04020918905735016,0.07744388282299042,0.05497569590806961
1783169823211055000,0.54605517578125,-0.04328807070851326,0.06475099176168442,0.04736464470624924
1783169823221125000,0.556125,-0.05346187949180603,0.022686360403895378,0.07584528625011444
1783169823231194000,0.566194091796875,-0.05576680973172188,0.0042680841870605946,0.0762365385890007
1783169823241264000,0.57626416015625,-0.046354398131370544,-0.017273958772420883,0.03777516633272171
1783169823251334000,0.586333984375,-0.021161139011383057,-0.09256604313850403,-0.008294478990137577
1783169823261403100,0.596403076171875,-0.004725173115730286,-0.08060792088508606,-0.018534598872065544
1783169823271473200,0.60647314453125,-0.002402654616162181,-0.06847189366817474,-0.01327949296683073
1783169823281543000,0.61654296875,-0.0052716778591275215,-0.04005783423781395,0.00011540856212377548
1783169823291612200,0.626612060546875,-0.011485258117318153,-0.02128877118229866,0.008481553755700588
1783169823301682000,0.636681884765625,-0.021181827411055565,0.0003419565036892891,-0.005887532141059637
1783169823311751200,0.646751220703125,-0.02389196865260601,0.021892085671424866,-0.015738122165203094
1783169823321821000,0.656821044921875,-0.018279889598488808,0.03997468203306198,-0.011959630064666271
1783169823331891000,0.666890869140625,-0.013548274524509907,0.05885888263583183,0.003164618043228984
1783169823341960000,0.6769599609375,-0.005420572590082884,0.06191965192556381,-0.00289806816726923
1783169823352030000,0.687030029296875,0.003262215293943882,0.0650024265050888,-0.01789221540093422
1783169823362100200,0.697100341796875,-0.0011517077218741179,0.06826985627412796,-0.023157019168138504
1783169823372169000,0.7071689453125,-0.014014692977070808,0.06895578652620316,0.002546729054301977
1783169823382239000,0.717239013671875,-0.012510007247328758,0.060351379215717316,-0.0066307904198765755
1783169823392309000,0.72730908203125,-0.008519633673131466,0.04690117761492729,-0.0257521104067564
1783169823402378000,0.7373779296875,-0.008522296324372292,0.035362232476472855,-0.022880690172314644
1783169823412448300,0.7474482421875,-0.013344748876988888,0.03198188170790672,0.0035301444586366415
1783169823422518000,0.75751806640625,-0.01073724776506424,0.015575479716062546,0.009467928670346737
1783169823432587300,0.767587158203125,-0.008877210319042206,0.0009345556609332561,-0.006340223364531994
1783169823442657000,0.777656982421875,-0.0027367600705474615,-0.02104770764708519,-0.00737166590988636
1783169823452727000,0.78772705078125,-0.0009368148166686296,-0.039069920778274536,0.002257952466607094
1783169823462796000,0.797796142578125,-0.003979209810495377,-0.05227360874414444,0.022479867562651634
1783169823472866000,0.807865966796875,-0.014572538435459137,-0.061700694262981415,0.03222351148724556
1783169823482936000,0.81793603515625,-0.011924024671316147,-0.06729573011398315,0.0386478528380394
1783169823493005000,0.828005126953125,-0.01757693476974964,-0.05683232843875885,0.04170437902212143
1783169823503075000,0.838074951171875,-0.029881538823246956,-0.045004695653915405,0.03310369700193405
1783169823513145000,0.84814501953125,-0.039977990090847015,-0.05930503085255623,0.028564095497131348
1783169823523214000,0.858214111328125,-0.04078279808163643,-0.044419825077056885,0.0196723323315382
1783169823533283800,0.868283935546875,-0.04176784306764603,-0.0387580581009388,0.010740496218204498
1783169823543353000,0.87835302734375,-0.035804759711027145,-0.03136485815048218,0.011512545868754387
1783169823553423000,0.888423095703125,-0.025561515241861343,-0.030887112021446228,0.010913806036114693
1783169823563493000,0.8984931640625,-0.023303953930735588,-0.032682616263628006,0.0030430993065238
1783169823573562000,0.90856201171875,-0.025306468829512596,-0.023528162389993668,0.005593623034656048
1783169823583632000,0.9186318359375,-0.010808219201862812,-0.042223550379276276,0.013531440868973732
1783169823593702100,0.9287021484375,0.0010410549584776163,-0.04765957221388817,0.008682155050337315
1783169823603771000,0.93877099609375,-0.02659483253955841,-0.042163871228694916,0.007370281964540482
1783169823613841200,0.948841064453125,-0.04129016771912575,-0.05224327743053436,0.016916194930672646
1783169823623911200,0.9589111328125,-0.05038220062851906,-0.04919262230396271,0.025159211829304695
1783169823633980200,0.968980224609375,-0.047449782490730286,-0.05962222442030907,0.02662813290953636
1783169823644050200,0.97905029296875,-0.03858731687068939,-0.05343090742826462,0.031117688864469528
1783169823654120000,0.989119873046875,-0.02873358130455017,-0.04898647591471672,0.029973093420267105
1783169823664189200,0.999189208984375,0.003382275812327862,-0.05296390876173973,0.026824437081813812
1783169823674259000,1.009259033203125,0.017817310988903046,-0.03227171301841736,0.015880536288022995
1783169823684329000,1.019328857421875,-0.008852116763591766,-0.05798746272921562,0.009641283191740513
1783169823694398200,1.029398193359375,-0.009633392095565796,-0.04006941616535187,0.020271729677915573
1783169823704468000,1.039468017578125,-0.017328329384326935,-0.034030430018901825,0.01652652770280838
1783169823714538000,1.0495380859375,-0.014943456277251244,-0.01885320618748665,0.019019167870283127
1783169823724607000,1.05960693359375,-0.007649324834346771,-0.005464163608849049,0.019303327426314354
1783169823734677000,1.069677001953125,0.0023853706661611795,0.008297689259052277,0.009484345093369484
1783169823744746000,1.07974609375,0.013920320197939873,0.016343364492058754,0.0014221577439457178
1783169823754816000,1.08981591796875,0.02007525973021984,0.025456607341766357,-0.007174697704613209
1783169823764886000,1.099885986328125,0.02032027207314968,0.028678230941295624,-0.00694326963275671
1783169823774955000,1.109955078125,0.0145080192014575,0.02845659852027893,-0.005637227091938257
1783169823785025000,1.12002490234375,0.011882408522069454,0.030992459505796432,-0.00000490737147629261
1783169823795095000,1.130094970703125,0.02079210989177227,0.03906586766242981,-0.002846590941771865
1783169823805164000,1.1401640625,0.03048628382384777,0.04333757609128952,-0.0055358512327075005
1783169823815234300,1.150234375,0.02626553550362587,0.04576188325881958,-0.001011767890304327
1783169823825304000,1.160303955078125,0.016778290271759033,0.048151273280382156,0.000868690200150013
1783169823835373000,1.170373046875,0.009280899539589882,0.0474855974316597,0.0031881637405604124
1783169823845443000,1.180443115234375,0.0069610197097063065,0.048594534397125244,-0.003692379454150796
1783169823855512800,1.190512939453125,0.00893514882773161,0.04248069226741791,0.0013228219468146563
1783169823865581800,1.200581787109375,-0.009031067602336407,0.04761819541454315,0.003455481259152293
1783169823875651800,1.21065185546875,-0.022100094705820084,0.03764435648918152,-0.00009202607907354832
1783169823885721600,1.2207216796875,-0.01001440454274416,0.03172601759433746,-0.006586411036550999
1783169823895790800,1.230790771484375,0.003995335660874844,0.02839885652065277,-0.002062070183455944
1783169823905860600,1.240860595703125,0.02001478150486946,0.018783781677484512,0.00960603728890419
1783169823915930600,1.2509306640625,0.020808029919862747,0.008435098454356194,0.010699436068534851
1783169823925999900,1.260999755859375,0.006750001106411219,0.011419436894357204,0.012953801080584526
1783169823936069600,1.271069580078125,0.001223203376866877,0.02113160863518715,0.014993658289313316
1783169823946140000,1.281139892578125,0.000015726196579635143,0.03612919896841049,0.007958119735121727
1783169823956208600,1.291208740234375,0.0018163251224905252,0.04400111734867096,-0.006005601026117802
1783169823966279000,1.30127880859375,0.006002548150718212,0.04034406319260597,-0.0030087458435446024
1783169823976347600,1.31134765625,0.011533110402524471,0.030849352478981018,0.002496697474271059
1783169823986417700,1.321417724609375,0.016774743795394897,0.020788729190826416,0.0029579568654298782
1783169823996488000,1.331488037109375,0.017949270084500313,0.021758411079645157,0.0029383115470409393
1783169824006556700,1.341556640625,0.015326056629419327,0.02346336841583252,0.0050270287320017815
1783169824016627000,1.351626953125,0.010072644799947739,0.02145785093307495,0.012262163683772087
1783169824026696700,1.36169677734375,0.009435882791876793,0.026966335251927376,0.0044977180659770966
1783169824036765700,1.371765625,0.014603819698095322,0.027943115681409836,-0.000569032970815897
1783169824046835700,1.381835693359375,0.013545745052397251,0.021302256733179092,0.004802030511200428
1783169824056905700,1.39190576171875,0.005907970014959574,0.014352263882756233,0.011880156584084034
1783169824066975000,1.40197509765625,-0.0036482508294284344,0.009448053315281868,0.01305993739515543
1783169824077044700,1.412044677734375,-0.005544663872569799,0.00436621718108654,0.0032862459775060415
1783169824087114800,1.42211474609375,-0.0099239656701684,0.007608881685882807,0.006526780314743519
1783169824097183700,1.432183837890625,-0.002173428423702717,0.020732520148158073,0.024045178666710854
1783169824107253800,1.442253662109375,0.003458091989159584,0.01860092580318451,0.026514727622270584
1783169824117323800,1.45232373046875,0.010483643040060997,0.03942000865936279,0.009263623505830765
1783169824127392800,1.462392822265625,0.019301103428006172,0.029627831652760506,0.0075546735897660255
1783169824137462800,1.472462890625,0.027245167642831802,0.046025488525629044,0.010298551060259342
1783169824147532800,1.48253271484375,0.035817086696624756,-0.026532068848609924,0.021308058872818947
1783169824157601800,1.492601806640625,0.031137293204665184,-0.013591930270195007,0.025732913985848427
1783169824167671800,1.502671875,0.003980507142841816,-0.010126359760761261,0.01546482928097248
1783169824177740800,1.51274072265625,0.004923847503960133,-0.010026739910244942,0.02870868518948555
1783169824187810600,1.522810546875,0.0105582969263196,-0.003903334029018879,0.029821619391441345
1783169824197880800,1.532880859375,0.013857482001185417,0.007145741954445839,0.01450192928314209
1783169824207949800,1.54294970703125,0.0071500446647405624,0.012201753444969654,-0.0003899349831044674
1783169824218019800,1.553019775390625,0.002639387734234333,0.01892847940325737,0.00950969010591507
1783169824228089900,1.56308984375,0.00266442121937871,0.014148370362818241,0.005787123925983906
1783169824238158600,1.57315869140625,0.001306209247559309,0.02204996906220913,0.011770447716116905
1783169824248228900,1.583228759765625,0.006326800212264061,0.023700596764683723,0.013922016136348248
1783169824258299000,1.593298828125,0.010951511561870575,0.023427268490195274,0.01929754763841629
1783169824268368000,1.603367919921875,0.010689990594983101,0.01557840034365654,0.014335012063384056
1783169824278438000,1.61343798828125,0.015235607512295246,0.015086069703102112,0.015354263596236706
1783169824288507600,1.623507568359375,0.016467051580548286,0.019022755324840546,0.01764431595802307
1783169824298577000,1.633576904296875,0.017846619710326195,0.026340339332818985,0.013797068037092686
1783169824308646700,1.643646728515625,0.0224554855376482,0.030139071866869926,-0.00012407335452735424
1783169824318716700,1.653716552734375,0.019016483798623085,0.02537905052304268,-0.002992441412061453
1783169824328785700,1.66378564453125,0.014848371036350727,0.013274716213345528,-0.006009003613144159
1783169824338855700,1.673855712890625,0.010231575928628445,0.007184221409261227,-0.0008740194607526064
1783169824348925000,1.683925048828125,0.00442774873226881,0.008206342346966267,0.0019332184456288815
1783169824358994700,1.69399462890625,0.007209662813693285,0.0008666613139212132,0.008504457771778107
1783169824369064700,1.704064697265625,0.007581440266221762,0.00029834266752004623,0.011379074305295944
1783169824379133700,1.7141337890625,0.008910865522921085,-0.0019704122096300125,0.012052476406097412
1783169824389203700,1.72420361328125,0.01132102683186531,-0.0015238001942634583,0.01116484496742487
1783169824399274000,1.73427392578125,0.012754049152135849,0.001596085261553526,0.009082142263650894
1783169824409342700,1.7443427734375,0.015976740047335625,0.008291804231703281,0.003898032708093524
1783169824419412700,1.754412841796875,0.015666265040636063,0.009672936052083969,0.0076021794229745865
1783169824429482800,1.764482666015625,0.012473134323954582,0.007633753586560488,0.01670486479997635
1783169824439551700,1.7745517578125,0.0043440526351332664,0.005959674715995789,0.009692005813121796
1783169824449621800,1.784621826171875,0.00704396516084671,0.001793957781046629,0.005801926366984844
1783169824459691800,1.79469189453125,0.009255151264369488,0.008278876543045044,0.0013972907327115536
1783169824469760800,1.8047607421875,0.008396015502512455,0.012442728504538536,0.005394428968429565
1783169824479830800,1.814830810546875,0.009203874506056309,0.0168356541544199,0.01197059452533722
1783169824489900800,1.82490087890625,0.007181202992796898,0.020639978349208832,0.017307303845882416
1783169824499969800,1.8349697265625,0.008860676549375057,0.02362953871488571,0.009772938676178455
1783169824510039800,1.845039794921875,-0.004448471590876579,0.05095304176211357,0.010685604065656662
1783169824520108800,1.85510888671875,-0.01227451954036951,0.06664714962244034,0.007027234882116318
1783169824530178800,1.8651787109375,-0.0025912660639733076,0.062010057270526886,-0.0032850573770701885
1783169824540248800,1.875248779296875,0.005924941971898079,0.06059510260820389,-0.0026381302159279585
1783169824550317800,1.88531787109375,0.003949674777686596,0.06850575655698776,0.005298622418195009
1783169824560387800,1.895387939453125,-0.0003654083702713251,0.07399627566337585,0.004230461083352566
1783169824570457600,1.90545751953125,-0.0017870038282126188,0.06847687065601349,0.002898081671446562
1783169824580526800,1.91552685546875,-0.0009835767559707165,0.060349419713020325,0.005910694599151611
1783169824590596600,1.9255966796875,-0.001761219697073102,0.050607845187187195,0.010094520635902882
1783169824600667000,1.9356669921875,-0.0006188333500176668,0.042650505900382996,0.011600853875279427
1783169824610735900,1.94573583984375,-0.0014268364757299423,0.033325713127851486,0.004767981823533773
1783169824620805600,1.9558056640625,-0.0059411730617284775,0.02464660257101059,0.007490343414247036
1783169824630876000,1.9658759765625,-0.006702571175992489,0.01893731579184532,0.013063539750874043
1783169824640944600,1.975944580078125,-0.0033136617857962847,0.020172011107206345,0.015896493569016457
1783169824651015000,1.986014892578125,-0.00121775409206748,0.020112091675400734,0.016026455909013748
1783169824661083600,1.996083740234375,-0.0009799939580261707,0.017563648521900177,0.011445560492575169
1783169824671153700,2.006153564453125,-0.0039667291566729546,0.010570721700787544,0.008342712186276913
1783169824681224000,2.016223876953125,-0.009061174467206001,0.0013799900189042091,0.015943121165037155
1783169824691292700,2.026292724609375,-0.009443603456020355,-0.001298617571592331,0.025937963277101517
1783169824701363000,2.036363037109375,-0.009441038593649864,0.00027288123965263367,0.02239551581442356
1783169824711432700,2.0464326171875,-0.0068694897927343845,0.004870829172432423,0.007813111878931522
1783169824721502000,2.056501953125,-0.0038215138483792543,0.009614313021302223,0.007876839488744736
1783169824731571700,2.06657177734375,-0.003411387326195836,0.006553808692842722,0.008280574344098568
1783169824741641700,2.076641845703125,-0.005648369900882244,0.008353598415851593,0.0021809376776218414
1783169824751711000,2.0867109375,-0.0069903358817100525,0.010574674233794212,-0.012077894061803818
1783169824761780700,2.09678076171875,-0.00676475465297699,0.01189760398119688,-0.014619426801800728
1783169824771850800,2.106850830078125,-0.006409222260117531,0.014411628246307373,-0.01276320219039917
1783169824781919700,2.116919677734375,-0.007005153223872185,0.015323122963309288,-0.011757340282201767
1783169824791989800,2.12698974609375,-0.007291710004210472,0.010188017040491104,0.0052368235774338245
1783169824802059800,2.137059814453125,-0.0023253513500094414,0.006831934675574303,0.02355102077126503
1783169824812128800,2.147128662109375,-0.0018102959729731083,0.006912894546985626,0.021349651739001274
1783169824822198800,2.15719873046875,0.0025389136280864477,0.008717094548046589,0.011429762467741966
1783169824832267800,2.167267822265625,0.002265939489006996,0.008330936543643475,0.0033534602262079716
1783169824842337800,2.177337890625,0.0036139453295618296,0.0044233850203454494,0.004168660845607519
1783169824852408800,2.187408935546875,0.004374277777969837,-0.0018390379846096039,0.0006160037592053413
1783169824862477800,2.197477783203125,0.004224149510264397,0.0031751859933137894,-0.004238069988787174
1783169824872547800,2.2075478515625,0.0008669684757478535,0.00504685565829277,0.0019529806450009346
1783169824882617600,2.21761767578125,0.0014089707983657718,0.008154780603945255,0.0013334867544472218
1783169824892686800,2.227686767578125,0.001469424576498568,0.00854200404137373,-0.009944201447069645
1783169824902756600,2.237756591796875,0.0005865133134648204,0.004358245059847832,-0.009455695748329163
1783169824912827000,2.247826904296875,-0.0038793415296822786,-0.0022786185145378113,-0.0023466527927666903
1783169824922895600,2.2578955078125,-0.004889695905148983,-0.002511986531317234,-0.0009204584639519453
1783169824932965600,2.267965576171875,-0.00875527411699295,-0.000965489074587822,-0.008223910816013813
1783169824943036000,2.278035888671875,-0.006602555513381958,-0.005810416303575039,-0.010891078040003777
1783169824953104600,2.288104736328125,-0.00718898419290781,-0.0165000781416893,-0.012122523970901966
1783169824963175000,2.2981748046875,-0.004733852110803127,-0.02119031548500061,-0.011794188991189003
1783169824973244700,2.30824462890625,-0.003637162270024419,-0.030609115958213806,-0.012215767055749893
1783169824983314000,2.31831396484375,-0.005605226382613182,-0.03518588840961456,-0.006063410080969334
1783169824993384000,2.328384033203125,-0.0037711074110120535,-0.036032773554325104,0.007299000397324562
1783169825003452700,2.33845263671875,-0.0018323261756449938,-0.03775211423635483,0.004612669814378023
1783169825013523000,2.34852294921875,-0.003383084898814559,-0.02877912111580372,-0.004072430543601513
1783169825023592700,2.3585927734375,-0.006268365308642387,-0.023677706718444824,0.0010808634106069803
1783169825033662000,2.368661865234375,-0.004431051202118397,-0.014764108695089817,-0.0010685739107429981
1783169825043731700,2.378731689453125,-0.007528234273195267,-0.003383331000804901,-0.011521149426698685
1783169825053801700,2.3888017578125,-0.009827340953052044,0.006679689045995474,-0.025485433638095856
1783169825063870700,2.39887060546875,-0.0163440965116024,0.005698846653103828,-0.019359098747372627
1783169825073940700,2.408940673828125,-0.016419997438788414,0.004650359973311424,-0.019054166972637177
1783169825084010800,2.4190107421875,-0.013098685070872307,0.003176638390868902,-0.025314627215266228
1783169825094079700,2.429079833984375,-0.006184053607285023,0.0035864990204572678,-0.0303216353058815
1783169825104149800,2.439149658203125,0.0005996971158310771,-0.0010875668376684189,-0.02782292291522026
1783169825114219800,2.4492197265625,0.0017603026935830712,-0.010853111743927002,-0.01789279282093048
1783169825124288800,2.459288818359375,-0.002256967592984438,-0.012983203865587711,-0.00799745786935091
1783169825134358800,2.46935888671875,-0.0031669698655605316,-0.01956414058804512,-0.004304984584450722
1783169825144428800,2.4794287109375,-0.004432636313140392,-0.022971300408244133,-0.013880319893360138
1783169825154497800,2.489497802734375,-0.00613253191113472,-0.024199286475777626,-0.011675755493342876
1783169825164567800,2.49956787109375,-0.011377422139048576,-0.027658354490995407,-0.00703161396086216
1783169825174636800,2.50963671875,-0.009939314797520638,-0.029557984322309494,-0.011798671446740627
1783169825184706600,2.51970654296875,-0.0018179449252784252,-0.02565203793346882,-0.01497780904173851
1783169825194776800,2.52977685546875,0.0007501412183046341,-0.021741453558206558,-0.01744629256427288
1783169825204845600,2.539845458984375,-0.002466571284458041,-0.018291909247636795,-0.015165433287620544
1783169825214915800,2.549915771484375,-0.004570201970636845,-0.014843381941318512,-0.01176990196108818
1783169825224985900,2.55998583984375,-0.009766996838152409,-0.013113627210259438,-0.013023803010582924
1783169825235054800,2.570054931640625,-0.009002936072647572,-0.011750621721148491,-0.015694687142968178
1783169825245124900,2.580124755859375,-0.007897396571934223,-0.014090321026742458,-0.010186327621340752
1783169825255194600,2.590194580078125,-0.005724790506064892,-0.016328442841768265,-0.008585235103964806
1783169825265263900,2.600263916015625,-0.008455582894384861,-0.017653759568929672,-0.012034372426569462
1783169825275334000,2.610333984375,-0.009012450464069843,-0.018745921552181244,-0.016335379332304
1783169825285403600,2.620403564453125,-0.008353112265467644,-0.01712367683649063,-0.018232226371765137
1783169825295473000,2.630472900390625,-0.01026046834886074,-0.015597687102854252,-0.005082867108285427
1783169825305542700,2.640542724609375,-0.011658530682325363,-0.011627945117652416,-0.0124556515365839
1783169825315612700,2.65061279296875,-0.009538920596241951,-0.008675831370055676,-0.011722750961780548
1783169825325681700,2.660681640625,-0.004829169251024723,-0.010987206362187862,-0.014178140088915825
1783169825335751700,2.670751708984375,-0.0012991491239517927,-0.011959525756537914,-0.014667894691228867
1783169825345820700,2.680820556640625,-0.004324089735746384,-0.01734740659594536,-0.009961048141121864
1783169825355890700,2.690890625,-0.005878310650587082,-0.01566295698285103,-0.013410109095275402
1783169825365961000,2.7009609375,-0.0052289096638560295,-0.015376894734799862,-0.009023325517773628
1783169825376029700,2.71102978515625,-0.0014216545969247818,-0.008997025899589062,-0.00991122331470251
1783169825386099700,2.721099609375,-0.0050618089735507965,-0.013132073916494846,-0.006965482607483864
1783169825396169700,2.731169677734375,-0.005128920543938875,-0.012641253881156445,-0.015139256604015827
1783169825406238700,2.74123876953125,-0.009340178221464157,-0.007156473584473133,-0.01645512506365776
1783169825416309000,2.75130908203125,-0.00660244794562459,-0.00587682519108057,-0.021654944866895676
1783169825426378800,2.761378662109375,-0.0060291169211268425,-0.004222485236823559,-0.020106270909309387
1783169825436447700,2.77144775390625,-0.0043981969356536865,-0.004004905000329018,-0.007918847724795341
1783169825446517800,2.781517822265625,-0.00478378776460886,-0.005033628083765507,-0.000009915558621287346
1783169825456587800,2.791587890625,-0.0062914034351706505,0.0033691772259771824,0.004712934140115976
1783169825466656800,2.80165673828125,-0.0075752027332782745,0.0024239239282906055,0.0018168503884226084
1783169825476726800,2.811726806640625,-0.0081549733877182,0.0023956946097314358,0.0001664895098656416
1783169825486795800,2.821795654296875,-0.002630827249959111,-0.004588461481034756,-0.007033590227365494
1783169825496865800,2.83186572265625,-0.004857230000197887,-0.006293416954576969,0.0019356701523065567
1783169825506935800,2.841935791015625,-0.005419579334557056,-0.005496162921190262,0.0012223105877637863
1783169825517004800,2.8520048828125,-0.006592435762286186,-0.0042729731649160385,-0.007089415565133095
1783169825527074800,2.86207470703125,-0.002331874566152692,-0.01710633561015129,-0.00945240631699562
1783169825537144600,2.87214453125,-0.0018716801423579454,-0.03240033611655235,-0.007912300527095795
1783169825547213800,2.8822138671875,-0.003984135575592518,-0.03983762487769127,-0.003746615257114172
1783169825557283800,2.892283935546875,-0.0032637505792081356,-0.03371315449476242,0.0002566482871770859
1783169825567353600,2.902353515625,-0.003638494061306119,-0.028268199414014816,0.004230051301419735
1783169825577422800,2.9124228515625,-0.0015122261829674244,-0.018794003874063492,0.014947410672903061
1783169825587492600,2.92249267578125,0.00017833616584539413,-0.012994575314223766,0.013020425103604794
1783169825597563000,2.93256298828125,0.004503043368458748,-0.004265266470611095,0.001886547077447176
1783169825607631600,2.942631591796875,0.0037165507674217224,0.002680104225873947,-0.007167547009885311
1783169825617702000,2.952701904296875,0.004668630659580231,0.007766741793602705,-0.014955162070691586
1783169825627770600,2.9627705078125,0.004382680635899305,0.012558059766888618,-0.00900719128549099
1783169825637840600,2.972840576171875,0.0008124469895847142,0.01659594476222992,-0.0073160831816494465
1783169825647911000,2.982910888671875,-0.00007520883809775114,0.0253731831908226,-0.0192215908318758
1783169825657979600,2.992979736328125,0.003477181773632765,0.02789066731929779,-0.021657850593328476
1783169825668050000,3.0030498046875,0.0020371614955365658,0.026845095679163933,-0.018725667148828506
1783169825678119700,3.01311962890625,0.004855851177126169,0.025786489248275757,-0.014781258068978786
1783169825688188700,3.023188720703125,0.0051569584757089615,0.02564806304872036,-0.008209398947656155
1783169825698259000,3.033259033203125,-0.00048255128785967827,0.019012529402971268,-0.011447536759078503
1783169825708328700,3.04332861328125,-0.02154475264251232,0.034078676253557205,-0.004159937612712383
1783169825718398000,3.05339794921875,-0.024342404678463936,0.0338781401515007,-0.012468467466533184
1783169825728467700,3.0634677734375,-0.014981260523200035,0.011260002851486206,-0.016583796590566635
1783169825738537700,3.073537841796875,-0.0033621557522565126,0.006126759573817253,-0.00803797971457243
1783169825748606700,3.083606689453125,-0.0062671443447470665,0.0014986712485551834,-0.005840376019477844
1783169825758676700,3.0936767578125,-0.008770248852670193,0.0012057237327098846,-0.009847900830209255
1783169825768746800,3.103746826171875,-0.0070337336510419846,-0.004604407586157322,-0.015605861321091652
1783169825778815700,3.113815673828125,-0.004526367411017418,-0.007436678744852543,-0.00783475674688816
1783169825788885800,3.1238857421875,-0.006230523809790611,-0.009815947152674198,0.006642719730734825
1783169825798954800,3.133954833984375,-0.006458491086959839,-0.00849928054958582,0.008468583226203918
1783169825809024800,3.144024658203125,-0.012233713641762733,-0.008925482630729675,0.006254793610423803
1783169825819094800,3.1540947265625,-0.013769558630883694,-0.008735332638025284,0.004939458332955837
1783169825829163800,3.164163818359375,-0.017042523249983788,-0.004985538311302662,0.007156531326472759
1783169825839233800,3.17423388671875,-0.019008735194802284,-0.0032278522849082947,0.009999189525842667
1783169825849303800,3.1843037109375,-0.015058517456054688,-0.007815961726009846,0.006237782537937164
1783169825859371800,3.194371826171875,-0.015843883156776428,-0.010099622420966625,0.005243092309683561
1783169825869441800,3.20444189453125,-0.01730658859014511,-0.010047899559140205,0.010546757839620113
1783169825879511800,3.21451171875,-0.017583290114998817,-0.013575790449976921,0.013007517904043198
1783169825889580800,3.224580810546875,-0.012674345634877682,-0.020877797156572342,0.01616748236119747
1783169825899650800,3.23465087890625,-0.010183757171034813,-0.02405894175171852,0.02097741700708866
1783169825909720600,3.244720458984375,-0.009189454838633537,-0.019080737605690956,0.025672543793916702
1783169825919789800,3.254789794921875,-0.009373745881021023,-0.018067937344312668,0.02475908026099205
1783169825929859800,3.26485986328125,-0.004374652169644833,-0.014797286130487919,0.017197370529174805
1783169825939929600,3.2749296875,-0.001515216426923871,-0.014728576876223087,0.016888976097106934
1783169825949998800,3.284998779296875,0.0008748133550398052,-0.01821022294461727,0.006946963258087635
1783169825960068600,3.295068603515625,0.00675986660644412,-0.009180774912238121,0.0005537783727049828
1783169825970137900,3.305137939453125,0.006718368269503117,-0.00008375663310289383,0.0012603765353560448
1783169825980207600,3.31520751953125,0.0014564942102879286,0.007439940236508846,0.01732962392270565
1783169825990278000,3.32527783203125,-0.0010877673048526049,0.016838807612657547,0.01757626049220562
1783169826000346600,3.3353466796875,-0.004948818124830723,0.026566002517938614,0.012314386665821075
1783169826010416600,3.345416748046875,-0.009463686496019363,0.027568813413381577,0.01232911180704832
1783169826020487000,3.35548681640625,-0.014034470543265343,0.03318089246749878,0.014116625301539898
1783169826030555600,3.3655556640625,-0.0133595522493124,0.031245332211256027,-0.000391143374145031
1783169826040626000,3.3756259765625,-0.013466345146298409,0.03276573121547699,-0.007862108759582043
1783169826050695700,3.38569580078125,-0.008938692510128021,0.03141750767827034,-0.00689812283962965
1783169826060764700,3.3957646484375,-0.008798344060778618,0.032114990055561066,-0.0005017423536628485
1783169826070835000,3.4058349609375,-0.008621001616120338,0.031091798096895218,0.0024880776181817055
1783169826080904700,3.41590478515625,-0.009604773484170437,0.026126600801944733,0.004231116734445095
1783169826090974000,3.425973876953125,-0.004579789936542511,0.01742267794907093,-0.0006147194653749466
1783169826101043700,3.436043701171875,-0.0015022407751530409,0.012922203168272972,0.011011576279997826
1783169826111113000,3.446113037109375,-0.00033756671473383904,0.009464111179113388,0.008958881720900536
1783169826121182700,3.4561826171875,-0.0022246825974434614,0.011255353689193726,0.0070592486299574375
1783169826131252700,3.466252685546875,-0.00023073749616742134,0.011194512248039246,0.0009840799029916525
1783169826141321700,3.47632177734375,0.004811691585928202,0.004311306402087212,-0.007207803428173065
1783169826151391700,3.486391845703125,0.004476809408515692,0.005855100229382515,-0.0051007382571697235
1783169826161461800,3.496461669921875,0.007611882872879505,0.005412483122199774,-0.0033031038474291563
1783169826171530800,3.50653076171875,0.01146066002547741,0.005936142988502979,-0.009722340852022171
1783169826181600800,3.516600830078125,0.013012219220399857,0.01114342175424099,-0.02108711376786232
1783169826191670800,3.5266708984375,0.011995387263596058,0.010891341604292393,-0.020487667992711067
1783169826201739800,3.53673974609375,0.009763658978044987,0.010231410153210163,-0.006420052610337734
1783169826211809800,3.546809814453125,0.006381514482200146,0.008592435158789158,0.004949955735355616
1783169826221879800,3.5568798828125,0.003992393147200346,0.011042277328670025,-0.0004517338238656521
1783169826231948800,3.56694873046875,0.0050103142857551575,0.00971244741231203,-0.007004828192293644
1783169826242018800,3.577018798828125,0.0045173633843660355,0.0034636063501238823,-0.015549846924841404
1783169826252087800,3.587087890625,0.00659254752099514,-0.00321958027780056,-0.019135037437081337
1783169826262157600,3.597157470703125,0.0014491844922304153,-0.008282781578600407,-0.015133104287087917
1783169826272227800,3.607227783203125,0.0002143980236724019,-0.012953126803040504,-0.01572510413825512
1783169826282296600,3.617296630859375,-0.0012298342771828175,-0.02050931192934513,-0.026583079248666763
1783169826292366800,3.627366943359375,-0.004227597266435623,-0.027466457337141037,-0.02422947622835636
1783169826302436900,3.637436767578125,-0.005211635492742062,-0.030775170773267746,0.014677709899842739
1783169826312505600,3.647505615234375,0.0009660259238444269,-0.0280316062271595,0.032385796308517456
1783169826322576000,3.657575927734375,0.0018991975812241435,-0.02723824977874756,0.009956123307347298
1783169826332646000,3.66764599609375,0.0025957943871617317,-0.019727498292922974,0.0034662727266550064
1783169826342715000,3.67771484375,-0.005587833002209663,-0.010356632992625237,0.016285398975014687
1783169826352785000,3.687784912109375,-0.008933184668421745,-0.010496013797819614,0.019552137702703476
1783169826362854700,3.697854736328125,-0.0021389287430793047,-0.007250419817864895,0.002392591442912817
1783169826372924000,3.707923828125,-0.0016418031882494688,-0.005120052956044674,-0.013850286602973938
1783169826382993700,3.71799365234375,-0.0022607215214520693,-0.011125480756163597,-0.010783124715089798
1783169826393063000,3.72806298828125,0.0021359892562031746,-0.009519028477370739,-0.009991451166570187
1783169826403132700,3.738132568359375,0.006842327304184437,-0.015467465855181217,-0.007338942959904671
1783169826413202700,3.74820263671875,0.008737117983400822,-0.02349265292286873,0.0019818975124508142
1783169826423271700,3.758271728515625,0.00595810916274786,-0.028270363807678223,0.02250528335571289
1783169826433341700,3.768341796875,0.0015193073777481914,-0.027807941660284996,0.025557957589626312
1783169826443411700,3.77841162109375,0.0027467585168778896,-0.024327455088496208,0.008888432756066322
1783169826453480700,3.788480712890625,0.002193718682974577,-0.02378760278224945,0.006504022050648928
1783169826463550700,3.79855078125,0.006050242111086845,-0.025746088474988937,0.007109891157597303
1783169826473621000,3.80862109375,0.00752594880759716,-0.021066900342702866,0.010416695848107338
1783169826483689700,3.818689697265625,0.004518973641097546,-0.024781744927167892,0.007186015136539936
1783169826493759700,3.828759765625,0.0009476255509071052,-0.017490023747086525,0.007488059811294079
1783169826503829800,3.838829833984375,0.0002048698952421546,-0.014108076691627502,0.003378003602847457
1783169826513898800,3.848898681640625,0.0008587738848291337,-0.013283795677125454,0.008525274693965912
1783169826523968800,3.85896875,-0.001122085377573967,-0.008096489124000072,0.00015655765309929848
1783169826534037800,3.869037841796875,0.001107025076635182,-0.0036876993253827095,-0.004530284088104963
1783169826544107800,3.879107666015625,0.0036468817852437496,-0.001994195394217968,-0.003531066235154867
1783169826554177800,3.889177734375,0.005078720860183239,0.001920425333082676,-0.0054634250700473785
1783169826564246800,3.899246826171875,0.002297848230227828,-0.0046168360859155655,-0.007883439771831036
1783169826574316800,3.90931689453125,0.002697842661291361,-0.012731092981994152,0.0035943291150033474
1783169826584386800,3.91938671875,0.0012067387579008937,-0.017302941530942917,0.008396008983254433
1783169826594455800,3.929455810546875,0.0006027338095009327,-0.023357372730970383,0.013277316465973854
1783169826604525800,3.93952587890625,0.0007931498112156987,-0.020918183028697968,0.009823995642364025
1783169826614595800,3.949595947265625,0.002650426235049963,-0.019261833280324936,-0.0005377540364861488
1783169826624664800,3.959664794921875,0.0043535176664590836,-0.01734835095703602,-0.0035740239545702934
1783169826634734800,3.96973486328125,0.00865982472896576,-0.011847068555653095,0.0063525293953716755
1783169826644804600,3.9798046875,0.007922661490738392,-0.000025828368961811066,0.005515764467418194
1783169826654873900,3.989873779296875,0.0077611422166228294,0.010417934507131577,-0.006747076287865639
1783169826664943600,3.999943603515625,0.006528365425765514,0.018308881670236588,-0.006947612389922142
1783169826675012900,4.010012939453125,0.008685030043125153,0.02386677823960781,-0.005794697441160679
1783169826685082600,4.02008251953125,0.010571346618235111,0.023594336584210396,-0.01703110709786415
1783169826695152600,4.030152587890625,0.008827132172882557,0.017024148255586624,-0.01752016320824623
1783169826705222000,4.040221923828125,0.012998707592487335,0.01850193738937378,-0.008846515789628029
1783169826715291600,4.050291748046875,0.013804400339722633,0.011782409623265266,-0.0004884598311036825
1783169826725362000,4.06036181640625,0.012680546380579472,0.013018649071455002,-0.009696871973574162
1783169826735430700,4.0704306640625,0.011421862058341503,0.004025662317872047,-0.013385418802499771
1783169826745501000,4.0805009765625,0.009782420471310616,0.0011132294312119484,-0.010570723563432693
1783169826755571000,4.090571044921875,0.008700267411768436,0.002793780993670225,-0.0017168843187391758
1783169826765639700,4.1006396484375,0.008426761254668236,0.012036015279591084,0.0027939779683947563
1783169826775710000,4.1107099609375,0.009318075142800808,0.015007643029093742,-0.003675698069855571
1783169826785779700,4.12077978515625,0.012602551840245724,0.017720870673656464,-0.007992149330675602
1783169826795849000,4.130848876953125,0.010410103015601635,0.01659950241446495,-0.007946556434035301
1783169826805918700,4.140918701171875,0.007749871350824833,0.012065204791724682,-0.012764748185873032
1783169826815987700,4.15098779296875,0.005416057072579861,0.007548588793724775,-0.012540504336357117
1783169826826057700,4.1610576171875,0.002205084078013897,0.00045712338760495186,-0.011980706825852394
1783169826836127700,4.171127685546875,0.0013775090919807553,0.0007137628272175789,-0.004328694194555283
1783169826846197000,4.181197021484375,0.006895844824612141,-0.008518085815012455,0.008545825257897377
1783169826856267500,4.191267578125,0.006212078966200352,-0.011861504055559635,0.0019757510162889957
1783169826866337500,4.201337646484375,0.007624353282153606,-0.014004549942910671,-0.0007896753959357738
1783169826876406500,4.211406494140625,0.011348272673785686,-0.012395815923810005,0.002328836591914296
1783169826886476500,4.2214765625,0.00938978511840105,-0.008411727845668793,0.00019564456306397915
1783169826896546600,4.231546630859375,0.007580116856843233,-0.005890262313187122,-0.009267590939998627
1783169826906615600,4.241615478515625,0.011357012204825878,-0.005050834268331528,-0.017252281308174133
1783169826916685600,4.251685546875,0.010112565942108631,-0.006626077927649021,-0.0055892737582325935
1783169826926755300,4.26175537109375,0.016496963798999786,-0.004378370009362698,0.0076783280819654465
1783169826936824600,4.271824462890625,0.01847759261727333,0.0012285285629332066,0.006857844069600105
1783169826946894300,4.281894287109375,0.01565384306013584,0.007594814989715815,0.0010660015977919102
1783169826956963600,4.291963623046875,0.0036087986081838608,0.010134905576705933,0.004632321186363697
1783169826967033600,4.30203369140625,-0.0029401807114481926,0.013958672061562538,0.00018457602709531784
1783169826977103400,4.312103271484375,-0.0018620833288878202,0.016732636839151382,-0.003328972263261676
1783169826987172600,4.322172607421875,-0.005665875971317291,0.016025833785533905,-0.0034184546675533056
1783169826997242400,4.332242431640625,-0.005309725180268288,0.011917803436517715,-0.007298686541616917
1783169827007312600,4.342312744140625,-0.0036668211687356234,0.0097153689712286,-0.012140580452978611
1783169827017381400,4.35238134765625,-0.009782758541405201,0.0048816027119755745,-0.02034958451986313
1783169827027451400,4.362451416015625,0.0043351911008358,-0.002283632755279541,-0.018779916688799858
1783169827037521700,4.372521728515625,0.028116829693317413,-0.04481462389230728,-0.011993945576250553
1783169827047590400,4.38259033203125,0.021625109016895294,-0.05323474109172821,-0.006516356952488422
1783169827057660700,4.39266064453125,0.007924780249595642,-0.04653487727046013,-0.0008051714394241571
1783169827067730400,4.40273046875,0.004481579177081585,-0.05375044792890549,0.0005945861339569092
1783169827077799700,4.412799560546875,-0.0008295390289276838,-0.057912155985832214,0.01348812598735094
1783169827087869400,4.422869384765625,0.004887202754616737,-0.053603701293468475,0.02651870623230934
1783169827097938400,4.4329384765625,0.00902463123202324,-0.04440759867429733,0.023407086730003357
1783169827108008700,4.4430087890625,0.01776246353983879,-0.0282621867954731,0.007381513714790344
1783169827118078500,4.453078369140625,0.01608223468065262,-0.02206418104469776,-0.002597551327198744
1783169827128147700,4.463147705078125,0.016715800389647484,-0.013653650879859924,-0.004781343974173069
1783169827138217500,4.473217529296875,0.007933932356536388,-0.010613862425088882,-0.009617921896278858
1783169827148287500,4.48328759765625,0.010424787178635597,-0.005994344130158424,-0.01164618507027626
1783169827158356500,4.4933564453125,0.01146208867430687,-0.003429187461733818,-0.0097151268273592
1783169827168426500,4.503426513671875,0.00932223815470934,-0.0017450042068958282,-0.003966161049902439
1783169827178496500,4.51349658203125,0.0033657881431281567,0.007051941938698292,0.006099410820752382
1783169827188565500,4.5235654296875,0.003712531877681613,0.013440333306789398,-0.0010810040403157473
1783169827198635500,4.533635498046875,0.006658216938376427,0.01209901925176382,-0.013316133990883827
1783169827208705500,4.54370556640625,0.006370862014591694,0.012554153800010681,-0.011216230690479279
1783169827218774500,4.5537744140625,0.004545761272311211,0.012050138786435127,-0.003194559598341584
1783169827228844500,4.563844482421875,0.0040275100618600845,0.008976317942142487,-0.00818612240254879
1783169827238913500,4.57391357421875,0.0020265213679522276,0.013184813782572746,-0.010320540517568588
1783169827248983600,4.583983642578125,0.0016981536755338311,0.012949923053383827,-0.002464747754856944
1783169827259053600,4.594053466796875,0.002124897902831435,0.009397880174219608,-0.0010583973489701748
1783169827269122600,4.60412255859375,0.003962745424360037,0.005095276981592178,-0.00802362896502018
1783169827279192300,4.6141923828125,0.0017237759893760085,-0.004031658172607422,-0.0023822151124477386
1783169827289262600,4.6242626953125,0.0026545508299022913,-0.00877075269818306,0.004333478398621082
1783169827299331300,4.634331298828125,0.004281259141862392,-0.013869625516235828,-0.003373483195900917
1783169827309401600,4.644401611328125,0.008827807381749153,-0.015302672050893307,-0.006826271768659353
1783169827319471600,4.6544716796875,0.014889515936374664,-0.00936206430196762,-0.001857616938650608
1783169827329540600,4.66454052734375,0.014719606377184391,-0.004734022542834282,-0.0007484103552997112
1783169827339610600,4.674610595703125,0.013960301876068115,0.004172774031758308,-0.0009963863994926214
1783169827349680400,4.684680419921875,0.011207924224436283,0.012326041236519814,-0.006774379871785641
1783169827359749600,4.69474951171875,0.009648414328694344,0.02438924089074135,-0.010567485354840755
1783169827369819600,4.704819580078125,0.009290485642850399,0.02754056081175804,-0.014923084527254105
1783169827379888600,4.714888671875,0.0031927756499499083,0.02763572335243225,-0.012968014925718307
1783169827389958700,4.724958740234375,-0.0015878647100180387,0.021629761904478073,-0.010973572731018066
1783169827400028400,4.7350283203125,-0.0027455538511276245,0.020984608680009842,-0.010045118629932404
1783169827410097700,4.74509765625,-0.0018941410817205906,0.017467372119426727,-0.0056341253221035
1783169827420167400,4.75516748046875,0.004020511172711849,0.01657029613852501,-0.008539063856005669
1783169827430237400,4.765237548828125,0.005502826534211636,0.010906286537647247,-0.018582643941044807
1783169827440306400,4.775306396484375,0.0054392265155911446,0.006494243163615465,-0.011631300672888756
1783169827450376400,4.78537646484375,0.007933543063700199,0.00468755466863513,-0.0015017008408904076
1783169827460446700,4.79544677734375,0.0032455064356327057,0.00726280827075243,-0.000985919963568449
1783169827470515500,4.805515380859375,0.0014449430163949728,0.006233496591448784,-0.0010876525193452835
1783169827480585500,4.81558544921875,0.005207240581512451,0.007507834583520889,-0.006412149872630835
1783169827490654500,4.825654541015625,0.007179577369242907,0.003429470118135214,-0.0033026430755853653
1783169827500724500,4.835724365234375,0.0020730402320623398,-0.0027916505932807922,0.0017827346455305815
1783169827510794800,4.845794677734375,-0.002834899118170142,-0.0034976545721292496,-0.006132446229457855
1783169827520863500,4.855863525390625,-0.004009885713458061,-0.0007159831002354622,-0.00811916496604681
1783169827530933500,4.86593359375,-0.0018037233967334032,-0.0014733858406543732,-0.013096345588564873
1783169827541003500,4.87600341796875,0.0033344808034598827,-0.004596773535013199,-0.014400947839021683
1783169827551072500,4.886072509765625,0.009270134381949902,-0.004927804693579674,-0.014606542885303497
1783169827561142500,4.896142578125,0.0094441007822752,-0.01117382850497961,-0.008326394483447075
1783169827571212500,4.906212646484375,0.0053140707314014435,-0.019592612981796265,0.013578372076153755
1783169827581281500,4.916281494140625,0.005743056070059538,-0.019280239939689636,0.014723304659128189
1783169827591351600,4.9263515625,0.005420014262199402,-0.012305955402553082,0.005449379328638315
1783169827601421600,4.936421630859375,0.0022704980801790953,-0.0024673258885741234,0.002377804834395647
1783169827611490600,4.946490478515625,-0.002307476010173559,0.006251863669604063,0.008243417367339134
1783169827621560600,4.956560546875,-0.006163949612528086,0.015323937870562077,0.001994004473090172
1783169827631629600,4.966629638671875,-0.0046073319390416145,0.02325003780424595,-0.00007180962711572647
1783169827641699600,4.976699462890625,-0.004736130125820637,0.022450055927038193,-0.005890365689992905
1783169827651769600,4.98676953125,-0.003998700529336929,0.016873130574822426,-0.01173360738903284
1783169827661838600,4.996838623046875,-0.0007986831478774548,0.007656584493815899,-0.01139302458614111
1783169827671908600,5.00690869140625,-0.0018759318627417088,-0.0016522286459803581,-0.007860341109335423
1783169827681978400,5.016978271484375,-0.0018279699143022299,-0.007968972437083721,-0.004065223969519138
1783169827692047600,5.027047607421875,0.0006186760729178786,-0.013208475895226002,0.0002951696515083313
1783169827702117400,5.037117431640625,-0.004262643866240978,-0.01779218018054962,0.0015477314591407776
1783169827712187600,5.047187744140625,-0.0012159878388047218,-0.020855613052845,0.008881544694304466
1783169827722256400,5.05725634765625,0.0020706928335130215,-0.017269110307097435,0.01013436634093523
1783169827732326400,5.067326416015625,0.005286193452775478,-0.011809896677732468,0.009676302783191204
1783169827742395600,5.077395751953125,-0.0020144283771514893,-0.008113461546599865,0.00943004246801138
1783169827752465400,5.08746533203125,-0.009308027103543282,-0.00032797642052173615,0.0050781709142029285
1783169827762535700,5.09753564453125,-0.011703071184456348,0.0061311013996601105,-0.004616151563823223
1783169827772604400,5.1076044921875,-0.006687539629638195,0.00949946790933609,-0.006655333563685417
1783169827782674400,5.11767431640625,-0.006974480114877224,0.004136175382882357,-0.0025768247433006763
1783169827792744700,5.12774462890625,-0.004517447203397751,-0.0013246368616819382,-0.0035579330287873745
1783169827802813400,5.1378134765625,-0.006117245182394981,-0.0024853870272636414,-0.0031824626494199038
1783169827812883700,5.1478837890625,-0.006288220174610615,-0.009564869105815887,-0.0018170599360018969
1783169827822953500,5.157953369140625,-0.004139197990298271,-0.013567115180194378,0.004735767841339111
1783169827833022700,5.168022705078125,-0.0018619289621710777,-0.014746096916496754,0.00773661769926548
1783169827843092500,5.178092529296875,-0.004735962487757206,-0.00942135602235794,0.010129962116479874
1783169827853161200,5.1881611328125,-0.004375370219349861,-0.004540313966572285,0.008554168976843357
1783169827863231200,5.198231201171875,-0.0022759258281439543,0.004082759376615286,-0.0039937738329172134
1783169827873301200,5.20830126953125,-0.0023313199635595083,0.0044809021055698395,-0.011686847545206547
1783169827883370200,5.218370361328125,-0.004829310812056065,-0.0013574808835983276,-0.009757688269019127
1783169827893440300,5.228440185546875,-0.004054064862430096,-0.00976401474326849,-0.003428419353440404
1783169827903510000,5.238510009765625,-0.00325009785592556,-0.010681669227778912,-0.0006633021403104067
1783169827913579300,5.248579345703125,-0.00436383206397295,-0.010946120135486126,0.006683826446533203
1783169827923649000,5.25864892578125,-0.005261899903416634,-0.012388771399855614,0.018907511606812477
1783169827933719000,5.268718994140625,-0.006340746767818928,-0.011121105402708054,0.0048249815590679646
1783169827943788000,5.2787880859375,-0.008051431737840176,-0.013129306957125664,0.0006899316795170307
1783169827953858000,5.288858154296875,-0.009476489387452602,-0.009838972240686417,0.005700402893126011
1783169827963928300,5.29892822265625,-0.009718600660562515,-0.013240683823823929,-0.0006071506068110466
1783169827973997000,5.3089970703125,-0.008566783741116524,-0.004116161726415157,-0.009927948005497456
1783169827984067300,5.3190673828125,-0.00019735353998839855,0.0008813650347292423,-0.017358960583806038
1783169827994135000,5.329135009765625,0.0021379722747951746,0.0018920344300568104,-0.011744484305381775
1783169828004205300,5.339205322265625,0.004103159066289663,-0.004202946089208126,-0.008612834848463535
1783169828014274000,5.349274169921875,0.0012304072733968496,-0.011373506858944893,-0.006406405940651894
1783169828024344300,5.35934423828125,0.0005825612461194396,-0.015600445680320263,-0.014429252594709396
1783169828034414000,5.3694140625,-0.003577828872948885,-0.0200071781873703,-0.012341333553195
1783169828044483000,5.379483154296875,-0.005521545186638832,-0.020285438746213913,0.017553482204675674
1783169828054553000,5.389552978515625,-0.0029113811906427145,-0.013616350479424,0.01854737475514412
1783169828064623000,5.399623046875,-0.00028632814064621925,-0.0050670793280005455,-0.004183084238320589
1783169828074692400,5.4096923828125,0.0014527160674333572,-0.004043626599013805,-0.012852204963564873
1783169828084762000,5.41976220703125,-0.005926779471337795,-0.0038949819281697273,0.00307006505317986
1783169828094831000,5.4298310546875,-0.004769369959831238,-0.0054300278425216675,0.0052458676509559155
1783169828104901000,5.439901123046875,-0.0051723262295126915,-0.0036912085488438606,-0.002316016936674714
1783169828114971100,5.44997119140625,0.00035639607813209295,-0.005737314932048321,-0.006524610333144665
1783169828125040000,5.4600400390625,0.003742896718904376,-0.007076878100633621,-0.003132161218672991
1783169828135110100,5.470110107421875,0.005516295321285725,-0.010195438750088215,-0.001982474699616432
1783169828145180200,5.48018017578125,0.005616797134280205,-0.0077759260311722755,-0.0018509910441935062
1783169828155249200,5.490249267578125,-0.002191058360040188,-0.007938378490507603,-0.007320591248571873
1783169828165319200,5.500319091796875,-0.008514405228197575,-0.001908828504383564,-0.009417414665222168
1783169828175389000,5.510388916015625,-0.009233991615474224,-0.0017892532050609589,-0.006303913425654173
1783169828185458200,5.520458251953125,-0.003470491385087371,0.0005054241046309471,-0.007079004310071468
1783169828195528000,5.53052783203125,0.0018268025014549494,0.009048844687640667,-0.0056592728942632675
1783169828205597200,5.54059716796875,0.003523223800584674,0.011807742528617382,0.0001054820604622364
1783169828215667200,5.550667236328125,0.0014422297244891524,0.011876186355948448,0.0016240165568888187
1783169828225737200,5.5607373046875,-0.003359145950525999,0.010234758257865906,0.0006147162057459354
1783169828235806200,5.57080615234375,-0.004941596183925867,0.01230829581618309,0.0003822222352027893
1783169828245876000,5.5808759765625,-0.0056358324363827705,0.008536742068827152,-0.00026017194613814354
1783169828255946200,5.5909462890625,-0.005844890605658293,0.009951413609087467,-0.005939363036304712
1783169828266015000,5.601014892578125,-0.003628911217674613,0.004027866292744875,-0.00008630380034446716
1783169828276085200,5.611085205078125,-0.0032755096908658743,-0.002348007634282112,0.0021454249508678913
1783169828286155300,5.6211552734375,0.0019701183773577213,-0.01069621928036213,0.0005994599778205156
1783169828296224000,5.63122412109375,0.0014436114579439163,-0.019035641103982925,0.004323358181864023
1783169828306294300,5.641294189453125,0.0016437018057331443,-0.023762326687574387,0.011675809510052204
1783169828316363000,5.651363037109375,-0.0010000180918723345,-0.018501248210668564,0.013444148935377598
1783169828326433300,5.661433349609375,0.002725427970290184,-0.01205854769796133,0.007137823384255171
1783169828336503300,5.67150341796875,0.006134008057415485,-0.006927168928086758,0.009299777448177338
1783169828346572300,5.681572265625,-0.0007560062222182751,-0.000870920717716217,0.009824269451200962
1783169828356642300,5.691642333984375,-0.004706272855401039,0.004064715467393398,0.001245428342372179
1783169828366712000,5.701712158203125,-0.0036978123243898153,0.0029812674038112164,-0.007135351654142141
1783169828376783000,5.711783203125,-0.0037409558426588774,0.0026475731283426285,-0.0061081708408892155
1783169828386852400,5.721852294921875,-0.008015720173716545,-0.0008105803281068802,0.00005408306606113911
1783169828396922000,5.731922119140625,-0.00792517326772213,-0.009028029628098011,0.005589463282376528
1783169828406992100,5.7419921875,-0.00451404694467783,-0.014921026304364204,0.0017410770524293184
1783169828417061000,5.75206103515625,-0.002049557399004698,-0.015519171953201294,-0.0006901228334754705
1783169828427131100,5.762131103515625,-0.00309336232021451,-0.01843337155878544,0.000577431870624423
1783169828437201200,5.772201171875,-0.0013830806128680706,-0.020097315311431885,-0.0007632032502442598
1783169828447270100,5.782270263671875,0.0005819859215989709,-0.01674979366362095,0.0034413097891956568
1783169828457340200,5.792340087890625,-0.0009256296325474977,-0.013583827763795853,0.00048093986697494984
1783169828467409200,5.8024091796875,0.004082296509295702,-0.011062927544116974,0.00402945838868618
1783169828477479200,5.812479248046875,0.006968097761273384,-0.010118838399648666,0.0009689538273960352
1783169828487549200,5.822549072265625,0.005670072976499796,-0.012706898152828217,-0.002269450109452009
1783169828497618200,5.8326181640625,0.005287643522024155,-0.012448038905858994,0.000319142360240221
1783169828507688000,5.84268798828125,0.0014751236885786057,-0.01134506892412901,0.004896200727671385
1783169828517758200,5.85275830078125,-0.001436776714399457,-0.007028351537883282,-0.002957194810733199
1783169828527827200,5.8628271484375,0.0014508517924696207,-0.002997802570462227,-0.009146684780716896
1783169828537897200,5.872897216796875,-0.0013108463026583195,-0.0020513152703642845,-0.015453580766916275
1783169828547967200,5.88296728515625,-0.005311700515449047,-0.0030842190608382225,-0.0022398524452000856
1783169828558036000,5.893035888671875,-0.0023662445601075888,-0.001257556490600109,0.0007189197931438684
1783169828568106200,5.903106201171875,0.002841932000592351,0.0034799724817276,-0.006729225628077984
1783169828578175000,5.913175048828125,0.005264609586447477,0.00717963557690382,-0.0028146449476480484
1783169828588245200,5.923245361328125,0.006011111196130514,0.0058176154270768166,0.002567269839346409
1783169828598315300,5.933315185546875,0.0007732057711109519,0.002871094271540642,-0.0024490603245794773
1783169828608384300,5.94338427734375,-0.000863218680024147,0.0007614991627633572,-0.007323444355279207
1783169828618454300,5.953454345703125,-0.002537814201787114,-0.005637277849018574,-0.0026719667948782444
1783169828628524000,5.96352392578125,-0.0036009482573717833,-0.0059909457340836525,0.005803010426461697
1783169828638593300,5.97359326171875,-0.0029852252919226885,-0.004253232851624489,0.003952912520617247
1783169828648663000,5.9836630859375,0.0007889936678111553,0.0014266190119087696,0.006624671630561352
1783169828658733000,5.993733154296875,0.0009072379907593131,-0.002156398259103298,0.0069290706887841225
1783169828668802300,6.00380224609375,-0.0009900603909045458,-0.0030388562008738518,0.0007658316753804684
1783169828678872000,6.0138720703125,-0.004385057836771011,-0.0029821302741765976,0.0021709154825657606
1783169828688942000,6.023942138671875,-0.0009652678854763508,0.000011803582310676575,-0.0001224847510457039
1783169828699011000,6.034010986328125,0.0022928433027118444,-0.0007959334179759026,-0.010991644114255905
1783169828709081000,6.0440810546875,-0.0008954557124525309,-0.005543938837945461,-0.01579994335770607
1783169828719150000,6.054150146484375,0.001608980935998261,-0.015533456578850746,-0.004283902235329151
1783169828729220000,6.06422021484375,0.0028560389764606953,-0.02417997270822525,0.005590375512838364
1783169828739290000,6.0742900390625,0.0025335303507745266,-0.022746391594409943,0.006552043370902538
1783169828749359000,6.084359130859375,-0.0009894401300698519,-0.021295730024576187,0.01727396622300148
1783169828759429000,6.09442919921875,-0.0023207543417811394,-0.01502345222979784,0.012485870160162449
1783169828769499100,6.1044990234375,-0.004483848810195923,-0.011088122613728046,0.00443878723308444
1783169828779568000,6.114568115234375,-0.00587934534996748,-0.012994679622352123,0.003819335950538516
1783169828789638100,6.12463818359375,-0.007956337183713913,-0.01041185948997736,0.004733243957161903
1783169828799708200,6.134708251953125,-0.008996035903692245,-0.012170343659818172,0.0013174735940992832
1783169828809777200,6.144777099609375,-0.013961202464997768,-0.0064697908237576485,0.0019855210557579994
1783169828819847200,6.15484716796875,-0.013799015432596207,0.0029314346611499786,0.003165567759424448
1783169828829916200,6.164916259765625,-0.011939951218664646,0.003568036016076803,-0.002805772004649043
1783169828839986200,6.174986083984375,-0.004971523769199848,0.0016726641915738583,-0.009887916967272758
1783169828850056200,6.18505615234375,-0.0026762119960039854,-0.0012636734172701836,-0.005090121179819107
1783169828860126200,6.195126220703125,0.002958238124847412,-0.004923389293253422,-0.003075971966609359
1783169828870196200,6.2051962890625,-0.0007652770727872849,-0.007385530509054661,0.0035064145922660828
1783169828880266200,6.215266357421875,-0.002950134687125683,-0.0063905734568834305,0.010040747001767159
1783169828890335000,6.2253349609375,-0.0005954471416771412,-0.005438832566142082,0.007388155907392502
1783169828900405200,6.2354052734375,-0.0024897537659853697,-0.005790370516479015,0.0038293739780783653
1783169828910475300,6.245475341796875,-0.003338702255859971,-0.0059422338381409645,0.0036281973589211702
1783169828920544300,6.255544189453125,-0.0022124513052403927,-0.0026207398623228073,-0.003433440811932087
1783169828930614300,6.2656142578125,0.0007110908045433462,-0.001801307313144207,-0.007134247571229935
1783169828940683000,6.27568310546875,-0.0025725869927555323,-0.00528259202837944,-0.005421568639576435
1783169828950753300,6.285753173828125,-0.00006791180931031704,-0.0065761469304561615,-0.0007092205341905355
1783169828960823300,6.2958232421875,-0.0023379900958389044,-0.006289324723184109,0.0011944067664444447
1783169828970892300,6.305892333984375,-0.00211167149245739,-0.004875469021499157,-0.0019281096756458282
1783169828980962300,6.31596240234375,-0.002156945178285241,-0.005629143677651882,0.0026860833168029785
1783169828991032000,6.326031982421875,0.0020390565041452646,-0.0006887372583150864,0.001183453481644392
1783169829001101300,6.336101318359375,0.0031783566810190678,-0.0056587280705571175,0.005966491065919399
1783169829011171000,6.346171142578125,0.0004662185674533248,-0.007592974230647087,0.0022602833341807127
1783169829021241000,6.356240966796875,-0.002033158205449581,-0.007459551095962524,-0.002257502870634198
1783169829031310000,6.36631005859375,0.0002728730905801058,-0.008976753801107407,-0.006384337320923805
1783169829041380000,6.376380126953125,0.002748547587543726,-0.007948506623506546,-0.0023011791054159403
1783169829051449300,6.386449462890625,-0.004912530072033405,-0.005067886784672737,0.0014826776459813118
1783169829061519000,6.39651904296875,-0.007498725783079863,-0.0003453027456998825,-0.00023186532780528069
1783169829071589000,6.406589111328125,-0.0064112162217497826,0.0025100987404584885,-0.0051238639280200005
1783169829081658000,6.416658203125,-0.0025680086109787226,0.007985558360815048,0.0006208408158272505
1783169829091728100,6.42672802734375,-0.0003523346967995167,0.011033788323402405,-0.0029231063090264797
1783169829101798400,6.43679833984375,-0.0014490243047475815,0.0035151527263224125,-0.004101821221411228
1783169829111867100,6.4468671875,0.0010832608677446842,0.004617215134203434,-0.004593552090227604
1783169829121937200,6.456937255859375,0.003709137672558427,-0.0009314808994531631,-0.002477936912328005
1783169829132007200,6.467007080078125,0.0001204650616273284,-0.004263514652848244,0.005436559207737446
1783169829142076200,6.477076171875,0.0007628194289281964,-0.001128174364566803,0.009575111791491508
1783169829152146200,6.487146240234375,-0.004615054931491613,0.0013221022672951221,0.012421078979969025
1783169829162216200,6.49721630859375,-0.004855005536228418,0.0033655455335974693,0.009691871702671051
1783169829172285200,6.50728515625,-0.005137109663337469,0.011304139159619808,0.003694624174386263
1783169829182355200,6.517355224609375,-0.004892897792160511,0.014859458431601524,0.00045169307850301266
1783169829192424200,6.527424072265625,0.00001582805998623371,0.017843127250671387,-0.0014950018376111984
1783169829202494200,6.537494140625,0.00014365976676344872,0.0176769457757473,-0.0038409805856645107
1783169829212564200,6.547564208984375,0.005323571152985096,0.016030199825763702,-0.009979413822293282
1783169829222633200,6.55763330078125,0.008715905249118805,0.008509966544806957,-0.009224941954016685
1783169829232703200,6.567703125,0.003504518885165453,-0.0001761019229888916,-0.004287288524210453
1783169829242773200,6.577773193359375,-0.0008755822200328112,-0.0040094563737511635,0.004638561978936195
1783169829252842200,6.58784228515625,-0.007130015641450882,-0.0023745419457554817,0.011810188181698322
1783169829262912300,6.597912353515625,-0.007791278883814812,0.006377404555678368,0.004789030645042658
1783169829272982000,6.60798193359375,-0.007917741313576698,0.011027961038053036,-0.0017063808627426624
1783169829283051300,6.61805126953125,-0.00810735858976841,0.009345642291009426,0.006973394192755222
1783169829293121000,6.62812109375,-0.0067205000668764114,0.007798925973474979,-0.00030434364452958107
1783169829303190300,6.638190185546875,-0.005784665234386921,0.0029256073758006096,-0.010590802878141403
1783169829313260000,6.648260009765625,-0.005706139840185642,-0.0035915598273277283,-0.011618554592132568
1783169829323330000,6.658330078125,-0.005039284471422434,-0.012048161588609219,-0.007613159250468016
1783169829333399300,6.6683994140625,-0.002892813878133893,-0.021667376160621643,-0.004744705278426409
1783169829343469000,6.678468994140625,0.002509941114112735,-0.02581098861992359,-0.005706373136490583
1783169829353539300,6.688539306640625,0.0008075734367594123,-0.020729169249534607,-0.00041741086170077324
1783169829363608000,6.698608154296875,-0.005726492032408714,-0.017096884548664093,0.012191591784358025
1783169829373678000,6.708677978515625,-0.0066832285374403,-0.012571996077895164,0.004687296226620674
1783169829383748400,6.718748291015625,-0.0019609115552157164,-0.010168759152293205,-0.002123472047969699
1783169829393817000,6.728817138671875,-0.001050285529345274,-0.01730821654200554,-0.012459730729460716
1783169829403887400,6.738887451171875,-0.00028808892238885164,-0.019593477249145508,-0.009856224991381168
1783169829413956000,6.7489560546875,0.0029982267878949642,-0.018612641841173172,-0.006402486935257912
1783169829424026400,6.7590263671875,0.0005105679156258702,-0.02366279624402523,0.0006761953700333834
1783169829434096000,6.76909619140625,-0.0033344037365168333,-0.025124836713075638,-0.0003678377252072096
1783169829444165000,6.7791650390625,-0.005775190889835358,-0.01930183544754982,-0.00546273123472929
1783169829454235100,6.789235107421875,-0.005117618478834629,-0.0164134930819273,-0.006195328664034605
1783169829464305200,6.79930517578125,-0.0022211645264178514,-0.006992028094828129,0.007815294899046421
1783169829474374400,6.80937451171875,-0.0022165344562381506,-0.0020030466839671135,0.006198410876095295
1783169829484444200,6.819444091796875,0.002802991308271885,0.0031024995259940624,-0.0072343070060014725
1783169829494513200,6.82951318359375,-0.004095140844583511,0.0009569199755787849,-0.0008993702940642834
1783169829504583200,6.839583251953125,-0.003881289390847087,-0.000384514220058918,0.010350354015827179
1783169829514653200,6.849653076171875,-0.010281918570399284,0.002662279177457094,-0.0026289024390280247
1783169829524722200,6.85972216796875,-0.006960955914109945,0.009514858946204185,-0.011663942597806454
1783169829534792200,6.869792236328125,-0.005030253902077675,0.008308553136885166,-0.012980880215764046
1783169829544862200,6.8798623046875,0.003428744850680232,0.0014855340123176575,-0.013265838846564293
1783169829554931200,6.88993115234375,0.007487187162041664,-0.0029174545779824257,-0.023062046617269516
1783169829565001200,6.900001220703125,0.0065508196130394936,-0.006804870441555977,-0.025881800800561905
1783169829575071000,6.910071044921875,-0.0012849862687289715,-0.012893784791231155,-0.022594468668103218
1783169829585140200,6.92014013671875,-0.005864557810127735,-0.01268179714679718,-0.013794053345918655
1783169829595210000,6.9302099609375,-0.00674950098618865,-0.008640708401799202,-0.0069823721423745155
1783169829605279200,6.940279296875,-0.007779079023748636,-0.008564809337258339,-0.004461956210434437
1783169829615349200,6.950349365234375,-0.0063354698941111565,-0.01412064116448164,-0.008802373893558979
1783169829625419300,6.960419189453125,-0.0049575502052903175,-0.02262810990214348,-0.009353116154670715
1783169829635488300,6.97048828125,-0.006085424218326807,-0.027810094878077507,-0.0010979629587382078
1783169829645558000,6.98055810546875,-0.006530438549816608,-0.03197048604488373,-0.008287965320050716
1783169829655628300,6.990628173828125,-0.0056641120463609695,-0.03788696229457855,-0.01011409517377615
1783169829665697000,7.000697021484375,-0.005068895407021046,-0.04275255650281906,-0.014945602044463158
1783169829675767300,7.010767333984375,-0.0026505542919039726,-0.04216216132044792,-0.014022092334926128
1783169829685837300,7.02083740234375,0.0007630857871845365,-0.04303594306111336,-0.012846306897699833
1783169829695906000,7.030906005859375,0.0014441441744565964,-0.03674273192882538,-0.012604760006070137
1783169829705976300,7.040976318359375,-0.0002847800496965647,-0.03349527716636658,-0.012846574187278748
1783169829716045000,7.051045166015625,-0.0003415183164179325,-0.02746361680328846,-0.008331375196576118
1783169829726115300,7.061115234375,-0.0040025655180215836,-0.02205047756433487,-0.006589667871594429
1783169829736185000,7.07118505859375,-0.00903516635298729,-0.025419916957616806,-0.001312460983172059
1783169829746254000,7.081254150390625,-0.004565848968923092,-0.023179929703474045,-0.010832729749381542
1783169829756324400,7.091324462890625,-0.0046772826462984085,-0.02153772860765457,-0.013138344511389732
1783169829766394000,7.10139404296875,-0.0005903958808630705,-0.011467782780528069,-0.011620608158409595
1783169829776463400,7.11146337890625,0.0005251243710517883,-0.013127806596457958,-0.012182610109448433
1783169829786533000,7.121533203125,-0.0019191247411072254,-0.014728632755577564,-0.0104299858212471
1783169829796603100,7.13160302734375,-0.0020942699629813433,-0.018146323040127754,-0.009195609949529171
1783169829806672100,7.141672119140625,-0.0034314433578401804,-0.014173151925206184,-0.00579235702753067
1783169829816742100,7.1517421875,0.00039895600639283657,-0.0057282764464616776,0.004933143500238657
1783169829826811100,7.16181103515625,0.00024475890677422285,-0.005468351766467094,0.00424578133970499
1783169829836881200,7.171881103515625,-0.001780664548277855,0.002408585511147976,0.0015866095200181007
1783169829846951200,7.181951171875,-0.003169502830132842,0.006058447994291782,-0.0002863914705812931
1783169829857019600,7.19201953125,0.001033763401210308,0.011205755174160004,-0.00279055442661047
1783169829867089700,7.202089599609375,0.003421819768846035,0.010795095935463905,0.002255070488899946
1783169829877160000,7.212159912109375,0.006012835539877415,0.013806656002998352,0.001261554192751646
1783169829887228700,7.222228759765625,0.0039603374898433685,0.010816991329193115,-0.004926034715026617
1783169829897298700,7.232298583984375,0.0015058666467666626,0.010937017388641834,-0.00555019685998559
1783169829907368700,7.24236865234375,0.0021844401489943266,0.009491187520325184,-0.00046968506649136543
1783169829917437700,7.252437744140625,0.003922926262021065,0.012743432074785233,0.004143594764173031
1783169829927508000,7.262508056640625,0.0036904325243085623,0.017103824764490128,0.006089566275477409
1783169829937576700,7.27257666015625,0.006598159670829773,0.01890747994184494,0.00568876089528203
1783169829947647000,7.28264697265625,0.0035917172208428383,0.01879136636853218,0.008235275745391846
1783169829957716700,7.292716796875,0.00007184222340583801,0.011233855038881302,0.011654088273644447
1783169829967785700,7.30278564453125,0.0013104784302413464,0.008582145906984806,0.00690434081479907
1783169829977855700,7.312855712890625,0.001930424477905035,0.010092811658978462,0.002535121515393257
1783169829987925800,7.32292578125,0.004206362180411816,0.00887761078774929,0.001389163313433528
1783169829997994800,7.332994873046875,0.00814626831561327,0.017012029886245728,-0.0026440881192684174
1783169830008064800,7.343064697265625,0.015135735273361206,0.016137713566422462,0.001658248482272029
1783169830018133800,7.3531337890625,0.01695459708571434,0.01659197360277176,0.008329398930072784
1783169830028203800,7.363203857421875,0.01123865507543087,0.013045975007116795,0.015506085008382797
1783169830038273800,7.373273681640625,0.006684484891593456,0.018111389130353928,0.011500077322125435
1783169830048342800,7.3833427734375,-0.0012935467530041933,0.02522096410393715,0.014010105282068253
1783169830058412800,7.393412841796875,-0.009275965392589569,0.0329459048807621,0.010400425642728806
1783169830068482800,7.40348291015625,-0.011705301702022552,0.037239719182252884,0.0024205297231674194
1783169830078551800,7.4135517578125,-0.010140934959053993,0.04306592419743538,-0.005713715683668852
1783169830088621800,7.423621826171875,-0.01084906980395317,0.03963950276374817,-0.016023077070713043
1783169830098691600,7.433691650390625,-0.010403232648968697,0.029458777979016304,-0.005725319497287273
1783169830108760800,7.4437607421875,-0.007504381239414215,0.025121288374066353,0.003103060182183981
1783169830118830600,7.45383056640625,-0.005802975036203861,0.008226300589740276,0.004707080312073231
1783169830128899800,7.46389990234375,-0.002531281905248761,0.00016624387353658676,0.0007509547285735607
1783169830138969600,7.473969482421875,-0.00288775353692472,-0.00612703338265419,-0.003627775702625513
1783169830149039900,7.484039794921875,0.002305143978446722,-0.012458166107535362,0.0002295470330864191
1783169830159108900,7.49410888671875,0.001044544274918735,-0.011235281825065613,-0.0015340375248342752
1783169830169178600,7.5041787109375,-0.0008718664757907391,-0.01651393249630928,-0.006403361447155476
1783169830179249000,7.514248779296875,-0.007361957803368568,-0.012406976893544197,-0.002567847026512027
1783169830189317600,7.524317626953125,-0.0097137950360775,-0.013176897540688515,0.0015480685979127884
1783169830199388000,7.534387939453125,-0.01040333230048418,-0.006753586232662201,0.0031846268102526665
1783169830209458000,7.5444580078125,-0.007408607751131058,-0.002649388276040554,-0.0017321014311164618
1783169830219526700,7.554526611328125,-0.0013201800175011158,0.00021782610565423965,-0.001957404427230358
1783169830229597000,7.564596923828125,0.00384342297911644,0.0004942622035741806,-0.008024618029594421
1783169830239665700,7.574665771484375,0.004884111694991589,0.0051957834511995316,-0.007164491340517998
1783169830249736000,7.58473583984375,0.0030236272141337395,0.010291475802659988,-0.0034110320266336203
1783169830259805700,7.5948056640625,-0.00028904108330607414,0.014847490936517715,-0.005230998154729605
1783169830269874700,7.604874755859375,-0.0037985548842698336,0.017810523509979248,-0.011790897697210312
1783169830279944700,7.61494482421875,-0.0017382691148668528,0.016781948506832123,-0.010360632091760635
1783169830290014700,7.6250146484375,-0.0032272422686219215,0.012022346258163452,-0.004995694383978844
1783169830300084000,7.635083984375,-0.0015046335756778717,0.011462840251624584,-0.006595641374588013
1783169830310153700,7.64515380859375,0.00010551372542977333,0.005303481128066778,-0.015709243714809418
1783169830320223000,7.655222900390625,0.0011605562176555395,0.0013949940912425518,-0.01036793738603592
1783169830330292700,7.665292724609375,0.003057259600609541,0.00218195840716362,-0.006504223216325045
1783169830340362800,7.67536279296875,0.0010360474698245525,-0.004471910186111927,0.0010440172627568245
1783169830350431700,7.685431640625,-0.003556041279807687,-0.0022242022678256035,0.002537784166634083
1783169830360501800,7.695501708984375,-0.005754759535193443,-0.0008016787469387054,0.0013090779539197683
1783169830370571800,7.70557177734375,-0.003056444926187396,-0.0021665487438440323,-0.0034835466649383307
1783169830380640800,7.715640869140625,-0.003227090463042259,-0.0026281876489520073,-0.003943055402487516
1783169830390710800,7.725710693359375,-0.0039698462933301926,-0.004022885113954544,-0.0011901459656655788
1783169830400780800,7.73578076171875,-0.007257597520947456,-0.012490911409258842,-0.00022378331050276756
1783169830410849800,7.745849853515625,-0.006781423464417458,-0.011084228754043579,-0.0011417749337852001
1783169830420919600,7.75591943359375,-0.006953930947929621,-0.012393870390951633,-0.007419736590236425
1783169830430988800,7.76598876953125,-0.005641791503876448,-0.006098957732319832,-0.010318586602807045
1783169830441058800,7.776058837890625,-0.00041382829658687115,-0.007169441320002079,-0.010371053591370583
1783169830451128800,7.78612890625,-0.0030514232348650694,-0.00853138230741024,-0.01901700533926487
1783169830461197800,7.79619775390625,-0.00353538291528821,-0.008974684402346611,-0.014425073750317097
1783169830471267600,7.806267578125,-0.0016554573085159063,-0.012305766344070435,-0.01043672300875187
1783169830481337900,7.816337890625,0.0004980255616828799,-0.010126486420631409,-0.00571444071829319
1783169830491406600,7.826406494140625,0.0027404071297496557,-0.007579173892736435,-0.01781371608376503
1783169830501476900,7.836476806640625,0.0017349363770335913,-0.010036029852926731,-0.01645154319703579
1783169830511545600,7.846545654296875,-0.004201249685138464,-0.010469592176377773,-0.01542942225933075
1783169830521615600,7.85661572265625,-0.005640294402837753,-0.008726729080080986,-0.013410178013145924
1783169830531686000,7.866685791015625,-0.004979564342647791,-0.012755027040839195,-0.00670833233743906
1783169830541754600,7.876754638671875,0.0016165148699656129,-0.016113419085741043,-0.005072393454611301
1783169830551825000,7.886824951171875,0.0033025620505213737,-0.015269727446138859,-0.0016481003258377314
1783169830561895000,7.89689501953125,0.003812621347606182,-0.014488471671938896,-0.005128963850438595
1783169830571964000,7.9069638671875,0.0031178025528788567,-0.012915341183543205,-0.009588959626853466
1783169830582034000,7.917033935546875,0.0048944223672151566,-0.011829827912151814,-0.016060857102274895
1783169830592103700,7.927103759765625,0.007070757448673248,-0.006161556579172611,-0.018612433224916458
1783169830602173000,7.9371728515625,0.010479552671313286,-0.006991946138441563,-0.00776241160929203
1783169830612242700,7.94724267578125,0.013307830318808556,-0.006872369907796383,-0.004846516996622086
1783169830622312000,7.95731201171875,0.013251573778688908,0.00010788813233375549,-0.009734904393553734
1783169830632381700,7.967381591796875,0.013452376239001751,-0.002037287689745426,-0.0054738461039960384
1783169830642451700,7.97745166015625,0.013197346590459347,0.0015574786812067032,-0.0017321764025837183
1783169830652520700,7.987520751953125,0.00864733662456274,0.0033034472726285458,-0.000008578645065426826
1783169830662590700,7.9975908203125,0.005378255620598793,0.008244660682976246,0.002228246070444584
1783169830672660700,8.00766064453125,0.005724999122321606,0.010638043284416199,0.00115099735558033
1783169830682729700,8.017729736328125,0.006714642513543367,0.019422883167862892,-0.006505133584141731
1783169830692799700,8.0277998046875,0.007852877490222454,0.020748872309923172,-0.00221051974222064
1783169830702868700,8.03786865234375,0.011084724217653275,0.024206535890698433,-0.002619402948766947
1783169830712938800,8.047938720703126,0.008972836658358574,0.022851519286632538,0.0035780388861894608
1783169830723008800,8.0580087890625,0.003683990566059947,0.017217528074979782,0.0107011329382658
1783169830733077800,8.068077880859375,0.0061687203124165535,0.01167016290128231,0.014140871353447437
1783169830743147800,8.078147705078125,0.002318029757589102,0.003445780836045742,0.009051721543073654
1783169830753217800,8.0882177734375,0.0018831356428563595,0.0012686466798186302,0.010568657889962196
1783169830763286800,8.098286865234375,0.00426524318754673,-0.002079690806567669,0.011965221725404263
1783169830773356800,8.108356689453124,0.0026708084624260664,0.0006399299018085003,0.014173515141010284
1783169830783425800,8.11842578125,0.005387043580412865,0.00013666599988937378,0.01565776765346527
1783169830793495800,8.128495849609376,0.0044546714052557945,0.006726125720888376,0.011453968472778797
1783169830803565800,8.13856591796875,0.009355610236525536,0.011877454817295074,0.002316049300134182
1783169830813634800,8.148634765625,0.01380628440529108,0.019226446747779846,-0.006081696134060621
1783169830823704800,8.158704833984375,0.013139073736965656,0.021390853449702263,-0.011749960482120514
1783169830833774800,8.16877490234375,0.01319233700633049,0.020320795476436615,-0.009690005332231522
1783169830843843600,8.178843505859374,0.010971743613481522,0.024908874183893204,-0.0038075780030339956
1783169830853913900,8.188913818359374,0.005976186133921146,0.027942480519413948,-0.0009662515949457884
1783169830863982800,8.19898291015625,0.004882589913904667,0.023196697235107422,0.0023910007439553738
1783169830874052000,8.209052001953125,0.00604639109224081,0.019417937844991684,0.0022892679553478956
1783169830884122000,8.2191220703125,0.009482795372605324,0.01560432929545641,0.00805825088173151
1783169830894191000,8.229191162109375,0.007549872621893883,0.011593076400458813,0.006722142919898033
1783169830904261000,8.23926123046875,0.006045934744179249,0.01397579163312912,-0.0013607805594801903
1783169830914331000,8.249330810546875,0.009650257416069508,0.01301172748208046,-0.0030686655081808567
1783169830924400000,8.259400146484374,0.011729995720088482,0.014763310551643372,0.0034026275388896465
1783169830934470000,8.269469970703126,0.010771257802844048,0.01414758712053299,0.0028694625943899155
1783169830944540000,8.279539794921876,0.011628225445747375,0.011763914488255978,0.0023594286758452654
1783169830954609000,8.28960888671875,0.00714213028550148,0.01336900144815445,0.0005825676489621401
1783169830964679000,8.299678955078125,0.009029612876474857,0.007732237223535776,0.00033187842927873135
1783169830974748200,8.309748046875,0.01241688709706068,0.007550343405455351,-0.0013107594568282366
1783169830984818000,8.31981787109375,0.012124042958021164,0.002300750929862261,0.0007565831765532494
1783169830994888200,8.32988818359375,0.013106216676533222,-0.000593838281929493,0.007763093803077936
1783169831004957000,8.33995703125,0.013419709168374538,0.0027919826097786427,0.0019252178026363254
1783169831015027000,8.35002685546875,0.012505445629358292,0.0035355370491743088,0.00392684992402792
1783169831025097200,8.36009716796875,0.014472797513008118,0.006140450946986675,-0.00009392760694026947
1783169831035166000,8.370166015625,0.015612630173563957,0.005050685256719589,-0.004327821079641581
1783169831045236200,8.380236328125,0.013937350362539291,0.0044652242213487625,-0.0066901883110404015
1783169831055306000,8.390305908203125,0.014347477816045284,0.012038721702992916,-0.010179728269577026
1783169831065375000,8.400375,0.017574742436408997,0.03417498618364334,-0.03257164731621742
1783169831075445000,8.410445068359374,0.006392396055161953,0.01803276687860489,-0.023906519636511803
1783169831085514000,8.420513916015626,0.025726910680532455,0.026007402688264847,-0.006715030409395695
1783169831095584000,8.430583984375,0.03019995614886284,0.02061743289232254,-0.005590910091996193
1783169831105654000,8.440654052734375,0.024119224399328232,0.029983123764395714,-0.00524694100022316
1783169831115723000,8.450722900390625,0.01826692745089531,0.0300824586302042,-0.0013890860136598349
1783169831125793000,8.46079296875,0.012012911960482597,0.02466435730457306,-0.007764281239360571
1783169831135863000,8.470863037109375,0.006796311587095261,0.01889621466398239,-0.007025254424661398
1783169831145932000,8.48093212890625,0.003354481188580394,0.012317555025219917,-0.004546876065433025
1783169831156002000,8.491001953125,0.0006162190111353993,0.01242487970739603,-0.005338633432984352
1783169831166071000,8.501071044921876,0.004436940886080265,0.008962069638073444,-0.006813348736613989
1783169831176141000,8.51114111328125,0.012480752542614937,0.010130132548511028,-0.004042596090584993
1783169831186211000,8.521211181640625,0.021965891122817993,0.02125522866845131,-0.015901535749435425
1783169831196280000,8.531280029296875,0.01488561276346445,-0.0006146496161818504,-0.016379574313759804
1783169831206350000,8.54135009765625,0.008503144606947899,0.002604198642075062,-0.010509276762604713
1783169831216419800,8.551419921875,0.010056034661829472,0.0005988385528326035,-0.012234472669661045
1783169831226489000,8.561489013671874,0.011744401417672634,0.003657989203929901,-0.013620196841657162
1783169831236558800,8.571558837890626,0.011849329806864262,0.002075804863125086,-0.01147795096039772
1783169831246628000,8.581628173828125,0.006513471715152264,-0.0062963590025901794,-0.00614420510828495
1783169831256698000,8.591697998046875,0.0030476339161396027,-0.011699914000928402,-0.012177863158285618
1783169831266768000,8.601767822265625,0.003305376274511218,-0.015822235494852066,-0.02267814241349697
1783169831276837000,8.611837158203125,0.0025090910494327545,-0.014885335229337215,-0.04331151396036148
1783169831286907000,8.621906982421875,0.003803425934165716,-0.020266640931367874,-0.06328891217708588
1783169831296977200,8.63197705078125,-0.009415173903107643,-0.027532275766134262,-0.0731404721736908
1783169831307046000,8.6420458984375,-0.01509102899581194,-0.03341183066368103,-0.06271396577358246
1783169831317116000,8.652115966796876,-0.012711494229733944,-0.049145251512527466,-0.05978262051939964
1783169831327185000,8.662184814453125,-0.01767086237668991,-0.06251746416091919,-0.06918052583932877
1783169831337255000,8.6722548828125,-0.017016524448990822,-0.06102290377020836,-0.07829040288925171
1783169831347325200,8.6823251953125,-0.01631920412182808,-0.07908682525157928,-0.05418992042541504
1783169831357394000,8.692393798828125,-0.014348197728395462,-0.06802858412265778,0.018277889117598534
1783169831367464200,8.702464111328124,-0.025208011269569397,-0.07726521790027618,0.04972567781805992
1783169831377534000,8.712533935546874,-0.018020140007138252,-0.08619879186153412,0.0494774729013443
1783169831387603000,8.72260302734375,-0.017108727246522903,-0.0540754534304142,0.004833652172237635
1783169831397673200,8.732673095703126,-0.0028522948268800974,-0.04330722987651825,-0.0013731112703680992
1783169831407742000,8.742741943359375,0.002249445766210556,-0.034296177327632904,-0.0051080104894936085
1783169831417812200,8.752812255859375,-0.0025913820136338472,-0.01647457294166088,-0.01677558571100235
1783169831427882000,8.762882080078125,-0.012009372003376484,-0.0030731428414583206,-0.03013620711863041
1783169831437951000,8.772950927734374,-0.021509934216737747,0.007647411897778511,-0.027748415246605873
1783169831448021000,8.78302099609375,-0.030010705813765526,0.0018024500459432602,-0.010740363970398903
1783169831458091000,8.793091064453124,-0.009536055848002434,0.014908132143318653,0.032811641693115234
1783169831468160000,8.803159912109376,0.0030051604844629765,0.026908161118626595,0.03403778374195099
