time,seconds_elapsed,z,y,x
1783169853963472600,0.08047265625,0.09873568404018879,0.041728433182835575,-0.33677228674292564
1783169853973542700,0.090542724609375,-0.021843290756642816,0.09793430452942847,-0.36342370843365784
1783169853983611600,0.100611572265625,-0.044376609604060646,0.05416413638591766,-0.41838067569769916
1783169853993681700,0.110681640625,0.044258974573761226,0.029137831678986547,-0.4937343881718814
1783169854003750700,0.120750732421875,-0.0354293330386281,0.06484101322293281,-0.558772531402111
1783169854013820700,0.130820556640625,-0.13495821328312158,0.04627016826570034,-0.5065520764298737
1783169854023889700,0.1408896484375,-0.17148995460569857,-0.00597089110314846,-0.5213463254578411
1783169854033959700,0.150959716796875,-0.19671032058000562,0.01886076781451702,-0.5492031043503434
1783169854044028400,0.1610283203125,-0.1728735179185867,0.015545359656214713,-0.5323364329624921
1783169854054098700,0.1710986328125,-0.07133066750317811,-0.02592529937326908,-0.47720286702252923
1783169854064167400,0.18116748046875,-0.18703049195632337,0.051316345739364624,-0.43000440493077036
1783169854074237700,0.19123779296875,-0.31132571079730986,0.03888473418951034,-0.5135099327437579
1783169854084307700,0.2013076171875,-0.2036515180200338,0.08323007187247276,-0.5277108920536935
1783169854094376400,0.21137646484375,-0.1878793638706207,0.08356091126203537,-0.5913583115778863
1783169854104446700,0.22144677734375,-0.0825600636564195,0.10728899285197258,-0.5470951722856611
1783169854114515500,0.231515380859375,-0.11099106224030256,0.08685060045719147,-0.578971415952593
1783169854124585700,0.241585693359375,-0.18671558078825473,0.07386661572158336,-0.5527700761169195
1783169854134654500,0.251654541015625,-0.12751987997591493,0.1613327177286148,-0.536086652341485
1783169854144724500,0.261724365234375,-0.05420023061260581,0.2722802330881357,-0.4808086364295333
1783169854154793500,0.27179345703125,-0.010027911408990621,0.2660615047037601,-0.32240006251931186
1783169854164863500,0.281863525390625,-0.02808072384148836,0.2676455590248108,-0.2540768332038075
1783169854174932500,0.291932373046875,-0.06133256671056151,0.21628537414371965,-0.22769071138575672
1783169854185002500,0.30200244140625,0.037010757011175156,0.1614063674867153,-0.1424783065896481
1783169854195072800,0.31207275390625,0.005811462757736444,0.1222667817533016,-0.11595496825799345
1783169854205141500,0.3221416015625,-0.06346855582594871,0.09091711924374103,-0.04771722526885569
1783169854215211500,0.33221142578125,-0.016133973199129105,0.07797171295285224,0.01640774863921106
1783169854225280500,0.342280517578125,-0.037959289907664055,0.07732932339608668,-0.030746362854167816
1783169854235350500,0.3523505859375,0.05630012550130486,0.0359282224714756,0.013500044498965143
1783169854245419500,0.36241943359375,0.11579758573919534,0.04626958374381065,0.05471431761458516
1783169854255489500,0.372489501953125,0.14620835996344686,0.05490355657637119,0.022342253254726527
1783169854265558500,0.38255859375,0.12049626494944095,0.036786885127425194,-0.020114201941713688
1783169854275628500,0.392628662109375,0.027757921627908945,0.01532850203514099,0.001817643881216645
1783169854285697800,0.40269775390625,0.015077157622575759,-0.033712884509563446,0.0319208865262568
1783169854295767600,0.412767578125,-0.047267070348560807,-0.03174363026320934,-0.027917569169029592
1783169854305837600,0.422837646484375,-0.06537994240522384,0.003072247052192688,-0.05990282616838812
1783169854315906600,0.432906494140625,-0.031246786656975743,0.019527707290649413,-0.126889838444069
1783169854325976600,0.4429765625,0.03174655287265778,-0.029730536875128746,-0.1399539757438004
1783169854336045600,0.453045654296875,0.043312633634358645,-0.044909985828399654,-0.1371294198423624
1783169854346115600,0.463115478515625,0.00012289572730660438,0.01645312215089798,-0.16431399856172502
1783169854356184600,0.4731845703125,0.018866028511524198,0.02908990088403225,-0.15530432428456842
1783169854366254600,0.483254638671875,0.03227978296652436,0.06918927156031131,-0.10409406926818192
1783169854376323600,0.493323486328125,0.03961129489839077,0.08416530689597129,-0.11784048974364995
1783169854386393600,0.5033935546875,0.0010831190615892409,0.06662322046458721,-0.09105652771443128
1783169854396462600,0.513462646484375,0.003608984277397394,0.07342588621675968,-0.07663841852247714
1783169854406532600,0.52353271484375,0.04668167167603969,0.09595569793283938,-0.10843385203815996
1783169854416601600,0.5336015625,0.01926116530895233,0.06362053151726722,-0.032486995976418256
1783169854426671600,0.543671630859375,0.07606061863452196,0.045810149538516996,-0.012595789135619997
1783169854436741600,0.55374169921875,0.0681117054566741,0.06982406233251094,-0.05199811745844781
1783169854446810400,0.563810302734375,0.04163111028820276,0.07740355767607689,-0.02096738470494747
1783169854456880600,0.573880615234375,-0.06249518074914813,0.09658581252992153,-0.01932319769449532
1783169854466949600,0.58394970703125,-0.044510172855854034,0.14263970769643783,-0.10945829971507191
1783169854477019600,0.59401953125,-0.010669131921976804,0.11679273425638675,-0.10903868606351315
1783169854487088600,0.604088623046875,-0.005935673659294843,0.11515490392148495,-0.1403111186183989
1783169854497158400,0.614158447265625,-0.009806523743271827,0.08837795615494251,-0.1468202082514763
1783169854507227600,0.6242275390625,0.0537269140124321,-0.004164133942127227,-0.05890249001942575
1783169854517297400,0.63429736328125,0.07768661240115761,-0.016732523614168167,-0.016647987135872244
1783169854527366700,0.64436669921875,0.052671267479658126,0.027958851027488706,0.002519654670730233
1783169854537436400,0.6544365234375,-0.010670739357173442,0.0929272900223732,-0.09334683060869574
1783169854547506700,0.664506591796875,0.01726283109858632,0.08256839309334754,-0.10980280230380594
1783169854557575700,0.67457568359375,0.07718436196744441,0.06424363185167312,-0.06630699412226676
1783169854567645400,0.6846455078125,0.07275719317495823,0.11858487837016582,-0.07090988480783998
1783169854577714700,0.694714599609375,-0.007100187394022941,0.1727344017088413,-0.12220073077976704
1783169854587784400,0.704784423828125,-0.06842471692860126,0.13624211561381816,-0.10984057703092694
1783169854597853700,0.714853759765625,-0.05703589242994785,0.1389724173605442,-0.11495419371761381
1783169854607923500,0.72492333984375,-0.07290390816926956,0.16037234826385974,-0.19254962070398032
1783169854617992700,0.73499267578125,-0.12269845116883515,0.20336276420652866,-0.2083512201435864
1783169854628062500,0.7450625,-0.05920563768446445,0.1383230135411024,-0.19129976677335797
1783169854638131700,0.755131591796875,0.03719838853776455,-0.005764554876089096,-0.16490312356129289
1783169854648201700,0.76520166015625,0.055938306451588864,-0.037139351826906204,-0.01446998550966382
1783169854658271500,0.775271484375,-0.008585457515716552,-0.054985389640927314,-0.06302636501640081
1783169854668340700,0.7853408203125,-0.03580927226692438,-0.044369303080439564,-0.017689239817112682
1783169854678410500,0.795410400390625,0.008497486971318722,-0.00011807342171669006,-0.02796710739918053
1783169854688479700,0.805479736328125,0.06867723038494586,0.033873628029227255,-0.06851254134252667
1783169854698549500,0.815549560546875,0.061925125776231285,0.07556874346435069,-0.09907010362632572
1783169854708618800,0.82561865234375,0.012916472457349299,0.08154021908938884,-0.13936770028844475
1783169854718688500,0.8356884765625,0.038061727368831635,0.07755377980172634,-0.0884252293627709
1783169854728757500,0.845757568359375,0.024242460852861403,0.08707447234094143,-0.07680654163099825
1783169854738827800,0.855827880859375,-0.008366846328973769,0.03025485301017761,-0.11146722838468849
1783169854748896500,0.865896484375,-0.03308393895626068,-0.009500818794965744,-0.07105031619183719
1783169854758966800,0.875966796875,-0.05352087004631757,-0.004119125756621361,-0.08742635451853274
1783169854769035500,0.886035400390625,-0.0683136577695608,-0.009369301369786262,-0.13241079382263124
1783169854779105500,0.89610546875,-0.058188423465937375,0.003114332628250122,-0.1298123017620295
1783169854789175600,0.906175537109375,-0.013508885392546653,0.049101007777452466,-0.1365975779879838
1783169854799244500,0.91624462890625,-0.049587329989671705,0.06062310326695442,-0.11303265107050538
1783169854809314600,0.926314453125,-0.049691374886035915,0.06031564475297928,-0.09394289680570364
1783169854819383600,0.936383544921875,-0.04373948074430227,0.05308043280243873,-0.10099807601422071
1783169854829453800,0.946453857421875,-0.043621699583530425,0.0547591796696186,-0.1415149414502084
1783169854839522600,0.9565224609375,-0.01290142101868987,0.06469897440373897,-0.09762575003691017
1783169854849592600,0.966592529296875,-0.0807709882825613,0.11589081698060034,-0.13609218574911355
1783169854859661600,0.97666162109375,-0.09802461316138505,0.14551906252503394,-0.11728906640596687
1783169854869731600,0.986731689453125,-0.00434811220690608,0.12136954065263271,-0.09750161220058798
1783169854879800600,0.996800537109375,0.07682794974520803,0.13363397894203663,-0.08517236504666506
1783169854889870300,1.006870361328125,0.07206482699662446,0.12313655032515525,-0.10198927900865673
1783169854899939600,1.016939697265625,0.004933510879427195,0.08554828568696975,-0.0814305481698364
1783169854910009300,1.02700927734375,-0.010826514440774917,0.015019289955496787,-0.09406937272958457
1783169854920079400,1.037079345703125,0.004627659800648689,-0.016011808124184606,-0.09458002566546202
1783169854930148400,1.0471484375,-0.016389701525866985,-0.03286825037896633,-0.08034611393399536
1783169854940218400,1.05721826171875,-0.047182606935501095,-0.015900748965144155,-0.03828706055730581
1783169854950287600,1.06728759765625,0.012788754424452781,0.022675942188501358,-0.08738054261542856
1783169854960357400,1.077357421875,0.05182312621772289,0.03747428286969662,-0.08974727174676954
1783169854970426600,1.087426513671875,0.09504808156862854,0.07595569695532321,-0.08542875096052885
1783169854980496400,1.097496337890625,0.04694821365773678,0.08620178115963935,-0.14648827288337052
1783169854990565600,1.107565673828125,0.06360065777301788,0.03712999947667121,-0.08687215470187365
1783169855000635400,1.117635498046875,0.053038931748270984,0.07363280696570873,-0.09961429350562392
1783169855010704600,1.12770458984375,0.033012627285718917,0.029619477716088295,-0.09436009930446744
1783169855020774400,1.1377744140625,0.00822831464111805,0.0006944120049476623,-0.04075746925882995
1783169855030844400,1.147844482421875,-0.01134790796637535,0.04217559242844581,-0.015822642227634787
1783169855040913700,1.15791357421875,0.010156213963776826,0.10653905126750468,-0.02694097922183573
1783169855050983400,1.1679833984375,-0.002238134315609932,0.10349252317845821,-0.07273242405988276
1783169855061052700,1.178052734375,-0.032172961591184136,0.07590718163847923,-0.08063340644277632
1783169855071122400,1.188122314453125,0.02470204118862748,0.03931435777842998,-0.07123400219567119
1783169855081191400,1.19819140625,0.05881824580207467,0.016942951494455336,-0.05230038834065199
1783169855091261400,1.208261474609375,-0.008656038533896208,0.02044716022312641,-0.06049903849586844
1783169855101330400,1.218330322265625,-0.0028179800301790237,0.053586628758907316,-0.1242649698331952
1783169855111400400,1.228400390625,0.015356266824901103,0.07105155830085277,-0.1418969265051186
1783169855121469400,1.238469482421875,0.0015380232222378253,0.06727087071835994,-0.11568776868917047
1783169855131539500,1.24853955078125,0.044648704543709755,0.05393500380516052,-0.06829612211287021
1783169855141608400,1.2586083984375,0.06119418115317821,0.07947451873123645,-0.05425524873547256
1783169855151678500,1.268678466796875,-0.020965046617388725,0.10779518880844116,-0.08723543505631387
1783169855161747500,1.27874755859375,-0.054907648229598996,0.12255670461058615,-0.12156637839898467
1783169855171817500,1.2888173828125,0.015165566558390855,0.1089700778067112,-0.12665135351307688
1783169855181887500,1.298887451171875,0.03493132038861513,0.06410393112003802,-0.15147621736377476
1783169855191956500,1.30895654296875,0.04690320547223091,0.027106618112325665,-0.15724457163214683
1783169855202026200,1.319026123046875,0.0022296587482094764,0.02493570381402969,-0.1474933582726866
1783169855212095500,1.329095458984375,-0.016490385421365498,0.04453998347222805,-0.08976758388243615
1783169855222165500,1.33916552734375,0.0018991116195917128,0.04338555274009704,0.0017236089222133159
1783169855232234500,1.349234375,0.00645911301150918,0.08296879058778285,-0.02035034878514707
1783169855242304500,1.359304443359375,0.014145429730415344,0.11432196022868156,-0.07795615005753934
1783169855252373500,1.36937353515625,0.04450272020176053,0.07829436903595924,-0.02179557915739715
1783169855262443500,1.379443603515625,0.030495968289673325,0.08613163853287696,-0.04283917090371251
1783169855272512500,1.389512451171875,-0.013572013756632804,0.07239888125658035,-0.06499868800267576
1783169855282582500,1.39958251953125,-0.043103228667378424,0.09733750768005847,-0.09784005037471652
1783169855292651500,1.409651611328125,-0.024581483548879624,0.11570376997590065,-0.1550751917038113
1783169855302721500,1.419721435546875,-0.018419307657331227,0.08689093246757984,-0.13560009138323365
1783169855312791600,1.42979150390625,-0.010801818390935658,0.060090019303560255,-0.17428543054312468
1783169855322860500,1.439860595703125,-0.04044219276458025,0.05722410847842693,-0.1912715635921806
1783169855332930600,1.4499306640625,-0.0025575755283236503,0.0406423915117979,-0.1459630069002509
1783169855342999600,1.45999951171875,0.004623860408365726,0.060495092973113056,-0.1127567567385733
1783169855353069600,1.470069580078125,0.037919688549637794,0.07810147681236267,-0.05833338489457965
1783169855363138600,1.480138671875,0.029497020380198954,0.1030313354074955,-0.052118821228668094
1783169855373208600,1.49020849609375,0.007272913612425327,0.12520517329275607,-0.059650385777279734
1783169855383277300,1.50027734375,-0.00787584794163704,0.10600596730411052,-0.07488039587400853
1783169855393347600,1.51034765625,-0.015949264281988142,0.05645020149648189,-0.09424611753597854
1783169855403416300,1.520416259765625,0.017410276745259762,0.03667348788082599,-0.10462181946933269
1783169855413486600,1.530486572265625,-0.02839168948680162,0.05141337637305259,-0.09175451991595328
1783169855423555300,1.540555419921875,-0.09804887081980705,0.0989350060045719,-0.05648994898498058
1783169855433625300,1.550625244140625,-0.04049596877843141,0.06467150187492371,-0.0032675504285842177
1783169855443695600,1.560695556640625,0.06834989812672138,0.07736965540647506,0.0026009032133966683
1783169855453764400,1.570764404296875,0.023611469472944735,0.0685194094747305,-0.014711539180576801
1783169855463834600,1.580834716796875,-0.030208091259002683,0.05707154826521873,-0.11394435908794402
1783169855473903400,1.5909033203125,0.004450841929018497,0.04553893138170242,-0.13706183449886739
1783169855483973400,1.600973388671875,0.07567483418732882,0.013441080853343008,-0.1588908044692129
1783169855494042400,1.61104248046875,-0.02055032833665609,0.020595628783106803,-0.1651665237378329
1783169855504112400,1.6211123046875,-0.0035638299614191055,0.019606033223867416,-0.1284633713711053
1783169855514181400,1.631181396484375,0.0010924714118242262,-0.008263385954499243,-0.0949559463057667
1783169855524251400,1.64125146484375,-0.00615910715162754,0.01475683962702751,-0.02663732010014355
1783169855534320400,1.6513203125,0.05124211145937443,0.038079847547411914,-0.017726430022343993
1783169855544390400,1.661390380859375,0.09441139110028743,0.04133738803863525,-0.026386194883286952
1783169855554459600,1.671459716796875,0.05263122773021459,0.06614566608071328,-0.04941467683650553
1783169855564529400,1.681529296875,0.05334609800130129,0.02057575503885746,-0.01661569230146706
1783169855574598700,1.6915986328125,0.07625321859717368,0.010815408524870871,-0.01129471647441387
1783169855584668400,1.70166845703125,-0.0038210195928812026,-0.00265606746673584,-0.035229499617591496
1783169855594738400,1.711738525390625,-0.073039224986732,-0.0002291325807571411,-0.004349062054976821
1783169855604807400,1.721807373046875,-0.013847615827620029,-0.0036702129453420637,0.005012348269298673
1783169855614877400,1.73187744140625,-0.0063625207692384715,0.04744447274208068,-0.08861132651939987
1783169855624946400,1.741946533203125,-0.03661941960602998,0.11266542519330977,-0.12867628346942364
1783169855635016400,1.752016357421875,0.0012584756284952164,0.13641981026828287,-0.1789559796374291
1783169855645085700,1.762085693359375,0.07459229964762926,0.0903565627515316,-0.17745631566420197
1783169855655155500,1.772155517578125,0.0686801529943943,0.08082885594964027,-0.11310454726293682
1783169855665224400,1.782224365234375,0.03590981003195047,0.10558511154353618,-0.11097557241022586
1783169855675294500,1.79229443359375,0.04230769437551498,0.1200058510839939,-0.0978108973454684
1783169855685363500,1.802363525390625,0.011631401082873343,0.1133528229355812,-0.12018413026034831
1783169855695433500,1.81243359375,0.017209785737097263,0.10358253954946994,-0.03449395188465714
1783169855705502500,1.82250244140625,0.03282733384668827,0.12071429161429405,-0.03179521431997418
1783169855715572500,1.832572509765625,-0.005329670590162277,0.1498918707817793,-0.035981779289618133
1783169855725642500,1.842642578125,0.09464695342183113,0.1378442901134491,0.000523585482686758
1783169855735711500,1.85271142578125,0.12375994292050599,0.12362345705926417,-0.01061009521111846
1783169855745781500,1.862781494140625,0.018127777364850044,0.11650105783343315,-0.07123086039051413
1783169855755850500,1.8728505859375,-0.01776888092458248,0.07858721450269222,-0.07880816377699375
1783169855765920500,1.88292041015625,-0.0011287117689847946,0.004424830704927444,-0.09429887063652276
1783169855775989500,1.892989501953125,-0.02300824288278818,-0.049721185502409934,-0.0883995103996247
1783169855786059300,1.903059326171875,-0.08528817344605923,-0.07655132476091385,-0.05909925470054149
1783169855796128500,1.91312841796875,-0.13000614383369682,-0.0246522106975317,-0.05679411956332624
1783169855806198300,1.9231982421875,-0.05301598926410079,0.014879589223861693,-0.08417707039900124
1783169855816267500,1.933267578125,-0.012124883688241243,0.06153261932730674,-0.050073944462835786
1783169855826337500,1.943337646484375,0.005990180325508117,0.09269172770082951,-0.08035356658808887
1783169855836406500,1.953406494140625,0.020499767193198203,0.13229834642410276,-0.04722052779309451
1783169855846476500,1.9634765625,0.04795651391744613,0.10827332771420478,-0.05159129022322595
1783169855856545500,1.973545654296875,0.06020706981196999,0.06891922244727611,-0.08988755700029433
1783169855866615600,1.983615478515625,0.038493104523420335,0.059063014343380925,-0.11973397534005344
1783169855876685300,1.993685302734375,-0.02436374914497137,0.034085224953293795,-0.13081008062772453
1783169855886755600,2.003755615234375,-0.018548633125424385,0.002992752075195312,-0.06388948465175927
1783169855896825600,2.01382568359375,-0.027221768924593923,0.002463759765028953,-0.028026217175275085
1783169855906894600,2.02389453125,-0.029882950957864522,0.003906359788775444,-0.032664325304701924
1783169855916964600,2.033964599609375,-0.05173895506560802,0.037004911792278286,-0.0445558386284858
1783169855927033600,2.04403369140625,-0.08147285294160246,0.046665889585018154,-0.050529287014901635
1783169855937104000,2.054103759765625,-0.06158990247249603,0.07033668802976607,-0.09874489025995135
1783169855947172600,2.064172607421875,0.0053571431189775465,0.07347089440226555,-0.11177410237677395
1783169855957242600,2.07424267578125,0.01042728599011898,0.053823360124230384,-0.10536986135765909
1783169855967311600,2.0843115234375,-0.02482815178632736,0.07288520346879959,-0.11319317539446055
1783169855977381600,2.094381591796875,-0.018136983584612607,0.08536474581360816,-0.11494111504033207
1783169855987450600,2.10445068359375,0.009743103118240833,0.09876491013467312,-0.12098514444492757
1783169855997520600,2.114520751953125,-0.0489250666886568,0.0676648384720087,-0.10713139113746582
1783169856007589600,2.124589599609375,-0.04926964234262705,0.07225216626226902,-0.08075213745161891
1783169856017659600,2.13465966796875,0.011576456025242805,0.08314473167657851,-0.06354549351967871
1783169856027729700,2.144729736328125,0.002673603123426437,0.067507602083683,-0.03255151257999241
1783169856037798700,2.154798583984375,-0.016840660163760183,0.05415595307946205,0.012363733945414424
1783169856047868700,2.16486865234375,-0.07033171959370374,0.0765577545017004,-0.07795804975368083
1783169856057937700,2.174937744140625,-0.024809154824912548,0.06887538330554961,-0.12327413216494024
1783169856068007700,2.185007568359375,0.02136778219938278,0.020569325298070908,-0.15214790608026085
1783169856078076700,2.19507666015625,-0.0105178868830204,0.016556582525372503,-0.18048289694376288
1783169856088146700,2.205146728515625,0.012018939095735549,0.07542670464515686,-0.16173201924450695
1783169856098215700,2.215215576171875,-0.017088497444987295,0.10812602819800377,-0.14940006867684424
1783169856108285700,2.22528564453125,-0.04368775055706501,0.1297749654263258,-0.13604491254128515
1783169856118354400,2.2353544921875,-0.02505816114991903,0.11597907978594302,-0.12419007796607912
1783169856128424700,2.2454248046875,-0.02637698866352439,0.10308160429000854,-0.1255942456755787
1783169856138493400,2.255493408203125,-0.07512596813291311,0.0921124665081501,-0.13843392656967043
1783169856148563700,2.265563720703125,-0.024231208806484935,0.053441082808375354,-0.10997136380374431
1783169856158633700,2.2756337890625,0.007230828036367893,0.025884967362880706,-0.11106726928167045
1783169856168702700,2.28570263671875,0.01018675523251295,0.05095101955831051,-0.1086885574515909
1783169856178772700,2.295772705078125,-0.003010579992830753,0.06733867525756358,-0.10698094981610774
1783169856188841500,2.305841552734375,-0.015130202984064816,0.0755991386026144,-0.07720401651598513
1783169856198911700,2.315911865234375,-0.00982990461885929,0.05710545053482055,-0.1146881631925702
1783169856208980500,2.32598046875,-0.018816928672790525,0.060087681216001505,-0.08469861005507409
1783169856219050800,2.33605078125,0.00678045392036438,0.05249006569385528,-0.06985153486132621
1783169856229119500,2.346119384765625,0.0943821650058031,0.01464051977097988,-0.007990925688669085
1783169856239189500,2.356189453125,0.07168547229021788,0.04717851528227329,-0.00349324894323945
1783169856249258500,2.366258544921875,0.04817424832135438,0.12066285368800163,-0.04004325657486915
1783169856259328500,2.37632861328125,0.015497721122205257,0.13428162919580935,-0.023932737316563726
1783169856269397800,2.386397705078125,0.012160977914929389,0.14507482588887213,-0.08650449043326079
1783169856279467500,2.396467529296875,0.02059007582515478,0.08736205711066722,-0.11818031615726649
1783169856289536800,2.406536865234375,0.07748831335008144,0.029788989064097403,-0.10538578957915305
1783169856299606500,2.4166064453125,0.08203150973767041,0.01310907242000103,-0.09938143459782003
1783169856309676500,2.426676513671875,0.10111118099987507,-0.017636778977513312,-0.0580029838964343
1783169856319745500,2.43674560546875,0.13453428878262638,-0.009815876093506813,-0.012964841643720864
1783169856329815600,2.446815673828125,0.10271569358706474,0.04690612808167934,-0.02336947741061449
1783169856339884500,2.456884521484375,0.13522417074292897,0.07303951724767685,-0.002908946249261498
1783169856349954600,2.46695458984375,0.13265519703775644,0.07034720942378044,0.05364084316417574
1783169856360023800,2.47702392578125,0.05168371774703264,0.059921676999330514,0.028148747576400637
1783169856370093600,2.487093505859375,-0.008512976801395416,0.020133271968364716,0.0005258505050092935
1783169856380162800,2.497162841796875,-0.010529869581758975,-0.03702653910219669,0.012729498517885804
1783169856390232600,2.507232666015625,-0.0033288521617650985,-0.011769932770729064,-0.044253202420100564
1783169856400301600,2.517301513671875,0.03341375543251633,0.00010755202770233153,-0.13323701551370323
1783169856410371600,2.52737158203125,0.030493922463059424,-0.009054244071245193,-0.1461008079357445
1783169856420440600,2.537440673828125,0.07305413029491901,-0.019695465072989464,-0.1685392150413245
1783169856430510600,2.547510498046875,0.0696212332367897,-0.005158405676484108,-0.18774865016303954
1783169856440579600,2.55757958984375,0.06928016471415757,0.04400923759639263,-0.1606049149107188
1783169856450649900,2.56764990234375,0.08210662080049515,0.06719663643836975,-0.08889175089597702
1783169856460719600,2.5777197265625,0.02959258970916271,0.05747720645666122,-0.027879575246199963
1783169856470788600,2.58778857421875,0.035280572217702866,0.08440554539263248,0.005257628267258405
1783169856480858600,2.597858642578125,-0.018623451927304267,0.08772387616038321,-0.007777794394642114
1783169856490927600,2.607927734375,-0.012609744595736265,0.06170037710964679,0.017514321641623972
1783169856500997600,2.61799755859375,-0.017131167542934415,0.021461305701732634,-0.019661197477206585
1783169856511066600,2.628066650390625,0.012227028888463973,-0.022010756278038023,-0.03314319486282766
1783169856521136600,2.63813671875,0.039925183153152466,-0.011527356186509132,-0.07323043670989572
1783169856531205600,2.64820556640625,0.05399170242846012,0.00755728351175785,-0.08684935834817588
1783169856541275600,2.658275634765625,0.06424845415726303,0.059275195789337154,-0.151751819434762
1783169856551344600,2.6683447265625,0.03494681021869182,0.06227788473665714,-0.13224632397592068
1783169856561414700,2.67841455078125,0.03021115999892354,0.04015548477768898,-0.10765336918495595
1783169856571483600,2.688483642578125,0.030831191593408584,0.022929040166735647,-0.05731960474215447
1783169856581553700,2.6985537109375,0.008821604359149932,0.04312017980217933,-0.038629078928008674
1783169856591622700,2.70862255859375,-0.007398001296818256,0.11477905634641647,-0.07886435094363987
1783169856601692700,2.718692626953125,0.06949205389916896,0.12320201677680015,-0.08794847869649529
1783169856611761700,2.72876171875,0.043737581048160785,0.13639175321757793,-0.04307670598663389
1783169856621831700,2.738831787109375,-0.005917553480714559,0.1402531048208475,-0.1079405886285007
1783169856631901700,2.748901611328125,-0.008564414727687835,0.09445932189524173,-0.1017568584922701
1783169856641970700,2.758970703125,0.014574468797445296,0.03362403718233108,-0.1108805876031518
1783169856652040700,2.769040771484375,-0.010342530316114425,-0.01584872651696205,-0.1524439664173871
1783169856662109700,2.779109619140625,0.01745733075737953,-0.035651159095764155,-0.1452689602214843
1783169856672179700,2.7891796875,0.06314940687417983,-0.03634557110071182,-0.0684479516737163
1783169856682248700,2.799248779296875,0.02553893040418625,0.039112113204598425,-0.021373627418279646
1783169856692318700,2.809318603515625,-0.010585106900334358,0.07536416080296039,-0.038096068029850716
1783169856702387500,2.819387451171875,0.047862405893206596,0.09369126013219356,-0.020132541316002606
1783169856712457700,2.829457763671875,0.03318681480884552,0.0667629211962223,-0.011599909966066479
1783169856722526500,2.8395263671875,-0.0245867442458868,-0.007086158868670463,0.035159137795120476
1783169856732596700,2.8495966796875,0.03513736435472965,-0.000602057546377182,0.03247033710256219
1783169856742665500,2.85966552734375,0.08268880460262298,0.060928808215260505,-0.014274389872327447
1783169856752735500,2.869735595703125,0.09658230539858341,0.08543079678714274,-0.05773446915335953
1783169856762804700,2.8798046875,0.05826835683435201,0.07386778476536274,-0.12849683524928987
1783169856772874500,2.88987451171875,0.06125672499537468,0.02135784532725811,-0.1340801883395761
1783169856782944800,2.89994482421875,0.07042465857416391,-0.03882043678164482,-0.09949811978004872
1783169856793013500,2.910013427734375,0.059411389389634126,-0.055769233494997024,-0.09160305568128824
1783169856803083800,2.920083740234375,0.052200142836570734,-0.04026069871783256,-0.10478117474950849
1783169856813152500,2.930152587890625,0.011754735201597213,0.0139729957729578,-0.06606229864619671
1783169856823222500,2.940222412109375,0.012103987030684948,0.07256430095136165,-0.011051116976886988
1783169856833291500,2.95029150390625,-0.017371406039595604,0.11365385170876979,0.024768968944996594
1783169856843361500,2.960361572265625,0.04281447485387325,0.16932897717952727,0.014129063117504118
1783169856853430800,2.9704306640625,0.05797229649722576,0.20763328113257884,-0.0023499971922487017
1783169856863500500,2.98050048828125,0.037514030358195304,0.17658114026486874,-0.0767785576455295
1783169856873569800,2.99056982421875,0.06274564837887883,0.12130933489799499,-0.15468356203772127
1783169856883638500,3.000638427734375,0.07371347098648548,0.048078094470500946,-0.1936438456814736
1783169856893707800,3.010707763671875,-0.05503755821958184,-0.015416764840483665,-0.177141989018023
1783169856903777800,3.02077783203125,-0.11579027921557426,-0.04903554132580757,-0.1643160443883389
1783169856913846800,3.0308466796875,-0.10575813002288341,-0.031247371178865432,-0.06194741067327559
1783169856923916800,3.040916748046875,-0.05826031965836882,0.017502923464775083,-0.0165633045271039
1783169856933986600,3.050986572265625,-0.014833411994576454,0.11635551188290119,-0.033304011447727676
1783169856944055800,3.061055908203125,0.004573007003962994,0.17366437603533266,-0.05013166599944233
1783169856954125600,3.07112548828125,0.07722527849972248,0.14718261182308195,-0.060799117420986294
1783169856964194800,3.08119482421875,0.12652575437203048,0.10487608649134636,-0.053215018967539066
1783169856974264600,3.0912646484375,0.034832390058785676,0.09549743277132511,-0.08974047667980194
1783169856984333800,3.101333740234375,-0.05464519790112972,0.07223229251801967,-0.06550269200205802
1783169856994403800,3.11140380859375,-0.04627016826570034,0.03437631685435772,-0.08568192200399935
1783169857004472800,3.121472900390625,-0.03789280054271221,0.04312193336784839,-0.13978563343957065
1783169857014542800,3.13154296875,-0.0006038111120462417,0.0015904840618371963,-0.1727132127903402
1783169857024611600,3.141611572265625,0.02628843359723687,-0.035435470518469805,-0.16278693512491882
1783169857034681900,3.151681884765625,0.046685324937850235,-0.08059796980321407,-0.10463314458094537
1783169857044750600,3.16175048828125,0.08587167242243886,-0.06392915907502174,-0.04722893029525876
1783169857054820900,3.17182080078125,0.06800619925558567,-0.023696517407894132,0.016231734485179186
1783169857064889600,3.1818896484375,0.00810863378420472,0.030555297261476516,0.0380669150006026
1783169857074960000,3.1919599609375,-0.046009909894317386,0.025489246043562886,0.03696779465228319
1783169857085028600,3.202028564453125,-0.03790799811184406,0.07052373503446578,-0.008894669595360755
1783169857095098600,3.2120986328125,0.0044940965488553045,0.08909867164492606,-0.08296382215172052
1783169857105169000,3.2221689453125,0.02991641483604908,0.045330841588974,-0.06779336022250354
1783169857115237600,3.232237548828125,0.07277721304967999,0.0430652347445488,-0.05778787984102964
1783169857125308000,3.242307861328125,0.04544949953258037,0.023237083202600477,-0.07415938812308014
1783169857135376600,3.252376708984375,-0.007771803045272827,0.08966098170280457,-0.10327603088356554
1783169857145446700,3.26244677734375,-0.053636313119530675,0.07144084987938404,-0.09478263556547463
1783169857155515600,3.272515625,-0.058491351935267444,0.10531798503994941,-0.10124320988170803
1783169857165585700,3.282585693359375,-0.04787643441855907,0.16011282054483889,-0.13115377949886023
1783169857175654700,3.292654541015625,-0.01517301921248436,0.17112112129330634,-0.12944522201530634
1783169857185724700,3.302724609375,0.052792263510823244,0.11423603551089763,-0.09223565449640155
1783169857195793700,3.312793701171875,0.1045779803276062,0.09144494251012801,-0.09680413145571946
1783169857205863700,3.32286376953125,0.007002572238445281,0.06690086836218834,-0.1266411974452436
1783169857215932700,3.3329326171875,0.062111295998096464,0.02473579732775688,-0.049273880126327274
1783169857226002700,3.343002685546875,0.06934300081729888,-0.005938742399215698,-0.024577172699943185
1783169857236072000,3.353072021484375,0.014074702581763267,-0.002339256602525711,-0.033815760362148284
1783169857246141700,3.3631416015625,-0.05944412261545658,0.026403438279032704,-0.0694808749180287
1783169857256210700,3.373210693359375,-0.015825930163264272,0.053148821863532064,-0.07888648971021175
1783169857266280700,3.38328076171875,0.0873044817045331,0.058631637188792225,-0.10534516530781984
1783169857276350700,3.393350830078125,0.08087503317892551,0.05836567972898483,-0.08239142909124493
1783169857286419700,3.403419677734375,0.06452537140250206,0.05333586886823177,0.00031323066763579843
1783169857296489700,3.41348974609375,0.12215338450670242,0.05964402910172939,0.05558795864395797
1783169857306558700,3.423558837890625,0.06349515157192945,0.1410153213649988,0.012508037786930798
1783169857316628700,3.433628662109375,-0.015120412242412565,0.1512982304483652,-0.017952493863180277
1783169857326697700,3.44369775390625,0.033926527260243894,0.108612350410223,-0.06435030709654092
1783169857336767700,3.453767822265625,0.07787526684105396,0.02232464453279972,-0.1094062772668898
1783169857346836700,3.463836669921875,0.014776713371276855,-0.02944704375863075,-0.13482888781502841
1783169857356906800,3.47390673828125,-0.04570668916404247,-0.045072482913732524,-0.13447978211641312
1783169857366975700,3.483975830078125,-0.0010831190615892409,-0.011342062747478484,-0.11189363710321486
1783169857377045500,3.49404541015625,0.019568623822927473,0.025094693768024444,-0.08706343949027359
1783169857387114800,3.50411474609375,-0.008610591956973076,0.05921382099092006,-0.0708545744240284
1783169857397184500,3.5141845703125,0.06570552109777927,0.07966215025782585,-0.057939051814749835
1783169857407253800,3.524253662109375,0.05310322915613651,0.15167057089209557,-0.017282997103780506
1783169857417323800,3.53432373046875,0.08918693445026873,0.20918869388103484,-0.05195186716392636
1783169857427393800,3.544393798828125,0.07746259438693523,0.02413549334704876,-0.13393113525770603
1783169857437462800,3.554462890625,0.09027239159941673,0.06577098754942416,-0.02459207800813019
1783169857447532500,3.564532470703125,0.07466594940572976,0.10172142185270786,-0.09605871991589665
1783169857457601800,3.574601806640625,-0.05408727175742387,-0.032873511075973506,-0.09962678766101599
1783169857467671600,3.584671630859375,-0.018022271163761615,-0.0228396083176136,-0.03886339914053678
1783169857477740800,3.59474072265625,-0.02482522917687893,0.00120820674598217,-0.061078884210437535
1783169857487810600,3.604810546875,0.009677928927540779,-0.0124175830245018,-0.03845554899200797
1783169857497879800,3.6148798828125,0.005448328533768654,-0.025311551389098165,-0.04581212229989469
1783169857507949800,3.62494970703125,0.0018485504761338234,0.017122399714589117,-0.09119988170787692
1783169857518018800,3.635018798828125,0.04142243597358465,0.03881166895329952,-0.11495258628241717
1783169857528088800,3.6450888671875,-0.010168927314877509,0.05380874707698822,-0.12320545084290206
1783169857538157800,3.65515771484375,-0.016340309426188467,0.04690554355978965,-0.04059636041298508
1783169857548227800,3.665227783203125,0.021608020696043968,0.023065233767032622,-0.002842895275726914
1783169857558296600,3.675296630859375,0.024196575884521006,0.05327566311359405,0.01636471321508288
1783169857568366800,3.685366943359375,0.03250818489491939,0.09853753111958503,-0.061514206887781614
1783169857578435600,3.695435546875,0.040892566880583764,0.07377659935057163,-0.09439707031399011
1783169857588505900,3.705505859375,0.03148468706607818,0.03388298037946224,-0.07670147382132708
1783169857598575900,3.715575927734375,-0.04314005354642868,0.05571078130602836,-0.10127046321481466
1783169857608644600,3.72564453125,-0.01277531042098999,0.09233283126056194,-0.16265176443792878
1783169857618715000,3.73571484375,-0.10709054767042397,0.09150573278665541,-0.12713526457250118
1783169857628783600,3.74578369140625,-0.09222147984057665,0.03774024032950401,-0.1023448875132948
1783169857638854000,3.75585400390625,0.08835574432313442,0.055526072388887404,-0.13351765908598898
1783169857648922600,3.765922607421875,0.07188713234215974,0.05624386526942253,-0.1217029373254627
1783169857658992600,3.77599267578125,0.06647562868744135,0.06231646318137645,-0.1109386744659394
1783169857669061600,3.7860615234375,0.04493307444304227,0.037159225571155544,-0.03173763891384005
1783169857679131600,3.796131591796875,-0.0011672902137041092,0.0771153883844614,0.013703311986103653
1783169857689200600,3.80620068359375,-0.07648878091871739,0.12720716076493263,0.034990210969001054
1783169857699270700,3.816270751953125,-0.09262479994446039,0.14142974738478659,0.03808320854827761
1783169857709339600,3.826339599609375,-0.08939443972110747,0.14229016360640526,0.016823051441833378
1783169857719409700,3.83640966796875,-0.10928951901942491,0.12216916659772395,-0.04661583989821374
1783169857729479000,3.84647900390625,-0.13805822512507437,0.10618658456802367,-0.10003018083013594
1783169857739548700,3.856548583984375,-0.013747662584483622,0.07996142546534538,-0.14348755669742821
1783169857749618000,3.866617919921875,-0.005310673628747463,0.02360825460255146,-0.1680135106667876
1783169857759687700,3.876687744140625,-0.034333646756410596,0.039461657294631004,-0.14580379775054753
1783169857769756700,3.886756591796875,-0.03535480649769306,0.09200199187099933,-0.15571370880305765
1783169857779826700,3.89682666015625,-0.05576105018854141,0.09356675696969032,-0.12702354782633482
1783169857789896700,3.906896728515625,-0.0874962048843503,0.06912555867433548,-0.09171469936221838
1783169857799965700,3.916965576171875,-0.08160802362859249,0.06104278998374939,-0.08920373945459723
1783169857810035700,3.92703564453125,-0.07262275314033032,0.06259528012275696,-0.12312763636633753
1783169857820105000,3.93710498046875,-0.034762393562495705,0.029395021310448646,-0.19718297959305345
1783169857830174700,3.9471748046875,-0.014789280591905115,0.039811785906553265,-0.18475370613075792
1783169857840243700,3.95724365234375,-0.017418752312660216,0.008254618126153945,-0.1366075879253447
1783169857850313700,3.967313720703125,0.014400865796208381,0.050292263388633726,-0.05750014894083142
1783169857860382700,3.9773828125,-0.04285714495182037,0.11349310818910598,-0.03706022217608988
1783169857870452700,3.98745263671875,0.00970657050013542,0.13861235187649726,0.017593524357676506
1783169857880521700,3.997521728515625,0.03528583291471004,0.13414251298606394,-0.041622707786038514
1783169857890591700,4.007591796875,-0.013882687141001224,0.08801146093010902,-0.0016235095486044882
1783169857900660700,4.01766064453125,-0.04494681070744991,0.05062544086575508,-0.008157587492465972
1783169857910730800,4.027730712890625,-0.10079553917944431,0.036837154009938235,-0.025698577945306895
1783169857920799700,4.0377998046875,-0.08502864572703837,0.03782616504728794,-0.04629332994557917
1783169857930869800,4.047869873046875,-0.007105155830085277,0.025559388670325277,-0.07095620816759765
1783169857940939000,4.05793896484375,0.08249474333524703,0.022716274198889733,-0.05863244090639055
1783169857951008800,4.0680087890625,0.0861710937604308,0.04847381578981876,-0.060929758063331244
1783169857961078800,4.078078857421875,0.07033522672504186,0.06726561002135277,-0.0470752741035074
1783169857971147800,4.088147705078125,0.014091945977509021,0.11316519140899181,-0.09168057789690792
1783169857981217800,4.0982177734375,-0.002736439226567745,0.07903963444530963,-0.08845262882634997
1783169857991286800,4.108286865234375,-0.008025777806341648,-0.004051905739307403,-0.05981368658021092
1783169858001356800,4.118356689453125,-0.029585283185541628,-0.038566169759631154,-0.05112886034324765
1783169858011425800,4.12842578125,-0.07557225059568881,-0.063760816770792,-0.0689380002129823
1783169858021495800,4.138495849609375,-0.058822191324830055,-0.03931435777842998,-0.040052316664159295
1783169858031565000,4.14856494140625,-0.03874970963299274,-0.03635024727582931,-0.020925664455071092
1783169858041634800,4.158634765625,-0.018094167356193066,0.05015957691967487,-0.003163432466983795
1783169858051703800,4.168703857421875,0.021463059267401694,0.07370996385514736,-0.023822847201302646
1783169858061773800,4.17877392578125,0.06223609142154455,0.0986217022716999,-0.05860321481190622
1783169858071842800,4.1888427734375,0.12879530673921108,0.11943126606643199,-0.08425137774422764
1783169858081912800,4.198912841796875,0.10326982033848763,0.10277882195115089,-0.11544241562597453
1783169858091981800,4.20898193359375,0.010308628046512603,0.06886369286775589,-0.0663328592158854
1783169858102051800,4.2190517578125,0.02704232070446014,0.07452186475992202,-0.13353285665512085
1783169858112120800,4.229120849609375,-0.05428571693897247,0.047860652327537535,-0.11593721340559422
1783169858122190800,4.23919091796875,-0.03355331003367901,0.05217208578586578,-0.008672843538224697
1783169858132260900,4.2492607421875,-0.022913842597603797,0.04025193088948727,0.009515066516026854
1783169858142329900,4.259329833984375,-0.006593260785192251,0.05310556724369526,-0.039225072059780354
1783169858152400000,4.26939990234375,-0.022634148873388767,0.05810615200996399,-0.08566796654388308
1783169858162468900,4.27946875,0.016259791535884142,0.055558221092820166,-0.15405242452733217
1783169858172539000,4.289538818359375,0.016751812836527824,0.036001872229576105,-0.1448586989201605
1783169858182608000,4.29960791015625,-0.007352554719895124,0.052853053787350654,-0.1245606648441404
1783169858192677600,4.309677734375,0.02954027500003576,0.02740413975417614,-0.09953837872520088
1783169858202747000,4.319746826171875,0.063486676004529,0.02301905653774738,-0.07593830742910504
1783169858212817000,4.32981689453125,0.0656821402221918,0.02530395260453224,-0.06221066471934318
1783169858222886000,4.339885986328125,0.11281652410179376,0.04480477188825607,-0.039599677525833245
1783169858232956000,4.349955810546875,0.10272504593729972,0.10899813485741615,-0.020167758759856224
1783169858243025000,4.36002490234375,0.07964373781830072,0.12431670002043246,0.009140461049973965
1783169858253095000,4.370094970703125,0.16838994276374578,0.14745207641422747,0.018071809393912553
1783169858263164000,4.380163818359375,0.08403905016779899,0.14632102655768395,0.011079685484245419
1783169858273234000,4.39023388671875,0.015801672504842282,0.12792378460168838,-0.04023497975468635
1783169858283302700,4.400302734375,0.011570026284456253,0.0643839171051979,-0.09812960790582001
1783169858293373000,4.410373046875,0.025601766507327556,0.035385201635956764,-0.10258709877133369
1783169858303441700,4.420441650390625,0.00921907924413681,0.0345820685595274,-0.15244265124313533
1783169858313512000,4.430511962890625,-0.03843172972500324,0.03604629589319229,-0.1593993385132402
1783169858323582000,4.44058203125,-0.05343962150365114,0.013744447714090346,-0.14420491118654608
1783169858333651000,4.45065087890625,-0.021566519641876218,0.03351122445762157,-0.1439645996246487
1783169858343721000,4.460720947265625,-0.16064035155028103,-0.003574351355433464,-0.03860518659576773
1783169858353789700,4.470789794921875,-0.04458060774356126,-0.002747252881526947,-0.00351984468922019
1783169858363860000,4.48085986328125,0.06185235280096531,0.07776070055067538,-0.07364427820779383
1783169858373928700,4.4909287109375,0.04214198241978884,0.08676233765184879,-0.10204473552294074
1783169858383999000,4.5009990234375,0.0821279558494687,0.05306523523330688,-0.07590659711658954
1783169858394067700,4.511067626953125,0.09142828363627195,0.06817687964737415,-0.03457710012346506
1783169858404137700,4.5211376953125,0.04899842418581247,0.06827332575917243,-0.032203137533739205
1783169858414206700,4.531206787109375,0.09172054458111524,0.0707891079723835,0.037855829533189535
1783169858424276700,4.54127685546875,0.11153992829471826,0.04282558076977729,0.0203876851208508
1783169858434346000,4.551345947265625,0.07792933511584997,0.05304536148905754,-0.036151363702863454
1783169858444415700,4.561415771484375,0.13730828354060648,-0.007047580423951149,0.005418225656449794
1783169858454485000,4.571485107421875,0.16800211248993874,-0.06100011988580226,-0.0378252151992172
1783169858464554800,4.5815546875,0.09095365186184644,-0.06749240451455116,-0.028300504072010516
1783169858474624000,4.5916240234375,0.0666325728148222,-0.08025017927885054,-0.030683015294373034
1783169858484693800,4.60169384765625,-0.08411445349156856,-0.09203472509682178,0.07697123067341745
1783169858494763800,4.611763671875,-0.01300970369875431,-0.013235913670063017,0.08014496533870696
1783169858504832800,4.621832763671875,0.0144523037225008,0.1251519818007946,0.02401924655623734
1783169858514902800,4.63190283203125,0.04750350945293903,0.14110826034545898,-0.0021061784990131856
1783169858524972000,4.641971923828125,0.03059562927186489,0.09980126744508742,-0.02284063123092055
1783169858535041800,4.652041748046875,0.025725100626051423,0.03140051591396332,-0.07309628893621266
1783169858545111000,4.662111083984375,0.0018774843096733091,0.03864157308340072,-0.06703947311528026
1783169858555180800,4.672180908203125,0.03832067056596279,0.034250644648075104,-0.0399625925540924
1783169858565249800,4.682249755859375,0.04231061698496341,0.05345043515861034,-0.05775960359461605
1783169858575319800,4.69231982421875,-0.06843231571316719,0.06856324861645698,-0.08349003798291087
1783169858585388800,4.702388916015625,-0.08007014653682708,0.10157938303351402,-0.08270838608592748
1783169858595458800,4.712458740234375,-0.07957681006193161,0.09070376875400543,-0.09072963384762406
1783169858605527800,4.72252783203125,0.010747896246612071,0.06666647508442401,-0.10088482489809393
1783169858615598000,4.73259814453125,0.04779577039778232,0.06125497142970562,-0.07940174575597048
1783169858625666800,4.742666748046875,0.04487374547123909,0.07761515460014343,-0.0721251788817346
1783169858635736800,4.75273681640625,0.03364274188280105,0.10268646749258041,-0.0720516021888703
1783169858645805800,4.762805908203125,0.03200637285262346,0.07144844866394996,-0.049618967236950993
1783169858655875800,4.772875732421875,-0.0012286650121212004,0.06077741704583168,-0.04799786884114146
1783169858665944800,4.78294482421875,-0.05658288796544075,0.06723872201442718,-0.052120063337683674
1783169858676014800,4.793014892578125,-0.02328589078038931,0.04323299252688884,-0.03541318562142551
1783169858686084900,4.8030849609375,-0.003926525793969631,0.03815700443685054,-0.08902304912544787
1783169858696153900,4.81315380859375,0.008802315136790275,0.0030669863551855085,-0.09330218774937092
1783169858706223900,4.823223876953125,0.02639233236312866,-0.029814708027243612,-0.045483474867418404
1783169858716292900,4.83329296875,0.01999094088822603,0.013595979154109953,-0.047269481501355765
1783169858726363000,4.84336279296875,0.023159049530327318,0.10009703552126883,-0.050664019310474394
1783169858736431900,4.853431884765625,0.035598259864747524,0.12911094855964184,-0.04866795012243092
1783169858746502000,4.863501953125,-0.013650778081268071,0.1320049164354801,-0.08214651441946626
1783169858756571000,4.87357080078125,-0.045397477084398265,0.0947007294356823,-0.08676182619519532
1783169858766641000,4.883640869140625,-0.05206789475902915,0.045883799296617504,-0.06345189695209265
1783169858776710000,4.8937099609375,-0.07395356335267424,0.0455225647687912,-0.0598101794488728
1783169858786780000,4.90377978515625,-0.08136880804523826,0.05171323610246181,-0.045953211271017785
1783169858796849000,4.913848876953125,-0.06540449232459068,0.11944587911367416,-0.07073043658770621
1783169858806919000,4.9239189453125,-0.04767302080094814,0.15458558155596255,-0.11793693585544823
1783169858816987600,4.933987548828125,0.015139116942882537,0.1387888774871826,-0.07097074814960361
1783169858827058000,4.944057861328125,0.07386720024347306,0.1070657054901123,-0.06874985722973942
1783169858837126700,4.954126708984375,0.01555938818156719,0.1571802742242813,-0.13190240590907631
1783169858847197000,4.964197021484375,0.030930121923238036,0.09783844293951988,-0.09387465387508273
1783169858857266000,4.974265869140625,0.031870179252326485,0.007657236754894256,-0.09767024676576257
1783169858867335700,4.984335693359375,-0.07230828036367892,-0.02246668335199356,-0.0868326994743198
1783169858877406000,4.994406005859375,-0.06773658853396773,-0.02626081493794918,-0.04760295123942196
1783169858887474700,5.004474609375,-0.07612330860719084,-0.03917991774380207,-0.029570085616409777
1783169858897545000,5.014544921875,-0.0318324775904417,0.0032370822250843046,-0.10125935729891061
1783169858907613700,5.02461376953125,0.008344049975275993,0.024603695380687712,-0.05576762605980038
1783169858917683700,5.03468359375,0.037872050015628336,0.06498948178291321,-0.06749218531884253
1783169858927752700,5.044752685546875,0.05049699218049645,0.1007692356944084,-0.05144567120745778
1783169858937822700,5.05482275390625,0.04943257781937718,0.122532739213109,-0.0324717984072864
1783169858947892000,5.06489208984375,0.056512599208205935,0.13276245680451393,-0.01664762180969119
1783169858957961700,5.074961669921875,-0.012285481077432632,0.10564940895140171,-0.08344736788496375
1783169858968031000,5.085031005859375,-0.011688099706172942,0.06859364375472068,-0.09774864576421677
1783169858978100700,5.095100830078125,0.04663490992486476,-0.02699497443139553,-0.09076813922710716
1783169858988170000,5.105169921875,0.03993687359094619,-0.03831833247840404,-0.10602788687497376
1783169858998239700,5.11523974609375,-0.00983516531586647,0.015868600261211393,-0.12717837306186555
1783169859008309000,5.12530908203125,-0.045512627896666526,0.08713993879258632,-0.101561701246351
1783169859018378800,5.135378662109375,-0.053191345831006764,0.07463701557219028,-0.01049465213790536
1783169859028447700,5.14544775390625,-0.012162585350126027,0.10969371590614319,0.006962021032348275
1783169859038518000,5.15551806640625,-0.01917173345983028,0.13364976103305815,-0.02269749643318355
1783169859048586800,5.165586669921875,0.021335633495450017,0.1299351244240999,-0.07129786121211945
1783169859058657000,5.175656982421875,0.025353052443265914,0.0824047269642353,-0.1446059662681073
1783169859068725800,5.185725830078125,0.06833879221081733,-0.0016547814697027206,-0.1707345331285149
1783169859078796000,5.195796142578125,0.03958265332579612,-0.06767711343169212,-0.12478102959655224
1783169859088865800,5.20586572265625,0.02790332144796848,-0.0998334161490202,-0.04214490502923727
1783169859098934800,5.215934814453125,-0.005516133072972297,-0.06360533394813538,0.031625264580547804
1783169859109004800,5.2260048828125,-0.01935878046452999,-0.00791325734257698,0.06451930698789655
1783169859119073800,5.23607373046875,-0.00024316110610961912,0.056709729215502734,0.050981341631337995
1783169859129144000,5.24614404296875,0.0320046192869544,0.09809563257098197,0.005012640530243515
1783169859139212800,5.256212890625,0.08107917744889855,0.0986608652383089,-0.04553578957654535
1783169859149282800,5.26628271484375,0.11520780315250158,0.10009645099937915,-0.09565240413732826
1783169859159351800,5.276351806640625,0.1203676701337099,0.09646189388930797,-0.06045322659276425
1783169859169421800,5.286421875,0.0857072756409645,0.11877601702809333,-0.10595197209455072
1783169859179490800,5.29649072265625,0.06708528501838446,0.12082593529522419,-0.06151281864829361
1783169859189560800,5.306560791015625,0.07531476870328188,0.12645254300534725,-0.0839290869873017
1783169859199629800,5.3166298828125,0.07935776048377156,0.09196516699194908,-0.22271445734314618
1783169859209699800,5.326699951171875,0.05201309583187103,0.010465864434838294,-0.11776727837696671
1783169859219766800,5.336766845703125,-0.0692114833921194,-0.0004939209967851639,-0.06712021020129323
1783169859229837000,5.346837158203125,-0.0009206219762563705,-0.005101707053184509,-0.03845248025208711
1783169859239905800,5.35690576171875,0.04328530723601579,0.002330488774180412,-0.04022416609972715
1783169859249975800,5.366975830078125,0.01918663876801729,-0.013425883284211158,-0.00508672867976129
1783169859260044800,5.377044921875,0.027872341787815093,0.005960954231023788,-0.022589506014063954
1783169859270114800,5.38711474609375,0.06698065560013056,0.03218319072425365,-0.08078874313496053
1783169859280183800,5.397183837890625,0.042700200824439524,0.032004327026009555,-0.04205116233117878
1783169859290253800,5.40725390625,0.08240969540029763,0.057924950224161144,-0.01866027680635452
1783169859300323800,5.41732373046875,0.04047112659811973,0.12757190242409705,-0.07737659660391509
1783169859310392800,5.427392822265625,0.022912673553824422,0.11054945595264434,-0.03885083191990852
1783169859320462800,5.437462890625,0.003967150065302848,0.10333528679013251,-0.03526310962624848
1783169859330531800,5.44753173828125,-0.022713059328496456,0.07488660641908645,-0.008015548673272132
1783169859340601900,5.457601806640625,-0.04385886934027076,0.04928337860703468,-0.041337826430052516
1783169859350670800,5.4676708984375,0.005841711765527725,0.010704349365830422,-0.07398125507719815
1783169859360740900,5.477740966796875,0.014932342324405908,0.019744564911723137,-0.1335089643228799
1783169859370809900,5.487809814453125,0.04465016584843397,-0.0027630349725484846,-0.15633870883360504
1783169859380880000,5.4978798828125,0.07359715113043784,0.03493570430278778,-0.11407638796977698
1783169859390948900,5.507948974609375,0.014774375283718109,0.06084346801936626,-0.08887801463156939
1783169859401019000,5.518018798828125,-0.02258651033937931,0.06378770477771759,-0.04403583334237337
1783169859411088000,5.528087890625,0.005122749841213226,0.03726736212074756,-0.019636866753548383
1783169859421158000,5.538157958984375,0.034785482177138324,0.01617722781896591,0.028419527341797948
1783169859431226600,5.5482265625,0.06387772114872932,0.005962707796692848,0.044600919879227874
1783169859441297000,5.558296875,0.05086655614525079,0.013114917638897895,0.044137320955470204
1783169859451366000,5.568365966796875,0.016639584633707998,0.01334346569776535,0.03972710329778492
1783169859461436000,5.578435791015625,0.057195466905832285,0.051476504737138745,-0.01135842936038971
1783169859471505000,5.5885048828125,0.12632511723339557,0.09292787454426288,-0.11410320291146635
1783169859481574700,5.59857470703125,0.08712269539684056,0.09951718980669974,-0.17107472486831246
1783169859491644000,5.608643798828125,-0.029449381846189497,0.03705108902156353,-0.21466164539940655
1783169859501713700,5.618713623046875,-0.011137772347033023,-0.11454875472187995,0.012954466380178928
1783169859511784000,5.628783935546875,0.04072159422785043,-0.16148293985426426,0.1395185800012201
1783169859521852700,5.638852783203125,-0.03256955969333648,-0.038620530295372005,0.07976137284860015
1783169859531923000,5.6489228515625,-0.09647884502410888,0.06880348711311816,0.007293956400454044
1783169859541992000,5.658991943359375,0.010486030440032481,0.08236147234439849,-0.03042443742342293
1783169859552061700,5.669061767578125,0.094785192848742,0.08289923248291015,-0.1273981532923877
1783169859562131000,5.679130859375,0.09422112922519445,0.036655952224135396,-0.1424854669827968
1783169859572200700,5.68920068359375,0.06275368555486202,0.05205635045170784,-0.11476064390689134
1783169859582270000,5.69927001953125,0.0482803390443325,0.07793547259569168,-0.05899046056382358
1783169859592339700,5.709339599609375,0.04646130692362785,0.09076806616187096,-0.03219356598779559
1783169859602409000,5.719408935546875,0.03148176445662975,0.10713175646364688,-0.02329071308597922
1783169859612478700,5.729478759765625,0.02257306633591652,0.08242460070848465,0.004678659335523844
1783169859622548000,5.7395478515625,0.02221796928793192,0.08888239854574204,-0.0593085866022855
1783169859632618000,5.749617919921875,0.06097556996643543,0.05857260047793388,-0.16502784591950476
1783169859642686700,5.759686767578125,0.1099894839823246,-0.0324818814098835,-0.15520904721654952
1783169859652757000,5.769757080078125,0.030797873845696447,-0.01915712041258812,-0.13624364998377858
1783169859662825700,5.77982568359375,-0.013511515741050242,0.016273673930764197,-0.058414487306773656
1783169859672896000,5.78989599609375,-0.055740884183347224,0.05488952805101871,0.019480653278529644
1783169859682964700,5.79996484375,-0.04760170913040638,0.11289338873028755,0.03488273200653493
1783169859693035000,5.810034912109375,0.0606871084138751,0.14624503871202468,-0.05985263035111129
1783169859703103700,5.820103759765625,0.12297580680549144,0.13183365152180193,-0.06346132236756384
1783169859713173800,5.830173828125,0.15229776287972926,0.08575403739213942,-0.09420512793846428
1783169859723244000,5.840244140625,0.13013181603997945,0.07000643316209317,-0.11087123525291681
1783169859733312800,5.850312744140625,0.06096124918013811,0.04014788599312305,-0.04641125723682344
1783169859743383000,5.860383056640625,0.014680267259478567,0.03475391799509525,0.021508651974797247
1783169859753451800,5.87045166015625,0.030179157425463198,0.00871580589711666,0.031263007139414545
1783169859763521800,5.880521728515625,0.03296791136115789,0.04863397478759288,-0.07862813103497028
1783169859773590800,5.8905908203125,0.022929040166735647,0.027262100934982297,-0.13261997959390281
1783169859783660800,5.900660888671875,0.046997021235525606,-0.058823944890499115,-0.08627280056923628
1783169859793729800,5.910729736328125,0.038486674782633776,-0.046322190713882445,-0.04970211547575891
1783169859803799800,5.9207998046875,0.007469605228304863,0.014805354943871498,-0.01624284040108323
1783169859813868800,5.930868896484375,-0.011224866108596325,0.10079670822322367,0.05790609939321875
1783169859823938800,5.940938720703125,-0.022412030555307865,0.16182196255028247,0.049566652527824044
1783169859834007800,5.9510078125,-0.007998597538471222,0.18550678952038288,0.019956965553388
1783169859844077800,5.961077880859375,0.0066810851991176605,0.1204594400703907,-0.02367489009797573
1783169859854147000,5.97114697265625,0.06440788250267505,0.08619476689696312,-0.08796418772228061
1783169859864216800,5.981216796875,0.1216530337691307,0.057608139359951016,-0.17718268635459244
1783169859874285800,5.991285888671875,0.06505173336416482,0.06790741505622863,-0.20198343867734073
1783169859884355800,6.00135595703125,0.05255114823132753,0.05350947186946869,-0.16997545838952063
1783169859894424300,6.01142431640625,0.034059213729202745,0.03356266238391399,-0.13387845522239802
1783169859904494300,6.021494384765625,0.006499883413314819,0.05931845040917396,-0.07245126903094351
1783169859914564000,6.031564208984375,-0.01716097815930843,0.05391337649524212,0.0025099369943141934
1783169859924633300,6.04163330078125,-0.011239186894893645,0.031121114450693127,0.05978168400675058
1783169859934703000,6.051703125,-0.030654665982723234,0.024279285731911657,0.01383168760612607
1783169859944772400,6.0617724609375,-0.06209960556030273,-0.003940262058377266,-0.033582609193399546
1783169859954842400,6.07184228515625,-0.032435704180598254,-0.011830138525366782,-0.08626403274089098
1783169859964911000,6.0819111328125,0.013961013074219226,-0.02514671621620655,-0.11838541027531027
1783169859974981400,6.0919814453125,0.001647182685136795,-0.011215221497416496,-0.11870872394554316
1783169859985050000,6.102050048828125,-0.029298575198650357,-0.0009486790269613265,-0.07376943895742297
1783169859995120400,6.112120361328125,-0.009225801245868205,0.03921908071041107,-0.030178792099282144
1783169860005189000,6.122189208984375,-0.016048048481345174,0.09871171864271164,-0.07175166939422488
1783169860015259400,6.13225927734375,0.04863280574381351,0.10233575435876846,-0.08569974992163479
1783169860025328000,6.142328125,0.0895288797557354,0.07357435477674007,-0.09951580156721174
1783169860035398100,6.152398193359375,0.016048048481345174,0.06259060394763946,-0.11938428511954843
1783169860045467100,6.162467041015625,-0.029127310284972188,0.04784662380218505,-0.1009493415016681
1783169860055537200,6.172537109375,-0.07147007597386837,0.04480126475691795,-0.06295081556215881
1783169860065606100,6.182606201171875,-0.13000731287747622,0.05443184741139412,-0.0699364366658032
1783169860075676200,6.19267626953125,-0.07409691734611988,0.05447977820634842,-0.07516673853471875
1783169860085745400,6.202745361328125,-0.017312369328737257,0.05804769982099533,-0.10056202268451452
1783169860095815200,6.212815185546875,-0.014494973820447921,0.05756546926200389,-0.061391822617128486
1783169860105885200,6.22288525390625,0.07371931620538234,0.08293138118684291,-0.07480345818027853
1783169860115954200,6.2329541015625,0.08220657404363155,0.1010398693293333,-0.10779394669942557
1783169860126024200,6.243024169921875,0.027951252242922782,0.10861761110723019,-0.103624844321236
1783169860136093200,6.25309326171875,0.0218681329369545,0.03907470380365848,-0.07628076419122516
1783169860146163200,6.2631630859375,0.046188335201144216,-0.019552841731905937,-0.05882314117290079
1783169860156232200,6.273232177734375,-0.03514700896590948,-0.02216682362258434,-0.08898337470218538
1783169860166302200,6.28330224609375,-0.12610007630586623,-0.03991349271535873,-0.028557839833945033
1783169860176371500,6.293371337890625,-0.02786415848135948,0.009893032982945442,0.019396189865469933
1783169860186441200,6.303441162109375,0.030813071414828298,0.11053893455862998,0.021541458265855906
1783169860196510200,6.31351025390625,0.10497194808125496,0.21302198843359946,0.012753536980599164
1783169860206580200,6.323580322265625,0.1414884918347001,0.2881692916154861,-0.02823255340233445
1783169860216649200,6.333649169921875,0.12234686125218867,0.2644406255036592,-0.07945807905308902
1783169860226719200,6.34371923828125,0.06846972511410712,0.16948738261163235,-0.10835603756159544
1783169860236788200,6.353788330078125,0.01112228251695633,0.1090180086016655,-0.14199446859546005
1783169860246858200,6.363858154296875,-0.05618950473368167,0.03795826699435711,-0.12103300217464566
1783169860256927200,6.37392724609375,-0.10983896959573029,-0.008194412371516227,-0.12583631080314517
1783169860266997200,6.383997314453125,-0.08956248976439236,-0.039454058510065074,-0.10148505581356584
1783169860277066200,6.394066162109375,0.01806640256643295,-0.030842297509312628,-0.07540690396614372
1783169860287136300,6.40413623046875,0.05179565368890762,0.009925766208767891,-0.04695888118222356
1783169860297205200,6.414205322265625,0.052370238706469535,0.043160511812567706,-0.017004910814762113
1783169860307275300,6.424275146484375,0.05884148054718971,0.09765139593482017,-0.03765840726494789
1783169860317345000,6.434344970703125,0.010164251139760017,0.10558744963109493,-0.05909867017865181
1783169860327414300,6.444414306640625,0.009438859474658966,0.06289747793972492,-0.031046003387868403
1783169860337484000,6.454484130859375,0.02815028194636106,0.05288987866640091,-0.0320383754260838
1783169860347553300,6.46455322265625,-0.004826689504086971,0.08874620494544505,-0.08378697510287166
1783169860357623300,6.474623291015625,0.0542103136152029,0.11739537632465362,-0.1758445696186274
1783169860367692300,6.4846923828125,-0.04055763583779335,0.037509938704967494,-0.1350934570353478
1783169860377762300,6.49476220703125,-0.09009469694495201,0.002037058785557747,-0.1329005501009524
1783169860387831300,6.504831298828125,-0.06351122592389583,0.006228080734610557,-0.10672850942499935
1783169860397901300,6.5149013671875,-0.03474398112297058,0.06534311752617358,-0.029901874854043123
1783169860407970300,6.52497021484375,0.031117315058410165,0.10173778846561908,-0.0636892859045416
1783169860418040300,6.535040283203125,0.024506957007944582,0.1198667348742485,-0.06906666809394955
1783169860428109000,6.545109130859375,0.053073418539762496,0.07360474991500378,-0.04763298105150461
1783169860438179300,6.555179443359375,0.06908844153434038,-0.0025929391026496885,-0.05312916731499135
1783169860448248000,6.565248046875,0.047174715889990324,-0.029959669455885886,-0.06882277633547783
1783169860458318300,6.575318359375,0.03928454716205597,-0.02556932554244995,-0.0572138062801212
1783169860468387000,6.585386962890625,-0.010115735822916031,0.011529694274067878,-0.06457322913222015
1783169860478457000,6.59545703125,-0.045587446698546405,-0.006170797589421272,0.01835647155418992
1783169860488526000,6.605526123046875,0.03984656495898962,0.025815409258008,0.05030161573886871
1783169860498596000,6.61559619140625,0.0761263773471117,0.08179565515518188,0.019226824647933245
1783169860508665300,6.625665283203125,0.03637362815141677,0.1442266846269369,-0.07596271121799945
1783169860518735000,6.635735107421875,0.05549012429267168,0.12230886732935904,-0.05616422416195273
1783169860528804400,6.645804443359375,0.062386605808138845,0.07281389179825783,-0.07218297348357737
1783169860538874000,6.6558740234375,0.02076426334828138,0.016258476361632346,-0.07344809804856776
1783169860548944100,6.665944091796875,-0.033090660957992075,-0.008476736444234847,-0.0627292817659676
1783169860559013000,6.67601318359375,-0.04755027120411396,0.015743512576818466,-0.08873400305099785
1783169860569083100,6.686083251953125,-0.008036883722245692,0.027196634483337402,-0.0907845789052546
1783169860579152100,6.696152099609375,0.01632978803217411,0.03278291018307209,-0.04513604966923594
1783169860589222100,6.70622216796875,0.03563683830946684,0.0627151071101427,-0.08193776703961193
1783169860599291400,6.71629150390625,0.08021744605302811,0.07123626721799373,-0.0680186203457415
1783169860609361200,6.726361083984375,0.077392159499228,0.055662850511074065,0.0018304302975535392
1783169860619430400,6.736430419921875,0.07312310387790202,0.07488134572207927,0.010304828654229641
1783169860629500200,6.746500244140625,0.0014613047242164612,0.09365092812180519,-0.05806684291288256
1783169860639569400,6.7565693359375,0.013390811970829962,0.060065469384193416,-0.024558394934237
1783169860649639200,6.76663916015625,0.0159989486426115,0.030773323926329612,-0.05321509203277528
1783169860659708200,6.776708251953125,-0.025935820767283436,0.006523848810791969,-0.05010265910066664
1783169860669778200,6.786778076171875,-0.03261281431317329,0.03517535827755928,-0.06134783734492957
1783169860679847200,6.79684716796875,0.009958499434590339,0.04304010030329227,-0.06443973894566297
1783169860689917400,6.80691748046875,0.10248831457197666,-0.003892331263422966,-0.029332623598724603
1783169860699986200,6.816986083984375,0.07086188094764947,0.045263037049770354,-0.02804514107145369
1783169860710056200,6.82705615234375,-0.0046361353680491445,0.09231295751631259,-0.05566387342438101
1783169860720125200,6.837125244140625,0.015329671078920363,0.07662380547523498,-0.026476211254298686
1783169860730195200,6.8471953125,-0.01679331389069557,0.07876724724471569,-0.01792611731290817
1783169860740264200,6.85726416015625,-0.011879822885990142,0.08153612743616104,-0.04834127545133233
1783169860750334200,6.867334228515625,0.02261398286819458,0.06885726312696934,-0.04033844012916088
1783169860760404200,6.877404296875,0.006052431906759739,0.07152502103149891,-0.06540894930399954
1783169860770473200,6.88747314453125,0.05698094737231731,0.058519993507862085,-0.08957308422364293
1783169860780543200,6.897543212890625,0.07643792751431465,0.07149170328378678,-0.09267842982783914
1783169860790612200,6.9076123046875,0.07480886500775813,-0.006018237376213074,-0.08149272668585181
1783169860800682200,6.91768212890625,0.050536301277577876,-0.028459201765060425,-0.09833068343587219
1783169860810751200,6.927751220703125,-0.04869301149845123,-0.06971826387047768,-0.049646732026711105
1783169860820821200,6.9378212890625,-0.04914367787539959,-0.06149871705770492,-0.00018755846135318278
1783169860830890200,6.94789013671875,-0.015068682055175303,-0.01908873135149479,-0.12395283514410256
1783169860840960300,6.957960205078125,-0.061222530464828014,0.030555297261476516,-0.11245046726837754
1783169860851029200,6.968029296875,-0.04687164129018783,-0.026446692898869514,-0.08029416455104947
1783169860861099300,6.978099365234375,0.055872693869471544,0.018836217895150182,-0.07596336880512534
1783169860871168300,6.988168212890625,0.04566080419570207,0.10464812295436858,-0.05733779798597097
1783169860881238300,6.99823828125,0.10987637899667024,0.1331342127263546,-0.03987272231355309
1783169860891307000,7.00830712890625,0.09329963046610355,0.10273264472186565,-0.00632065438888967
1783169860901377300,7.018377197265625,0.06324205359369516,0.09120879566669464,-0.00970744728296995
1783169860911446300,7.0284462890625,0.06519757157564163,0.05022504337131977,0.023319427723810075
1783169860921516300,7.038516357421875,0.031438509836792944,0.06193477038741112,0.046747430388629434
1783169860931585300,7.048585205078125,-0.027696400699019432,0.07350128954052924,-0.0327384134542197
1783169860941655000,7.058655029296875,-0.050636839042603965,0.03909808467924595,-0.0025149784956127403
1783169860951724300,7.068724365234375,-0.004583820658922195,0.022308862441778182,-0.04463094969131052
1783169860961794000,7.0787939453125,-0.009251227948069572,-0.006250292566418647,-0.07830299073383212
1783169860971863300,7.08886328125,0.015421441015601157,0.0336450799703598,-0.08188610991761087
1783169860981933000,7.09893310546875,0.08207534887939691,0.0742524001687765,-0.11185637383274734
1783169860992003300,7.10900341796875,0.09547142154723405,0.07603110027909278,-0.09668510818593204
1783169861002072300,7.119072265625,0.06170271519720554,0.08402852877378464,-0.09222747118994593
1783169861012142000,7.12914208984375,0.048474400311708445,0.07269055767953396,-0.04630553184002638
1783169861022211300,7.13921142578125,0.04422901782691478,0.038380876320600506,0.010514525882154702
1783169861032281000,7.149281005859375,0.0001689268261194229,0.05883797341585159,0.06219203308410942
1783169861042350300,7.159350341796875,0.019683190113306045,0.1059936923444271,0.010244622899591922
1783169861052420000,7.169420166015625,-0.006786883661150932,0.1374906543701887,-0.03035882484130561
1783169861062489300,7.1794892578125,0.00253536369651556,0.15934709686934947,-0.02728891587667167
1783169861072559000,7.18955908203125,0.07263561262190342,0.16642565695345402,-0.10281681587398052
1783169861082628400,7.19962841796875,0.09184767809212208,0.13731412875950336,-0.11363061696365474
1783169861092698400,7.209698486328125,0.12921382441222667,0.03893208046257496,-0.07165441956482828
1783169861102767000,7.21976708984375,0.11763093864619731,0.11078852540552615,-0.138340549197793
1783169861112837400,7.22983740234375,0.10874971305429935,0.059847442719340324,-0.024232450915500522
1783169861122906000,7.239906005859375,0.06543313389718532,0.027546763095259663,-0.013536504051834344
1783169861132976400,7.249976318359375,-0.025243162328004835,-0.03644961599707603,-0.13332220957912505
1783169861143045000,7.260045166015625,0.02333323705345392,-0.10013035326898097,0.07816811230778693
1783169861153115400,7.270115478515625,-0.03782499600350857,-0.01424362940788269,-0.018674816788360474
1783169861163184000,7.28018408203125,-0.07468173149675131,-0.09186462922692298,-0.03886317994482815
1783169861173254100,7.290254150390625,0.008162263667583465,-0.054606034934520715,0.041040889310091734
1783169861183323100,7.3003232421875,-0.019532967987656594,0.002737316009402275,0.01888042236305773
1783169861193393200,7.31039306640625,0.002459375850856304,0.06533551874160766,-0.03772212015092373
1783169861203462100,7.320462158203125,0.01285889705121517,0.037621582385897634,-0.07384155434556305
1783169861213532200,7.3305322265625,0.05423983197063207,-0.0009539397239685058,-0.07458689282014966
1783169861223602200,7.340602294921875,0.07886369335651397,0.01648234824538231,-0.10190145459473132
1783169861233671200,7.350671142578125,0.03707242407053709,0.021615034958720206,-0.07099515193849802
1783169861243741200,7.3607412109375,-0.0009995324313640593,0.02817044795155525,-0.10988061678037046
1783169861253810200,7.37081005859375,-0.047289282180368895,0.06137596746087074,-0.06788191528879106
1783169861263880200,7.380880126953125,-0.10081278257519007,0.06760580176115036,-0.051738297478482125
1783169861273949200,7.39094921875,-0.05040478385239839,0.08090718188285827,-0.06697298375032842
1783169861284019200,7.401019287109375,-0.03464168979227543,0.12474398552179336,-0.10588307157680392
1783169861294088200,7.411088134765625,0.036523265755176545,0.11338730972707271,-0.07845270140282809
1783169861304158200,7.421158203125,0.04519523251056671,0.11430325552821159,-0.05721563291102647
1783169861314227200,7.431227294921875,0.029974867025017737,0.08719371480643749,-0.08147972107380629
1783169861324297200,7.441297119140625,0.06633242082446814,0.08295417754054069,-0.043086350597813725
1783169861334366200,7.4513662109375,-0.002627425894141197,0.07325403678119183,-0.033513489479944106
1783169861344436200,7.461436279296875,-0.03668284023106098,0.06028291152715683,-0.05373867751546204
1783169861354505200,7.471505126953125,-0.02088555164039135,0.06079962887763977,-0.01510923326127231
1783169861364575200,7.4815751953125,-0.05833119293749332,0.09175006293654442,-0.10263407971821725
1783169861374644200,7.491644287109375,-0.022872049282491206,0.0968090998917818,-0.05523132722601294
1783169861384714200,7.50171435546875,-0.04239157326668501,0.11462006639242171,-0.08013853559792042
1783169861394783200,7.511783203125,-0.0035252515166997907,0.05796411319077015,-0.04623173595145345
1783169861404853000,7.52185302734375,0.11170973190367221,0.034032033461332316,-0.007897621382027865
1783169861414922200,7.531922119140625,0.08646569279283285,0.052363224443793294,-0.11325031240917742
1783169861424992300,7.5419921875,0.00786269619911909,0.03095978640913963,-0.06300554142408073
1783169861435061200,7.552061279296875,0.01939677438735962,0.01644260075688362,-0.009925547013059258
1783169861445131300,7.56213134765625,-0.047397126469016074,0.05754910264909267,-0.055205754393339156
1783169861455200300,7.5722001953125,-0.07101064176857472,0.07914777099490165,-0.006843582284450531
1783169861465270300,7.582270263671875,-0.06891659209877252,0.08359305996596812,-0.04514554814994335
1783169861475340000,7.592340087890625,0.0041328620210289956,0.053585459715127945,-0.06642185267359017
1783169861485409300,7.6024091796875,0.032680618852376934,0.031280688926577566,-0.07636551986522973
1783169861495479000,7.61247900390625,0.004807692542672157,0.0485503881573677,-0.06748809366561472
1783169861505548300,7.62254833984375,0.03455459603071213,0.05327040241658687,-0.13366912332065403
1783169861515618300,7.632618408203125,-0.02476414663940668,0.03632686640024185,-0.09031571928448974
1783169861525687300,7.642687255859375,-0.06571282762140035,0.05510054045319557,-0.0605041530624032
1783169861535757300,7.65275732421875,-0.0728738052919507,0.06637129153013228,-0.018736922239139676
1783169861545826300,7.662826416015625,-0.04230477176606655,0.07363339148759841,0.011557020672410726
1783169861555896300,7.672896240234375,-0.0023459786042571065,0.08888181402385234,0.01927439011670649
1783169861565965000,7.682965087890625,-0.005503858113288879,0.09647066171765327,-0.025787133011594413
1783169861576035300,7.693035400390625,-0.018540742079913616,0.09055880732536316,-0.03305734321027994
1783169861586104000,7.70310400390625,0.01864157210588455,0.05996200900971889,-0.047057373120635744
1783169861596174300,7.71317431640625,0.008561492118239403,0.043240006789565084,-0.07599281409531831
1783169861606243000,7.7232431640625,-0.054447629502415655,0.07059095505177974,-0.10376892896704375
1783169861616313300,7.733313232421875,-0.03435176693499088,0.11708499520123004,-0.08118979821652174
1783169861626382000,7.743382080078125,-0.018120178580284117,0.09633797524869442,-0.08839636859446763
1783169861636452000,7.7534521484375,-0.015171557907760142,0.041782209196686744,-0.06644881374575197
1783169861646521300,7.763521240234375,-0.010435761557519435,0.044674423506855965,-0.08130772550776601
1783169861656591000,7.773591064453125,-0.030744682353734967,0.0285123932570219,-0.04968494514524936
1783169861666660400,7.783660400390625,-0.007462883226573467,0.041429742497205733,-0.04409523537941277
1783169861676730000,7.793730224609375,0.024025310970842838,0.07055997539162635,-0.01754230562709272
1783169861686799400,7.80379931640625,0.007371405550837516,0.08510229548513888,-0.0396121716812253
1783169861696869000,7.813869140625,0.03292085734903812,0.06517769783139228,-0.00792998928166926
1783169861706939100,7.823939208984375,0.05884148054718971,0.05459902067184448,0.011469123193249105
1783169861717008100,7.834008056640625,-0.015633622461557386,0.06812719528675079,-0.03517294712476432
1783169861727078100,7.844078125,-0.009940963777899742,0.05812953288555145,-0.01344473411515355
1783169861737147400,7.8541474609375,-0.016167290946841238,0.04803893150389194,-0.028065745468065142
1783169861747217200,7.864217041015625,0.0004728782087564468,0.036951135778427124,-0.03428425465673208
1783169861757286400,7.874286376953125,-0.011748013199865818,0.009573884031176566,-0.06174765031747519
1783169861767356200,7.884356201171875,-0.012559329582750797,0.024983050087094307,-0.07363068807385861
1783169861777425400,7.89442529296875,0.00934065979719162,0.017162147203087806,-0.05166720500364899
1783169861787495200,7.9044951171875,-0.01271861179769039,0.02717266908586025,-0.07764628039076923
1783169861797564200,7.914564208984375,-0.01270078388005495,0.07890460988879203,-0.07696370495408773
1783169861807634200,7.92463427734375,-0.03534516188651323,0.08873276094198226,-0.038152474392205475
1783169861817703200,7.934703125,0.008657353708148002,0.11704641675651073,-0.022458500045537948
1783169861827773400,7.9447734375,0.017284896799921987,0.10460603737831115,-0.058269087486714125
1783169861837842200,7.95484228515625,0.058502750112116336,0.06614215894937515,-0.03414009694568813
1783169861847912200,7.964912109375,0.052851300221681594,0.027674773389101025,-0.05476370971426368
1783169861857981200,7.974981201171875,0.01770312221199274,0.031330373287200924,-0.07773995002359152
1783169861868051200,7.98505126953125,-0.007898059773445128,0.009835749837756156,-0.028839506319537758
1783169861878120200,7.9951201171875,-0.03218114489763975,0.011979776129126547,-0.012426935374736785
1783169861888190200,8.005190185546875,-0.033353695808351035,0.048100306302309034,-0.004389028739184141
1783169861898259500,8.015259521484374,0.02375058568269014,0.06240297242105007,-0.0044768531531095505
1783169861908329200,8.0253291015625,0.008017302238941192,0.07638590506613255,-0.05085420812033117
1783169861918398500,8.0353984375,0.059391515645384786,0.032329905718564984,-0.007121668573468923
1783169861928468200,8.04546826171875,0.06471680232137442,0.06032207449376583,-0.04368263599053025
1783169861938537500,8.055537353515625,0.038428807115554804,0.0502455016374588,-0.07712934384457766
1783169861948607500,8.065607421875,0.02540887428373098,0.010180033230781555,-0.022279051825404166
1783169861958676200,8.07567626953125,-0.0012947159856557845,0.044434769532084466,-0.007893383598327636
1783169861968746500,8.08574658203125,-0.0053352235481143,0.013850246176123618,-0.0058200113903731105
1783169861978816300,8.095816162109376,0.000933189196884632,0.03959025211036205,0.024151202372834087
1783169861988885500,8.105885498046876,0.003772796536982059,0.045321489238739014,-0.019053221646696327
1783169861998955300,8.115955322265625,0.0033721067816019057,0.04335866473317146,-0.06974186394177377
1783169862009024300,8.126024169921875,0.0522822681620717,0.08885024984180927,-0.09945311159454286
1783169862019094300,8.13609423828125,0.054337154865264886,0.08301204520761966,-0.07536028834544121
1783169862029163300,8.146163330078124,0.0864046102553606,0.038460371297597884,-0.08008351747505367
1783169862039233500,8.156233642578124,0.06337094067037105,0.026405191844701765,-0.05637092571519315
1783169862049302300,8.16630224609375,-0.0003127192109823227,0.05294949989914894,-0.077949793381989
1783169862059372500,8.17637255859375,0.02351414657831192,0.060196402287483214,-0.058791576990857713
1783169862069441300,8.186441162109375,0.0347974648758769,0.04266542177200317,-0.01685636918954551
1783169862079511300,8.19651123046875,0.018051497258245945,0.00812719235420227,-0.0023587650205940005
1783169862089580300,8.206580322265625,0.028784195935726165,-0.0027227029621601103,-0.02363433889187872
1783169862099650300,8.216650390625,0.016498130336403845,-0.002347439908981323,-0.013869097007066011
1783169862109719300,8.22671923828125,0.04667991811037063,-0.013263970720767975,-0.0016766279753297566
1783169862119789300,8.236789306640626,0.053047699576616286,0.016933014622330666,-0.026019772723689674
1783169862129858300,8.2468583984375,0.016610650800168512,0.09599661446511745,-0.0426723629694432
1783169862139928300,8.25692822265625,0.020362989071011542,0.08895955543518066,-0.06183510940521955
1783169862149997300,8.266997314453125,0.008879764287173747,0.05815992802381515,-0.08481821784675121
1783169862160067300,8.2770673828125,0.025619302164018153,0.03825695767998695,-0.06139401457421481
1783169862170136600,8.287136474609374,0.015374387003481387,0.00825403360426426,-0.09695055418908595
1783169862180206300,8.297206298828126,0.015861293737590314,0.01877542761862278,-0.04966010296493768
1783169862190275300,8.307275390625,0.017529519210755823,0.05007599028944969,0.014795198876038192
1783169862200345300,8.317345458984375,0.038061142846941946,0.07188041034042834,-0.012418971263989805
1783169862210414300,8.327414306640625,0.05621230108737945,0.09367372447550296,-0.016649886832013724
1783169862220484400,8.337484375,0.03746931443363428,0.09432079020738601,-0.02554791742824018
1783169862230553300,8.34755322265625,0.058737435650825495,0.0571118802756071,-0.0359957347497344
1783169862240623400,8.357623291015624,0.02714607333987951,0.030651743373274802,-0.050872036037966605
1783169862250693400,8.367693359375,0.023625790259242056,0.028553309789299965,-0.07843735770322383
1783169862260762400,8.377762451171876,0.031442309229075906,0.023223054677248,-0.07432619605734944
1783169862270832400,8.387832275390625,0.007176175239682197,0.014025602743029594,-0.10723521683812141
1783169862280901400,8.3979013671875,0.012863573226332664,-0.004057166436314583,-0.08291727959625422
1783169862290971400,8.407971435546875,0.04737549915909767,0.024307927304506302,-0.07563457524217665
1783169862301040400,8.418040283203124,0.05473930592536926,0.03751987557709217,-0.055498965186253184
1783169862311110100,8.428110107421874,0.052425476025044916,0.04929799165427685,-0.03166077428534627
1783169862321179400,8.438179443359376,0.05704933643341064,0.05094985051453113,0.007684124761819839
1783169862331249200,8.448249267578126,0.08741466408073902,0.03804185362458229,0.01918042822293937
1783169862341318400,8.458318359375,0.036873102106153965,0.037864158970117565,0.023985417351871728
1783169862351388400,8.468388427734375,0.01850304041802883,0.04027881889641285,-0.004023994819074869
1783169862361457400,8.47845751953125,0.053798517943918704,0.033172201761603355,-0.00383409827016294
1783169862371527400,8.48852734375,0.05091828633248806,0.027167408388853072,-0.04257883946709334
1783169862381596400,8.498596435546874,0.03486468489319086,0.04878770404458046,-0.046610871462151406
1783169862391666400,8.50866650390625,0.024228432327508924,0.03841770119965076,-0.0016935060448944569
1783169862401735400,8.5187353515625,0.08526888422369956,0.08506137895286082,-0.04030227283723652
1783169862411805400,8.528805419921875,0.09183452634960412,0.13812544514238834,-0.06994820016883313
1783169862421874200,8.538874267578125,0.05458382310271263,0.12653671415746212,-0.08250657990351319
1783169862431944400,8.5489443359375,0.006168459501862526,0.041001872473955155,-0.05577522484436631
1783169862442013200,8.55901318359375,-0.0035977322310209274,0.029530045866966247,-0.03821414145156741
1783169862452083500,8.56908349609375,-0.01391074419170618,0.029761516535282133,-0.06570267155356704
1783169862462152200,8.579152099609376,0.04600158045738935,0.03427461004555225,-0.04767375145331025
1783169862472222200,8.58922216796875,0.07395721661448479,0.06124035838246345,-0.09931289940625429
1783169862482291500,8.59929150390625,0.058602411094307895,0.015947510716319082,-0.11832944230437278
1783169862492361200,8.609361328125,0.039729952841997145,-0.00275017549097538,-0.06534158315621316
1783169862502430500,8.619430419921875,0.05920856029391289,0.028434651845693586,-0.06825783592909575
1783169862512500200,8.629500244140624,0.06687368809431792,0.044188101294636725,-0.05620229115001857
1783169862522569500,8.639569580078126,0.04457359348088503,0.007243979778885841,0.0088578447163105
1783169862532639200,8.64963916015625,0.023207564847171305,0.02427402503490448,0.01751322566308081
1783169862542709200,8.659709228515625,-0.10354922180175781,0.06425064611434936,-0.0892326002229005
1783169862552778200,8.6697783203125,-0.031081951484084127,0.043300212544202805,0.08049429023303091
1783169862562848300,8.67984814453125,0.07454173850417137,0.0425029246866703,-0.00918612682260573
1783169862572917500,8.68991748046875,0.010825053136050701,0.0730371791601181,-0.0009792933609336614
1783169862582987300,8.6999873046875,-0.047076808473467825,0.04221183278560638,-0.03809511818177998
1783169862593056500,8.710056396484376,-0.03327215500473976,0.018187398597598076,-0.013874138508364558
1783169862603126300,8.720126220703126,-0.0048000937581062315,0.0013017302483320236,-0.06540200810655951
1783169862613195500,8.730195556640625,0.010565233156085013,-0.011648936739563942,-0.06699241910316049
