time,seconds_elapsed,z,y,x
1783169853963472600,0.08047265625,-0.1749061644077301,0.1124705970287323,0.007671849336475134
1783169853973542700,0.090542724609375,-0.157992422580719,0.05698790028691292,0.027240756899118423
1783169853983611600,0.100611572265625,-0.1523839682340622,0.04227515310049057,0.05811512842774391
1783169853993681700,0.110681640625,-0.15377680957317352,0.02956974506378174,0.0884205624461174
1783169854003750700,0.120750732421875,-0.1492163985967636,0.0011134720407426357,0.10197918862104416
1783169854013820700,0.130820556640625,-0.13038358092308044,-0.04061000794172287,0.11398311704397202
1783169854023889700,0.1408896484375,-0.10739338397979736,-0.06396736204624176,0.1276586651802063
1783169854033959700,0.150959716796875,-0.07294725626707077,-0.06522410362958908,0.1268695741891861
1783169854044028400,0.1610283203125,-0.03236246481537819,-0.058784082531929016,0.10083236545324326
1783169854054098700,0.1710986328125,0.0033483952283859253,-0.0862191691994667,0.08606301248073578
1783169854064167400,0.18116748046875,0.01705135591328144,-0.0713079571723938,0.0940721407532692
1783169854074237700,0.19123779296875,0.0107902642339468,-0.06563782691955566,0.11856842786073685
1783169854084307700,0.2013076171875,-0.02738461270928383,-0.04650142416357994,0.12754647433757782
1783169854094376400,0.21137646484375,-0.05072322487831116,-0.03766265884041786,0.102193184196949
1783169854104446700,0.22144677734375,-0.06641239672899246,-0.04823046922683716,0.0498562790453434
1783169854114515500,0.231515380859375,-0.05918963626027107,-0.05667908117175102,0.02218070812523365
1783169854124585700,0.241585693359375,-0.046694736927747726,-0.03783164918422699,0.023045163601636887
1783169854134654500,0.251654541015625,-0.0411074236035347,-0.00036310311406850815,0.010115783661603928
1783169854144724500,0.261724365234375,-0.03484790027141571,0.03203905001282692,-0.013372361660003662
1783169854154793500,0.27179345703125,-0.031983938068151474,0.03156367689371109,-0.044452518224716187
1783169854164863500,0.281863525390625,-0.032918237149715424,0.01715489849448204,-0.04832316190004349
1783169854174932500,0.291932373046875,-0.034919336438179016,0.01865052804350853,-0.04344611614942551
1783169854185002500,0.30200244140625,-0.03781682252883911,0.03200735151767731,-0.016796259209513664
1783169854195072800,0.31207275390625,-0.024166792631149292,0.03401164710521698,-0.005395798943936825
1783169854205141500,0.3221416015625,-0.008205493912100792,0.020109929144382477,-0.016178011894226074
1783169854215211500,0.33221142578125,-0.004167342092841864,0.003910986706614494,-0.021254263818264008
1783169854225280500,0.342280517578125,-0.004479936324059963,-0.011329473927617073,-0.02347506769001484
1783169854235350500,0.3523505859375,-0.007343100383877754,-0.03231118619441986,-0.014921528287231922
1783169854245419500,0.36241943359375,-0.018199020996689796,-0.030834879726171494,-0.006508808117359877
1783169854255489500,0.372489501953125,-0.02953875996172428,-0.025492843240499496,0.007236831355839968
1783169854265558500,0.38255859375,-0.03576761111617088,-0.02739580161869526,0.005978423170745373
1783169854275628500,0.392628662109375,-0.024512028321623802,-0.024079369381070137,-0.006380775012075901
1783169854285697800,0.40269775390625,-0.009029429405927658,-0.024358324706554413,-0.010651350021362305
1783169854295767600,0.412767578125,-0.002371260430663824,-0.018364615738391876,-0.017888490110635757
1783169854305837600,0.422837646484375,-0.001531688729301095,-0.013945123180747032,-0.024237211793661118
1783169854315906600,0.432906494140625,-0.0010954628232866526,-0.004008335992693901,-0.038060083985328674
1783169854325976600,0.4429765625,0.002178042661398649,0.013178147375583649,-0.03769587725400925
1783169854336045600,0.453045654296875,0.0027359749656170607,0.01601041853427887,-0.030339960008859634
1783169854346115600,0.463115478515625,-0.002960945712402463,0.01841096393764019,-0.03296385332942009
1783169854356184600,0.4731845703125,-0.012880154885351658,0.01924719661474228,-0.030835185199975967
1783169854366254600,0.483254638671875,-0.01495851669460535,0.02139636129140854,-0.03271152079105377
1783169854376323600,0.493323486328125,-0.020384173840284348,0.012962929904460907,-0.026639245450496674
1783169854386393600,0.5033935546875,-0.01788530871272087,-0.007835638709366322,-0.01286262832581997
1783169854396462600,0.513462646484375,-0.02119828201830387,-0.004445699974894524,0.007204822264611721
1783169854406532600,0.52353271484375,-0.016983820125460625,-0.014420218765735626,0.03185908868908882
1783169854416601600,0.5336015625,-0.00612211786210537,-0.023320239037275314,0.03251902014017105
1783169854426671600,0.543671630859375,0.0014464263804256916,-0.02465779148042202,0.029584288597106934
1783169854436741600,0.55374169921875,0.004801210016012192,-0.01190071552991867,0.033265311270952225
1783169854446810400,0.563810302734375,-0.000014219549484550953,-0.005134853534400463,0.04141370207071304
1783169854456880600,0.573880615234375,-0.00877788383513689,-0.014099054038524628,0.0454380065202713
1783169854466949600,0.58394970703125,-0.018871363252401352,-0.012458382174372673,0.04261833056807518
1783169854477019600,0.59401953125,-0.028887510299682617,-0.007060687057673931,0.057933371514081955
1783169854487088600,0.604088623046875,-0.03144248574972153,-0.0022976137697696686,0.06853435188531876
1783169854497158400,0.614158447265625,-0.017528003081679344,-0.0017700409516692162,0.06388101726770401
1783169854507227600,0.6242275390625,0.0030389814637601376,-0.006527125835418701,0.04029958322644234
1783169854517297400,0.63429736328125,0.008792741224169731,-0.008862452581524849,0.033127423375844955
1783169854527366700,0.64436669921875,0.011434582062065601,-0.008562982082366943,0.0316997691988945
1783169854537436400,0.6544365234375,0.02059851959347725,-0.010541977360844612,0.00850097369402647
1783169854547506700,0.664506591796875,0.04386527091264725,-0.025428637862205505,-0.009683553129434586
1783169854557575700,0.67457568359375,0.05962372571229935,-0.021270912140607834,-0.013325691223144531
1783169854567645400,0.6846455078125,0.05851547792553902,-0.021841781213879585,-0.0006741532124578953
1783169854577714700,0.694714599609375,0.055992934852838516,-0.025325993075966835,0.003970665857195854
1783169854587784400,0.704784423828125,0.04922839254140854,-0.035196974873542786,0.005961255636066198
1783169854597853700,0.714853759765625,0.022009020671248436,-0.04201839491724968,0.003854162525385618
1783169854607923500,0.72492333984375,-0.017379503697156906,-0.05990433320403099,0.0262688510119915
1783169854617992700,0.73499267578125,-0.038201961666345596,-0.06418590247631073,0.04128827899694443
1783169854628062500,0.7450625,-0.049827490001916885,-0.04308221861720085,0.02948661334812641
1783169854638131700,0.755131591796875,-0.024121860042214394,-0.03836469352245331,0.009030340239405632
1783169854648201700,0.76520166015625,0.0026365630328655243,-0.02990342490375042,-0.0023423528764396906
1783169854658271500,0.775271484375,0.02566438354551792,-0.0373176634311676,-0.018213460221886635
1783169854668340700,0.7853408203125,0.0444582961499691,-0.04767643287777901,-0.030284706503152847
1783169854678410500,0.795410400390625,0.04577736184000969,-0.051023226231336594,-0.03806992620229721
1783169854688479700,0.805479736328125,0.037928979843854904,-0.04322456568479538,-0.028706051409244537
1783169854698549500,0.815549560546875,0.023922881111502647,-0.045000627636909485,-0.015363085083663464
1783169854708618800,0.82561865234375,-0.0009845676831901073,-0.04941640794277191,-0.00046203029341995716
1783169854718688500,0.8356884765625,-0.012373842298984528,-0.04767896234989166,0.008874479681253433
1783169854728757500,0.845757568359375,-0.018490782007575035,-0.03382478654384613,0.010490691289305687
1783169854738827800,0.855827880859375,-0.013109064660966396,-0.03727251663804054,-0.010469717904925346
1783169854748896500,0.865896484375,-0.005738089792430401,-0.03377740457653999,-0.01917773298919201
1783169854758966800,0.875966796875,-0.0028751918580383062,-0.027724571526050568,-0.0319792814552784
1783169854769035500,0.886035400390625,-0.0034467894583940506,-0.015353623777627945,-0.02341906912624836
1783169854779105500,0.89610546875,-0.008218108676373959,0.0004426497034728527,-0.02883274108171463
1783169854789175600,0.906175537109375,-0.02290186658501625,0.013000492006540298,-0.018458010628819466
1783169854799244500,0.91624462890625,-0.032441575080156326,0.038792937994003296,-0.017905404791235924
1783169854809314600,0.926314453125,-0.03517894074320793,0.059603251516819,-0.026291782036423683
1783169854819383600,0.936383544921875,-0.029473118484020233,0.07310441136360168,-0.03151131048798561
1783169854829453800,0.946453857421875,-0.01109618041664362,0.0861363336443901,-0.045236967504024506
1783169854839522600,0.9565224609375,0.0029783593490719795,0.09086930006742477,-0.03937401995062828
1783169854849592600,0.966592529296875,0.010319904424250126,0.07464911043643951,-0.033063508570194244
1783169854859661600,0.97666162109375,0.013979886658489704,0.04657752066850662,-0.030244283378124237
1783169854869731600,0.986731689453125,0.016685962677001953,0.027917644008994102,-0.025280501693487167
1783169854879800600,0.996800537109375,0.010126329958438873,0.027513641864061356,-0.011670149862766266
1783169854889870300,1.006870361328125,-0.0009227518457919359,0.022849535569548607,0.010610995814204216
1783169854899939600,1.016939697265625,-0.0062376223504543304,0.023637831211090088,0.0068090674467384815
1783169854910009300,1.02700927734375,-0.005141792818903923,0.03355143591761589,-0.012886078096926212
1783169854920079400,1.037079345703125,-0.0030845007859170437,0.05411370098590851,-0.021762393414974213
1783169854930148400,1.0471484375,0.0016547064296901226,0.06038355827331543,-0.02705850638449192
1783169854940218400,1.05721826171875,0.005728810094296932,0.054147765040397644,-0.0377095527946949
1783169854950287600,1.06728759765625,0.002538922242820263,0.041865672916173935,-0.046810831874608994
1783169854960357400,1.077357421875,0.0025218778755515814,0.018282849341630936,-0.04426272213459015
1783169854970426600,1.087426513671875,-0.004667920060455799,0.024740204215049744,-0.03784264624118805
1783169854980496400,1.097496337890625,-0.012743689119815826,0.008363627828657627,-0.014832668006420135
1783169854990565600,1.107565673828125,-0.006949988193809986,0.00020601414144039154,-0.007116466760635376
1783169855000635400,1.117635498046875,-0.0019842577166855335,-0.009101999923586845,-0.024854717776179314
1783169855010704600,1.12770458984375,0.003980393987149,-0.018739186227321625,-0.03504037857055664
1783169855020774400,1.1377744140625,-0.0023262379691004753,-0.022547774016857147,-0.02672439068555832
1783169855030844400,1.147844482421875,-0.011664248071610928,-0.016859427094459534,-0.011630209162831306
1783169855040913700,1.15791357421875,-0.02439842000603676,-0.023778583854436874,0.00009409105405211449
1783169855050983400,1.1679833984375,-0.028460083529353142,-0.028491193428635597,-0.0020976332016289234
1783169855061052700,1.178052734375,-0.027036624029278755,-0.025349197909235954,-0.009380579926073551
1783169855071122400,1.188122314453125,-0.0186590775847435,-0.008442329242825508,-0.016592923551797867
1783169855081191400,1.19819140625,-0.0068074781447649,-0.008738739416003227,-0.02413446269929409
1783169855091261400,1.208261474609375,-0.0004593469202518463,-0.012183679267764091,-0.02431296557188034
1783169855101330400,1.218330322265625,-0.008914616890251637,-0.013415126129984856,-0.01990676298737526
1783169855111400400,1.228400390625,-0.010116169229149818,-0.01897810585796833,-0.01618548110127449
1783169855121469400,1.238469482421875,-0.00374428927898407,-0.019253211095929146,-0.019227610900998116
1783169855131539500,1.24853955078125,0.009630730375647545,-0.01252551656216383,-0.014464404433965683
1783169855141608400,1.2586083984375,0.013706432655453682,-0.012681311927735806,-0.011874746531248093
1783169855151678500,1.268678466796875,0.012748662382364273,-0.01828097552061081,-0.011945774778723717
1783169855161747500,1.27874755859375,0.004281140863895416,-0.02924920618534088,-0.011998504400253296
1783169855171817500,1.2888173828125,-0.011606350541114807,-0.019969845190644264,-0.012731081806123257
1783169855181887500,1.298887451171875,-0.01564876176416874,-0.011738279834389687,-0.022552821785211563
1783169855191956500,1.30895654296875,-0.02123643271625042,-0.008268730714917183,-0.031046317890286446
1783169855202026200,1.319026123046875,-0.019633742049336433,-0.010372094810009003,-0.03821607679128647
1783169855212095500,1.329095458984375,-0.01349950022995472,-0.0212824996560812,-0.03440694510936737
1783169855222165500,1.33916552734375,-0.011495737358927727,-0.020363708958029747,-0.018046079203486443
1783169855232234500,1.349234375,-0.017540795728564262,-0.029839010909199715,-0.009976854547858238
1783169855242304500,1.359304443359375,-0.014470171183347702,-0.03539835661649704,-0.009178172796964645
1783169855252373500,1.36937353515625,-0.004754507914185524,-0.03318177908658981,-0.0060723768547177315
1783169855262443500,1.379443603515625,0.018639763817191124,-0.029928723350167274,-0.008733407594263554
1783169855272512500,1.389512451171875,0.03373800963163376,-0.02399107813835144,-0.006027303170412779
1783169855282582500,1.39958251953125,0.03157978132367134,-0.01083559449762106,-0.00869419239461422
1783169855292651500,1.409651611328125,0.027107397094368935,-0.0006054854020476341,-0.02059580571949482
1783169855302721500,1.419721435546875,0.01853201910853386,0.01568826660513878,-0.0290814358741045
1783169855312791600,1.42979150390625,0.01501228753477335,0.017024539411067963,-0.03532859683036804
1783169855322860500,1.439860595703125,0.016930829733610153,0.014584550634026527,-0.03964637964963913
1783169855332930600,1.4499306640625,0.02205726131796837,0.0027752676978707314,-0.039925094693899155
1783169855342999600,1.45999951171875,0.035935793071985245,-0.002685810439288616,-0.03576044365763664
1783169855353069600,1.470069580078125,0.04180832952260971,-0.0030722348019480705,-0.018075721338391304
1783169855363138600,1.480138671875,0.038633041083812714,-0.0015550320968031883,-0.0028887793887406588
1783169855373208600,1.49020849609375,0.029238156974315643,-0.000005032867193222046,-0.0065302359871566296
1783169855383277300,1.50027734375,0.028515107929706573,-0.005240009166300297,-0.024936940521001816
1783169855393347600,1.51034765625,0.028318727388978004,0.0005492842756211758,-0.03873777762055397
1783169855403416300,1.520416259765625,0.02281876653432846,0.007766184397041798,-0.03585011139512062
1783169855413486600,1.530486572265625,0.016508640721440315,0.0003916192799806595,-0.025566454976797104
1783169855423555300,1.540555419921875,0.021851740777492523,-0.01067647710442543,-0.02500585839152336
1783169855433625300,1.550625244140625,0.02914901077747345,-0.007342924363911152,-0.028705494478344917
1783169855443695600,1.560695556640625,0.024422165006399155,0.006052509415894747,-0.02156982198357582
1783169855453764400,1.570764404296875,0.015895914286375046,0.005389138590544462,-0.013238637708127499
1783169855463834600,1.580834716796875,0.011494774371385574,0.007274390198290348,-0.020278967916965485
1783169855473903400,1.5909033203125,0.0047059981152415276,0.009719465859234333,-0.03383776918053627
1783169855483973400,1.600973388671875,0.0030037052929401398,0.019207509234547615,-0.02668824791908264
1783169855494042400,1.61104248046875,0.0071585336700081825,0.010092580690979958,-0.02171279489994049
1783169855504112400,1.6211123046875,0.013264895416796207,-0.00545042660087347,-0.025786899030208588
1783169855514181400,1.631181396484375,0.02397790178656578,-0.02465583011507988,-0.0231382604688406
1783169855524251400,1.64125146484375,0.024607472121715546,-0.040582332760095596,-0.0210945513099432
1783169855534320400,1.6513203125,0.014777411706745625,-0.04362109303474426,-0.011888852342963219
1783169855544390400,1.661390380859375,0.0008602645830251276,-0.05201617628335953,0.0020104525610804558
1783169855554459600,1.671459716796875,0.0009792009368538857,-0.05435298755764961,-0.004174547735601664
1783169855564529400,1.681529296875,0.005582741461694241,-0.04989112913608551,-0.01846986450254917
1783169855574598700,1.6915986328125,-0.0005170395597815514,-0.025812571868300438,-0.004528688732534647
1783169855584668400,1.70166845703125,-0.0021476929541677237,-0.015551144257187843,0.008683253079652786
1783169855594738400,1.711738525390625,0.0063347723335027695,-0.018427886068820953,-0.0066923703998327255
1783169855604807400,1.721807373046875,0.005670580081641674,-0.01497536338865757,-0.006328849121928215
1783169855614877400,1.73187744140625,-0.013142630457878113,-0.002154792658984661,0.008352546021342278
1783169855624946400,1.741946533203125,-0.031514182686805725,0.0002806680276989937,0.014906052500009537
1783169855635016400,1.752016357421875,-0.034073859453201294,0.002708700019866228,-0.0005963239818811417
1783169855645085700,1.762085693359375,-0.020232344046235085,0.0033305478282272816,-0.014528119936585426
1783169855655155500,1.772155517578125,-0.009115603752434254,0.007374007720500231,-0.0065939053893089294
1783169855665224400,1.782224365234375,-0.005278787110000849,0.018104415386915207,0.005637460853904486
1783169855675294500,1.79229443359375,0.003092107130214572,0.018571410328149796,0.009366224519908428
1783169855685363500,1.802363525390625,0.014952495694160461,0.014613420702517033,0.003666793229058385
1783169855695433500,1.81243359375,0.01791119948029518,0.007080306764692068,0.011608021333813667
1783169855705502500,1.82250244140625,0.008267626166343689,-0.00023726094514131546,0.028332406654953957
1783169855715572500,1.832572509765625,0.004471813328564167,-0.012076660990715027,0.032809823751449585
1783169855725642500,1.842642578125,0.007150420919060707,-0.01732282154262066,0.027703478932380676
1783169855735711500,1.85271142578125,0.004837982822209597,-0.014051263220608234,0.04965970665216446
1783169855745781500,1.862781494140625,0.0008280612528324127,-0.017551187425851822,0.06617077440023422
1783169855755850500,1.8728505859375,-0.004910658113658428,-0.015249044634401798,0.050896793603897095
1783169855765920500,1.88292041015625,-0.005282701924443245,0.0024093110114336014,0.03474924713373184
1783169855775989500,1.892989501953125,-0.007872598245739937,0.02301810309290886,0.028179068118333817
1783169855786059300,1.903059326171875,-0.0036341771483421326,0.024986444041132927,0.020746983587741852
1783169855796128500,1.91312841796875,0.0016583532560616732,0.027988897636532784,0.00676658796146512
1783169855806198300,1.9231982421875,0.005393436644226313,0.03687799721956253,0.002274101600050926
1783169855816267500,1.933267578125,0.00002375559415668249,0.032531946897506714,0.011315111070871353
1783169855826337500,1.943337646484375,-0.006924698129296303,0.025417309254407883,0.021976277232170105
1783169855836406500,1.953406494140625,-0.009149834513664246,0.004520720336586237,0.025051649659872055
1783169855846476500,1.9634765625,-0.00751918088644743,-0.010910701006650925,0.02298050932586193
1783169855856545500,1.973545654296875,-0.003277313895523548,-0.013544436544179916,0.024320147931575775
1783169855866615600,1.983615478515625,-0.004691185895353556,-0.015579357743263245,0.036897458136081696
1783169855876685300,1.993685302734375,-0.008818645030260086,-0.022356852889060974,0.047545965760946274
1783169855886755600,2.003755615234375,-0.004449197091162205,-0.020863885059952736,0.03982200101017952
1783169855896825600,2.01382568359375,-0.0021949084475636482,-0.01162312924861908,0.02701917476952076
1783169855906894600,2.02389453125,-0.004661528393626213,-0.005391598679125309,0.019353531301021576
1783169855916964600,2.033964599609375,-0.005391567014157772,0.008308936841785908,0.01739686168730259
1783169855927033600,2.04403369140625,-0.012654007412493229,0.019316846504807472,0.020086653530597687
1783169855937104000,2.054103759765625,-0.01683800294995308,0.02575327642261982,0.005934532731771469
1783169855947172600,2.064172607421875,-0.018253471702337265,0.025856340304017067,-0.00432103406637907
1783169855957242600,2.07424267578125,-0.015245621092617512,0.0225730761885643,-0.007164282724261284
1783169855967311600,2.0843115234375,-0.017354046925902367,0.00578237883746624,0.0010276006069034338
1783169855977381600,2.094381591796875,-0.016291316598653793,-0.0014053843915462494,-0.0070936596021056175
1783169855987450600,2.10445068359375,-0.009366033598780632,-0.016553711146116257,-0.004784165881574154
1783169855997520600,2.114520751953125,-0.006255163811147213,-0.015161406248807907,0.004824123810976744
1783169856007589600,2.124589599609375,-0.009631785564124584,-0.010442018508911133,0.0048795174807310104
1783169856017659600,2.13465966796875,-0.010036429390311241,-0.013449144549667835,-0.006338330917060375
1783169856027729700,2.144729736328125,-0.01575423590838909,-0.012000384740531445,-0.005213944241404533
1783169856037798700,2.154798583984375,-0.026592286303639412,-0.024205880239605904,0.012680262327194214
1783169856047868700,2.16486865234375,-0.029865844175219536,-0.028132712468504906,0.009021610952913761
1783169856057937700,2.174937744140625,-0.024220455437898636,-0.030022799968719482,-0.008922267705202103
1783169856068007700,2.185007568359375,-0.010991202667355537,-0.020876973867416382,-0.009627208113670349
1783169856078076700,2.19507666015625,-0.012214631773531437,-0.013817280530929565,-0.005407324526458979
1783169856088146700,2.205146728515625,-0.01055068802088499,-0.007563112303614616,-0.00024904776364564896
1783169856098215700,2.215215576171875,-0.008121287450194359,-0.012741532176733017,0.004636297933757305
1783169856108285700,2.22528564453125,0.0023233641404658556,-0.012272283434867859,-0.00015765824355185032
1783169856118354400,2.2353544921875,0.002211557701230049,-0.00296199694275856,-0.0009397557005286217
1783169856128424700,2.2454248046875,0.0007414928986690938,0.004585134796798229,0.012186964973807335
1783169856138493400,2.255493408203125,0.00255321036092937,0.01041771937161684,-0.0012173941358923912
1783169856148563700,2.265563720703125,0.0062736463733017445,0.01309792511165142,-0.013408546335995197
1783169856158633700,2.2756337890625,0.00869077816605568,0.02734145149588585,-0.0174892358481884
1783169856168702700,2.28570263671875,0.002113569062203169,0.034529589116573334,-0.006313013844192028
1783169856178772700,2.295772705078125,0.005650810431689024,0.03987908363342285,-0.006394903175532818
1783169856188841500,2.305841552734375,0.01069590263068676,0.04641874134540558,-0.0036822070833295584
1783169856198911700,2.315911865234375,0.020894180983304977,0.04533296823501587,-0.0000625750981271267
1783169856208980500,2.32598046875,0.028816020116209984,0.04599476605653763,-0.0023478337097913027
1783169856219050800,2.33605078125,0.034499313682317734,0.05433620139956474,-0.009357993490993977
1783169856229119500,2.346119384765625,0.02947366237640381,0.06317470222711563,-0.0077012404799461365
1783169856239189500,2.356189453125,0.026286831125617027,0.06861951947212219,-0.0023577518295496702
1783169856249258500,2.366258544921875,0.028629614040255547,0.06263113021850586,0.012608414515852928
1783169856259328500,2.37632861328125,0.025611139833927155,0.05226171016693115,0.024813342839479446
1783169856269397800,2.386397705078125,0.021642765030264854,0.049138352274894714,0.03524095192551613
1783169856279467500,2.396467529296875,0.010181190446019173,0.04169204458594322,0.01904808171093464
1783169856289536800,2.406536865234375,0.005900159478187561,0.03511829674243927,-0.006477518007159233
1783169856299606500,2.4166064453125,0.0023473789915442467,0.022564401850104332,-0.01659914292395115
1783169856309676500,2.426676513671875,0.01211798470467329,0.0025163916870951653,-0.016635362058877945
1783169856319745500,2.43674560546875,0.015614510513842106,-0.022158052772283554,0.007997553795576096
1783169856329815600,2.446815673828125,0.02005106955766678,-0.035874929279088974,0.02895663119852543
1783169856339884500,2.456884521484375,0.019127342849969864,-0.037383854389190674,0.03475780785083771
1783169856349954600,2.46695458984375,0.007982546463608742,-0.029632188379764557,0.038405537605285645
1783169856360023800,2.47702392578125,-0.0027620382606983185,-0.01981232687830925,0.029372625052928925
1783169856370093600,2.487093505859375,-0.004327444359660149,-0.01241007074713707,0.006614581681787968
1783169856380162800,2.497162841796875,-0.006734783295542002,-0.005548588931560516,-0.009383372031152248
1783169856390232600,2.507232666015625,-0.011541256681084633,0.001886424608528614,-0.01210299227386713
1783169856400301600,2.517301513671875,-0.009738844819366932,0.003589379135519266,-0.00580268818885088
1783169856410371600,2.52737158203125,-0.0021419115364551544,0.004062356427311897,-0.0017136703245341778
1783169856420440600,2.537440673828125,0.0036495986860245466,0.0064356690272688866,0.0043580252677202225
1783169856430510600,2.547510498046875,0.01017407700419426,-0.003370356746017933,0.01252327673137188
1783169856440579600,2.55757958984375,0.00883820466697216,-0.00869295559823513,0.005268690641969442
1783169856450649900,2.56764990234375,0.007283185143023729,-0.012131363153457642,0.011605416424572468
1783169856460719600,2.5777197265625,0.004769650287926197,-0.007247447036206722,0.0167897529900074
1783169856470788600,2.58778857421875,0.0022582896053791046,-0.003610367886722088,0.02453981712460518
1783169856480858600,2.597858642578125,0.0017511281184852123,0.0030679376795887947,0.017829541116952896
1783169856490927600,2.607927734375,-0.0018444056622684002,0.008866438642144203,0.009419012814760208
1783169856500997600,2.61799755859375,0.00021157029550522566,0.018481118604540825,0.01233670674264431
1783169856511066600,2.628066650390625,0.006643104366958141,0.021328037604689598,0.006497193593531847
1783169856521136600,2.63813671875,0.009827164001762867,0.012236668728291988,-0.00035212538205087185
1783169856531205600,2.64820556640625,0.00003578606992959976,0.01143266074359417,0.0015799980610609055
1783169856541275600,2.658275634765625,-0.008328546769917011,0.013097424991428852,0.01301242969930172
1783169856551344600,2.6683447265625,-0.00015237624756991863,0.012218315154314041,0.00678649079054594
1783169856561414700,2.67841455078125,0.012358012609183788,0.011720689944922924,-0.010088836774230003
1783169856571483600,2.688483642578125,0.012475724332034588,0.027414698153734207,-0.0009057242423295975
1783169856581553700,2.6985537109375,0.004443317651748657,0.03075016476213932,0.007780902087688446
1783169856591622700,2.70862255859375,-0.00023239431902766228,0.024689875543117523,-0.007617495022714138
1783169856601692700,2.718692626953125,0.0008121593273244798,0.021586772054433823,-0.0066422391682863235
1783169856611761700,2.72876171875,-0.0013758938293904066,0.00980281736701727,0.012446500360965729
1783169856621831700,2.738831787109375,0.0007678117253817618,0.00574107188731432,0.01697312667965889
1783169856631901700,2.748901611328125,0.0005307904211804271,-0.000010823830962181091,0.011847605928778648
1783169856641970700,2.758970703125,-0.003972255624830723,0.005836962256580591,-0.007316356524825096
1783169856652040700,2.769040771484375,-0.0024252254515886307,0.004699526354670525,-0.01696125976741314
1783169856662109700,2.779109619140625,-0.004253547638654709,0.009316370822489262,-0.028856277465820312
1783169856672179700,2.7891796875,-0.001923015108332038,0.01186741329729557,-0.015629153698682785
1783169856682248700,2.799248779296875,-0.00687251565977931,0.014876384288072586,0.002142449840903282
1783169856692318700,2.809318603515625,-0.01308726891875267,0.026480574160814285,0.00645996630191803
1783169856702387500,2.819387451171875,-0.018600324168801308,0.030802743509411812,-0.01706913486123085
1783169856712457700,2.829457763671875,-0.010110965929925442,0.026311587542295456,-0.018237197771668434
1783169856722526500,2.8395263671875,-0.0050740670412778854,0.020141854882240295,-0.016484295949339867
1783169856732596700,2.8495966796875,-0.003765922738239169,0.013815781101584435,-0.007486806251108646
1783169856742665500,2.85966552734375,-0.010079887695610523,0.018996184691786766,0.006203986704349518
1783169856752735500,2.869735595703125,-0.017864307388663292,0.016746345907449722,0.015317857265472412
1783169856762804700,2.8798046875,-0.02017594315111637,0.004963141866028309,0.010626793839037418
1783169856772874500,2.88987451171875,-0.013006448745727539,0.0023098341189324856,0.005101267248392105
1783169856782944800,2.89994482421875,-0.013521444983780384,0.01155252568423748,-0.00017394684255123138
1783169856793013500,2.910013427734375,-0.01887786015868187,0.025663284584879875,-0.004259768407791853
1783169856803083800,2.920083740234375,-0.014397385530173779,0.025451909750699997,-0.014173755422234535
1783169856813152500,2.930152587890625,-0.002394519280642271,0.015113518573343754,-0.026209913194179535
1783169856823222500,2.940222412109375,0.015843244269490242,0.008343660272657871,-0.020791620016098022
1783169856833291500,2.95029150390625,0.026269787922501564,0.002795230131596327,-0.0027604217175394297
1783169856843361500,2.960361572265625,0.01722666434943676,0.0013363342732191086,0.018292786553502083
1783169856853430800,2.9704306640625,0.0043654609471559525,-0.001957995817065239,0.03689097240567207
1783169856863500500,2.98050048828125,-0.002958923112601042,-0.001765563152730465,0.02823338285088539
1783169856873569800,2.99056982421875,-0.014672838151454926,0.005058786831796169,0.012725261971354485
1783169856883638500,3.000638427734375,-0.020213386043906212,0.01169203594326973,0.009820472449064255
1783169856893707800,3.010707763671875,-0.014557630755007267,0.011906420812010765,0.009615940973162651
1783169856903777800,3.02077783203125,0.009623825550079346,0.004834255203604698,-0.004596090875566006
1783169856913846800,3.0308466796875,0.03168518468737602,0.003744223155081272,-0.01491078082472086
1783169856923916800,3.040916748046875,0.03144264966249466,-0.0008850023150444031,-0.01270121056586504
1783169856933986600,3.050986572265625,0.014104405418038368,-0.006920524872839451,-0.00885640550404787
1783169856944055800,3.061055908203125,-0.0013886275701224804,-0.005462992936372757,-0.010551387444138527
1783169856954125600,3.07112548828125,-0.015265295282006264,0.0015022382140159607,-0.008515667170286179
1783169856964194800,3.08119482421875,-0.02140187658369541,0.008109965361654758,-0.001642361981794238
1783169856974264600,3.0912646484375,-0.012137005105614662,0.008699056692421436,0.005529530346393585
1783169856984333800,3.101333740234375,-0.0011256185825914145,0.0039611621759831905,0.009238184429705143
1783169856994403800,3.11140380859375,0.0037437051068991423,0.005579298362135887,0.006097517907619476
1783169857004472800,3.121472900390625,-0.0011141670402139425,0.00675535062327981,-0.008610853925347328
1783169857014542800,3.13154296875,-0.00760349165648222,0.0037390543147921562,-0.021942637860774994
1783169857024611600,3.141611572265625,-0.010321950539946556,-0.0029248706996440887,-0.024472998455166817
1783169857034681900,3.151681884765625,-0.014852254651486874,0.006030275020748377,-0.015570051968097687
1783169857044750600,3.16175048828125,-0.015380014665424824,0.01295730471611023,-0.007454920560121536
1783169857054820900,3.17182080078125,-0.015049249865114689,0.01452723704278469,-0.010462428443133831
1783169857064889600,3.1818896484375,-0.013420900329947472,0.00442082341760397,-0.006359684281051159
1783169857074960000,3.1919599609375,-0.012783871963620186,-0.010338680818676949,-0.0006059242878109217
1783169857085028600,3.202028564453125,-0.0100222984328866,-0.028011441230773926,-0.007080085575580597
1783169857095098600,3.2120986328125,-0.007532509043812752,-0.029149942100048065,-0.007844146341085434
1783169857105169000,3.2221689453125,-0.0010543731041252613,-0.02614198811352253,-0.013983567245304585
1783169857115237600,3.232237548828125,0.0026847049593925476,-0.00399993360042572,-0.008817567490041256
1783169857125308000,3.242307861328125,0.0034155729226768017,0.003929997328668833,-0.0031280755065381527
1783169857135376600,3.252376708984375,0.006355170160531998,-0.002624042332172394,-0.011080807074904442
1783169857145446700,3.26244677734375,0.012289226055145264,-0.008525872603058815,-0.013963146135210991
1783169857155515600,3.272515625,0.010065220296382904,-0.011949632316827774,-0.020683366805315018
1783169857165585700,3.282585693359375,0.005131276324391365,-0.020537957549095154,-0.03336036950349808
1783169857175654700,3.292654541015625,0.0074386391788721085,-0.023620564490556717,-0.04943228140473366
1783169857185724700,3.302724609375,0.004527114797383547,-0.01669539511203766,-0.04327523708343506
1783169857195793700,3.312793701171875,-0.005621659569442272,-0.009723241440951824,-0.015099259093403816
1783169857205863700,3.32286376953125,-0.002426117192953825,-0.0020324289798736572,-0.00907818228006363
1783169857215932700,3.3329326171875,-0.00042901281267404556,0.006379431113600731,-0.017224792391061783
1783169857226002700,3.343002685546875,0.000058816163800656796,0.018466178327798843,-0.017090843990445137
1783169857236072000,3.353072021484375,0.00642829854041338,0.01778360828757286,-0.015199466608464718
1783169857246141700,3.3631416015625,0.006932700984179974,-0.0030460385605692863,-0.023766588419675827
1783169857256210700,3.373210693359375,0.007910347543656826,-0.004558714106678963,-0.031234625726938248
1783169857266280700,3.38328076171875,0.004955960903316736,-0.009285003878176212,-0.025346361100673676
1783169857276350700,3.393350830078125,0.0051477085798978806,-0.02308763563632965,-0.018247438594698906
1783169857286419700,3.403419677734375,0.015871617943048477,-0.02965753898024559,-0.02394721657037735
1783169857296489700,3.41348974609375,0.013543747365474701,-0.03021254390478134,-0.012406406924128532
1783169857306558700,3.423558837890625,-0.004031266551464796,-0.027911175042390823,0.008935430087149143
1783169857316628700,3.433628662109375,-0.01159757375717163,-0.03179938718676567,0.004549736622720957
1783169857326697700,3.44369775390625,-0.014499792829155922,-0.023672116920351982,-0.005837219767272472
1783169857336767700,3.453767822265625,-0.009570014663040638,-0.013244245201349258,-0.00835497211664915
1783169857346836700,3.463836669921875,0.0029853172600269318,-0.016279160976409912,-0.008710215799510479
1783169857356906800,3.47390673828125,0.007234657183289528,-0.008490745909512043,-0.017864299938082695
1783169857366975700,3.483975830078125,0.00019093998707830906,-0.0028156703338027,-0.020998628810048103
1783169857377045500,3.49404541015625,-0.010907516814768314,0.003527713008224964,-0.025747312232851982
1783169857387114800,3.50411474609375,-0.01679915003478527,-0.001857495866715908,-0.03261882811784744
1783169857397184500,3.5141845703125,-0.008621914312243462,-0.014217759482562542,-0.027949510142207146
1783169857407253800,3.524253662109375,-0.0024952180683612823,-0.03056209534406662,-0.021246451884508133
1783169857417323800,3.53432373046875,-0.012761438265442848,-0.04616502299904823,-0.01027449406683445
1783169857427393800,3.544393798828125,-0.018367361277341843,-0.04804760590195656,-0.001998582389205694
1783169857437462800,3.554462890625,-0.006772489286959171,-0.05305914208292961,0.005184229463338852
1783169857447532500,3.564532470703125,-0.002393923932686448,-0.0423862487077713,0.006473209243267775
1783169857457601800,3.574601806640625,0.0018785852007567883,-0.04142697900533676,0.00152665376663208
1783169857467671600,3.584671630859375,-0.004345519468188286,-0.035500384867191315,-0.0011510259937494993
1783169857477740800,3.59474072265625,-0.006547420751303434,-0.02428022027015686,-0.005868016742169857
1783169857487810600,3.604810546875,-0.002717953408136964,-0.027949105948209763,-0.010398771613836288
1783169857497879800,3.6148798828125,-0.0053744567558169365,-0.02745615318417549,-0.007206972688436508
1783169857507949800,3.62494970703125,-0.007899226620793343,-0.02519967406988144,0.001012727851048112
1783169857518018800,3.635018798828125,-0.010276630520820618,-0.02099481038749218,0.0008113929070532322
1783169857528088800,3.6450888671875,-0.0007478867191821337,-0.017887841910123825,-0.006111301947385073
1783169857538157800,3.65515771484375,0.006192577537149191,-0.01918186992406845,-0.013799581676721573
1783169857548227800,3.665227783203125,0.0057223523035645485,-0.015075613744556904,-0.002361196093261242
1783169857558296600,3.675296630859375,-0.00023673695977777243,-0.013430844061076641,0.00523147638887167
1783169857568366800,3.685366943359375,-0.007474154233932495,-0.010519525967538357,0.008098738268017769
1783169857578435600,3.695435546875,-0.008835296146571636,0.001245254185050726,0.003917575813829899
1783169857588505900,3.705505859375,-0.0014195984695106745,0.010199975222349167,0.008765106089413166
1783169857598575900,3.715575927734375,-0.013510349206626415,0.03927956148982048,0.005100329872220755
1783169857608644600,3.72564453125,-0.022042836993932724,0.030357224866747856,-0.007739928085356951
1783169857618715000,3.73571484375,-0.018754633143544197,0.02082177624106407,-0.004641340579837561
1783169857628783600,3.74578369140625,-0.014118351973593235,0.01818138174712658,-0.012648336589336395
1783169857638854000,3.75585400390625,-0.012813402339816093,0.015265220776200294,-0.01387978158891201
1783169857648922600,3.765922607421875,-0.0037973325233906507,0.005431487690657377,-0.007083668373525143
1783169857658992600,3.77599267578125,0.007163706235587597,-0.0013273488730192184,0.006045715883374214
1783169857669061600,3.7860615234375,0.017295876517891884,-0.0036744093522429466,0.016743486747145653
1783169857679131600,3.796131591796875,0.015233523212373257,-0.0032730717211961746,0.02888510562479496
1783169857689200600,3.80620068359375,0.011758396402001381,-0.00849179457873106,0.023592211306095123
1783169857699270700,3.816270751953125,0.005776137113571167,-0.010802087374031544,0.011183744296431541
1783169857709339600,3.826339599609375,-0.00401630625128746,-0.013321970589458942,0.004644885193556547
1783169857719409700,3.83640966796875,-0.013408209197223186,-0.01791965216398239,0.018083462491631508
1783169857729479000,3.84647900390625,-0.010328390635550022,-0.018202854320406914,0.008550361730158329
1783169857739548700,3.856548583984375,0.006031407043337822,-0.010051451623439789,-0.007587861735373735
1783169857749618000,3.866617919921875,0.018832236528396606,-0.011398510076105595,-0.0137714808806777
1783169857759687700,3.876687744140625,0.022019241005182266,-0.00907863024622202,-0.006840869784355164
1783169857769756700,3.886756591796875,0.016917910426855087,-0.0050664544105529785,0.004562445916235447
1783169857779826700,3.89682666015625,0.00983416847884655,-0.00804812926799059,0.0022385716438293457
1783169857789896700,3.906896728515625,0.002336679957807064,-0.008348913863301277,-0.00024287961423397064
1783169857799965700,3.916965576171875,-0.0025752545334398746,-0.011185180395841599,0.0018655451713129878
1783169857810035700,3.92703564453125,-0.0150399599224329,-0.005690599791705608,-0.0018645324744284153
1783169857820105000,3.93710498046875,-0.014954738318920135,0.00014918018132448196,-0.011177074164152145
1783169857830174700,3.9471748046875,-0.00528646120801568,-0.0019063474610447884,-0.02637709490954876
1783169857840243700,3.95724365234375,0.011783601716160774,-0.002289576455950737,-0.036806829273700714
1783169857850313700,3.967313720703125,0.021592462435364723,-0.01664118841290474,-0.02771976962685585
1783169857860382700,3.9773828125,0.019069915637373924,-0.024958506226539612,-0.007696259766817093
1783169857870452700,3.98745263671875,-0.002168354345485568,-0.019411956891417503,0.005577055737376213
1783169857880521700,3.997521728515625,-0.01945280283689499,-0.008608577772974968,0.017851565033197403
1783169857890591700,4.007591796875,-0.0223526731133461,0.00009060092270374298,0.011772729456424713
1783169857900660700,4.01766064453125,-0.018121708184480667,0.0029079588130116463,-0.0005630322266370058
1783169857910730800,4.027730712890625,-0.006774776615202427,0.006510682869702578,-0.010489166714251041
1783169857920799700,4.0377998046875,0.005415842868387699,0.0016565392725169659,-0.017388883978128433
1783169857930869800,4.047869873046875,0.013891667127609253,0.0007711788639426231,-0.022559335455298424
1783169857940939000,4.05793896484375,0.025814639404416084,-0.008272117003798485,-0.017404787242412567
1783169857951008800,4.0680087890625,0.021162454038858414,-0.017345311120152473,0.007215188816189766
1783169857961078800,4.078078857421875,0.006811211816966534,-0.01582224853336811,0.037118494510650635
1783169857971147800,4.088147705078125,-0.010763143189251423,-0.0171597171574831,0.050697535276412964
1783169857981217800,4.0982177734375,-0.02642758935689926,-0.01589737832546234,0.042465172708034515
1783169857991286800,4.108286865234375,-0.028039930388331413,0.0032842950895428658,0.03399284556508064
1783169858001356800,4.118356689453125,-0.034135639667510986,0.022096065804362297,0.029142165556550026
1783169858011425800,4.12842578125,-0.02883012220263481,0.04438751935958862,0.013032032176852226
1783169858021495800,4.138495849609375,-0.016391027718782425,0.05014953389763832,-0.004535243380814791
1783169858031565000,4.14856494140625,-0.002335882978513837,0.0520283579826355,-0.013955550268292427
1783169858041634800,4.158634765625,-0.0009198801126331091,0.04046331346035004,-0.00652319984510541
1783169858051703800,4.168703857421875,0.00047929794527590275,0.03041231259703636,0.0014187858905643225
1783169858061773800,4.17877392578125,-0.0012709314469248056,0.015389421954751015,0.00619649700820446
1783169858071842800,4.1888427734375,-0.008538384921848774,0.010992949828505516,0.019149653613567352
1783169858081912800,4.198912841796875,-0.008198033086955547,-0.0023801131173968315,0.03190832585096359
1783169858091981800,4.20898193359375,-0.0037096193991601467,-0.007074613124132156,0.03057573363184929
1783169858102051800,4.2190517578125,-0.004739197436720133,-0.0011149905622005463,0.037476252764463425
1783169858112120800,4.229120849609375,-0.00405542366206646,-0.005898935720324516,0.02777004987001419
1783169858122190800,4.23919091796875,-0.007467199582606554,-0.006726646795868874,0.013155685737729073
1783169858132260900,4.2492607421875,-0.01099502481520176,-0.00016052555292844772,0.004808841738849878
1783169858142329900,4.259329833984375,-0.016251040622591972,0.0010940898209810257,0.007374797482043505
1783169858152400000,4.26939990234375,-0.011090445332229137,-0.0011991262435913086,-0.002243446186184883
1783169858162468900,4.27946875,-0.007091176696121693,0.0025364900939166546,-0.013133378699421883
1783169858172539000,4.289538818359375,-0.005856488831341267,0.0084746815264225,-0.012460324913263321
1783169858182608000,4.29960791015625,-0.006157426163554192,0.010603612288832664,-0.017768004909157753
1783169858192677600,4.309677734375,-0.006601687520742416,0.007457478903234005,-0.030795196071267128
1783169858202747000,4.319746826171875,-0.01005128026008606,0.0013788137584924698,-0.039236880838871
1783169858212817000,4.32981689453125,-0.00427400553599,-0.006028533913195133,-0.03823769465088844
1783169858222886000,4.339885986328125,0.0010312774684280157,-0.025442447513341904,-0.03008655644953251
1783169858232956000,4.349955810546875,0.01004067249596119,-0.04820844531059265,-0.015021558851003647
1783169858243025000,4.36002490234375,0.014185083098709583,-0.061473920941352844,-0.008247010409832
1783169858253095000,4.370094970703125,0.008027574047446251,-0.05898178368806839,0.0024035898968577385
1783169858263164000,4.380163818359375,-0.00024180789478123188,-0.061046794056892395,0.01336249802261591
1783169858273234000,4.39023388671875,-0.00937928631901741,-0.0705966055393219,0.007470937445759773
1783169858283302700,4.400302734375,-0.008431999012827873,-0.06742317974567413,0.001797339180484414
1783169858293373000,4.410373046875,-0.005927312187850475,-0.05489847809076309,-0.0019762965384870768
1783169858303441700,4.420441650390625,-0.0019272437784820795,-0.04258748143911362,-0.007658683694899082
1783169858313512000,4.430511962890625,0.005615736823529005,-0.028641950339078903,-0.01762707717716694
1783169858323582000,4.44058203125,0.0028652241453528404,0.00591469369828701,-0.029168684035539627
1783169858333651000,4.45065087890625,0.012109007686376572,0.011836004443466663,-0.03492441028356552
1783169858343721000,4.460720947265625,0.02177867852151394,0.02129129134118557,-0.03384343162178993
1783169858353789700,4.470789794921875,0.009937655180692673,0.03028765693306923,-0.04221632704138756
1783169858363860000,4.48085986328125,-0.0029722843319177628,0.028937432914972305,-0.0367688313126564
1783169858373928700,4.4909287109375,-0.007816717959940434,0.029810352250933647,-0.038151293992996216
1783169858383999000,4.5009990234375,0.0014414951438084245,0.020972654223442078,-0.02792927995324135
1783169858394067700,4.511067626953125,0.007001159712672234,0.010936224833130836,-0.018074147403240204
1783169858404137700,4.5211376953125,0.010810012929141521,0.0025917422026395798,-0.012657543644309044
1783169858414206700,4.531206787109375,0.011336896568536758,-0.0019236737862229347,-0.0114366440102458
1783169858424276700,4.54127685546875,0.0019053112482652068,0.00001990143209695816,-0.004606700502336025
1783169858434346000,4.551345947265625,-0.010599514469504356,-0.007360376417636871,-0.009004570543766022
1783169858444415700,4.561415771484375,-0.02272648550570011,-0.004162984900176525,-0.007560071535408497
1783169858454485000,4.571485107421875,-0.03211605176329613,-0.001701168715953827,0.004558898042887449
1783169858464554800,4.5815546875,-0.04457884654402733,0.003435004036873579,0.004554903134703636
1783169858474624000,4.5916240234375,-0.025302467867732048,-0.016467038542032242,-0.006681346334517002
1783169858484693800,4.60169384765625,-0.011756297200918198,-0.027033928781747818,-0.003952670842409134
1783169858494763800,4.611763671875,-0.020478667691349983,-0.026642488315701485,0.010646199807524681
1783169858504832800,4.621832763671875,-0.03874529153108597,-0.022503135725855827,0.022468239068984985
1783169858514902800,4.63190283203125,-0.04584908112883568,-0.022991526871919632,0.020759854465723038
1783169858524972000,4.641971923828125,-0.03749740868806839,-0.028473112732172012,0.017033826559782028
1783169858535041800,4.652041748046875,-0.02980167418718338,-0.03407160937786102,0.016824768856167793
1783169858545111000,4.662111083984375,-0.027461552992463112,-0.025900498032569885,0.020921774208545685
1783169858555180800,4.672180908203125,-0.03390427306294441,-0.010188025422394276,0.02286350168287754
1783169858565249800,4.682249755859375,-0.038618601858615875,0.0032377676106989384,0.024684038013219833
1783169858575319800,4.69231982421875,-0.03933731094002724,0.006750267930328846,0.02020905911922455
1783169858585388800,4.702388916015625,-0.03220243752002716,0.004556888714432716,0.011186269111931324
1783169858595458800,4.712458740234375,-0.025502486154437065,0.007528260815888643,0.005209216848015785
1783169858605527800,4.72252783203125,-0.012016238644719124,0.011995181441307068,-0.0001732981763780117
1783169858615598000,4.73259814453125,-0.00826454907655716,0.01589539647102356,0.007291695103049278
1783169858625666800,4.742666748046875,-0.006248003803193569,0.01685653068125248,0.013523491099476814
1783169858635736800,4.75273681640625,-0.0007717616390436888,0.012976613827049732,0.014159762300550938
1783169858645805800,4.762805908203125,0.009422020055353642,0.01173371635377407,0.017100423574447632
1783169858655875800,4.772875732421875,0.011677577160298824,0.015285417437553406,0.02857896126806736
1783169858665944800,4.78294482421875,0.0023898030631244183,0.01885378733277321,0.03159472346305847
1783169858676014800,4.793014892578125,-0.007425198797136545,0.01107750367373228,0.01707298494875431
1783169858686084900,4.8030849609375,-0.012286266312003136,-0.0010625161230564117,0.004608858842402697
1783169858696153900,4.81315380859375,-0.0011447914876043797,-0.011264842003583908,-0.00024876766838133335
1783169858706223900,4.823223876953125,0.008608769625425339,-0.025491446256637573,0.008032864890992641
1783169858716292900,4.83329296875,0.008886553347110748,-0.036365263164043427,0.01261929702013731
1783169858726363000,4.84336279296875,0.004365304484963417,-0.032751359045505524,0.015739189460873604
1783169858736431900,4.853431884765625,-0.012210178188979626,-0.025055082514882088,0.03157182037830353
1783169858746502000,4.863501953125,-0.025056201964616776,-0.016720984131097794,0.032577164471149445
1783169858756571000,4.87357080078125,-0.022656820714473724,-0.010089202784001827,0.01811537705361843
1783169858766641000,4.883640869140625,-0.010057938285171986,-0.0037889620289206505,0.005161761771887541
1783169858776710000,4.8937099609375,0.0008443391416221857,0.005157144740223885,0.0015626505482941866
1783169858786780000,4.90377978515625,0.008213838562369347,0.0013094092719256878,-0.008188513107597828
1783169858796849000,4.913848876953125,0.010566741228103638,-0.013188306242227554,-0.013102578930556774
1783169858806919000,4.9239189453125,0.018481390550732613,-0.025418074801564217,-0.01289724837988615
1783169858816987600,4.933987548828125,0.02444121427834034,-0.025509433820843697,0.00012266822159290314
1783169858827058000,4.944057861328125,0.019947929307818413,-0.035484299063682556,0.019393568858504295
1783169858837126700,4.954126708984375,0.014518119394779205,-0.038867875933647156,0.02767503447830677
1783169858847197000,4.964197021484375,0.008664757013320923,-0.029244542121887207,0.027267305180430412
1783169858857266000,4.974265869140625,0.004316786304116249,-0.008900580927729607,0.03227465599775314
1783169858867335700,4.984335693359375,0.0039828261360526085,0.00696946308016777,0.013728935271501541
1783169858877406000,4.994406005859375,0.005071683786809444,0.011384387500584126,-0.007700785994529724
1783169858887474700,5.004474609375,0.006692749448120594,0.02293025702238083,-0.025037165731191635
1783169858897545000,5.014544921875,0.005873608868569136,0.03470662981271744,-0.023409364745020866
1783169858907613700,5.02461376953125,0.011304592713713646,0.01739128679037094,-0.019556570798158646
1783169858917683700,5.03468359375,0.013918360695242882,0.004016518127173185,-0.016345903277397156
1783169858927752700,5.044752685546875,0.014068829827010632,-0.00815519317984581,0.006261937320232391
1783169858937822700,5.05482275390625,0.015706609934568405,-0.007841218262910843,0.02060837484896183
1783169858947892000,5.06489208984375,-0.004306778311729431,-0.00848783366382122,0.03680785372853279
1783169858957961700,5.074961669921875,-0.011263597756624222,-0.00712267030030489,0.024108726531267166
1783169858968031000,5.085031005859375,-0.009313364513218403,0.005837336182594299,0.0010183204431086779
1783169858978100700,5.095100830078125,-0.0012130001559853554,0.017393961548805237,-0.01163605134934187
1783169858988170000,5.105169921875,0.007025488652288914,0.029100418090820312,-0.005217832513153553
1783169858998239700,5.11523974609375,0.015530779026448727,0.02843155711889267,0.003535635769367218
1783169859008309000,5.12530908203125,0.023488303646445274,0.026600103825330734,0.002744943369179964
1783169859018378800,5.135378662109375,0.027709243819117546,0.03839738667011261,0.008976890705525875
1783169859028447700,5.14544775390625,0.022411150857806206,0.04201742261648178,0.009038410149514675
1783169859038518000,5.15551806640625,0.006590265315026045,0.038240909576416016,0.006509385071694851
1783169859048586800,5.165586669921875,-0.00703659700229764,0.03722731024026871,0.009189058095216751
1783169859058657000,5.175656982421875,-0.010591541416943073,0.04094789922237396,0.008870896883308887
1783169859068725800,5.185725830078125,-0.0031088569667190313,0.037842120975255966,0.0019642552360892296
1783169859078796000,5.195796142578125,0.010479170829057693,0.039211925119161606,-0.009603111073374748
1783169859088865800,5.20586572265625,0.016331998631358147,0.032235775142908096,-0.011166386306285858
1783169859098934800,5.215934814453125,0.011019038036465645,0.031420812010765076,-0.00827463436871767
1783169859109004800,5.2260048828125,-0.000046128989197313786,0.027147235348820686,-0.011093856766819954
1783169859119073800,5.23607373046875,-0.008366987109184265,0.013788051903247833,-0.016263015568256378
1783169859129144000,5.24614404296875,-0.013324194587767124,0.010082796216011047,-0.01747848279774189
1783169859139212800,5.256212890625,-0.012762314639985561,0.008289548568427563,-0.015905961394309998
1783169859149282800,5.26628271484375,-0.003368546487763524,0.007891406305134296,-0.009578822180628777
1783169859159351800,5.276351806640625,0.00813018437474966,-0.000020313076674938202,-0.0025118582416325808
1783169859169421800,5.286421875,0.013870627619326115,-0.013347836211323738,-0.002743819495663047
1783169859179490800,5.29649072265625,0.01242207083851099,-0.03456604853272438,0.008278192952275276
1783169859189560800,5.306560791015625,0.01082736998796463,-0.02715686708688736,0.00753330672159791
1783169859199629800,5.3166298828125,0.016483046114444733,-0.032139524817466736,-0.0033866683952510357
1783169859209699800,5.326699951171875,0.024026183411478996,-0.031291842460632324,0.0010067485272884369
1783169859219766800,5.336766845703125,0.02496214397251606,-0.02663261815905571,-0.0017818224150687456
1783169859229837000,5.346837158203125,0.024936044588685036,-0.01833420619368553,-0.013331152498722076
1783169859239905800,5.35690576171875,0.01789378747344017,-0.01321003120392561,-0.021535830572247505
1783169859249975800,5.366975830078125,0.012384239584207535,-0.007277039811015129,-0.018835119903087616
1783169859260044800,5.377044921875,0.00011449155863374472,-0.013483274728059769,-0.006201490294188261
1783169859270114800,5.38711474609375,0.0017709777457639575,-0.021303381770849228,-0.0022770557552576065
1783169859280183800,5.397183837890625,0.010912667028605938,-0.031190523877739906,-0.00418064882978797
1783169859290253800,5.40725390625,0.015027251094579697,-0.03067041002213955,0.008231280371546745
1783169859300323800,5.41732373046875,0.017080018296837807,-0.028706416487693787,0.018623456358909607
1783169859310392800,5.427392822265625,0.012846391648054123,-0.02788083627820015,0.019089777022600174
1783169859320462800,5.437462890625,0.007747830357402563,-0.01794528216123581,0.01356134470552206
1783169859330531800,5.44753173828125,0.00598348630592227,-0.004031330347061157,0.01003718376159668
1783169859340601900,5.457601806640625,0.00924063939601183,0.009855431504547596,-0.005166440736502409
1783169859350670800,5.4676708984375,0.006796656176447868,0.025776607915759087,-0.017810065299272537
1783169859360740900,5.477740966796875,0.010799172334372997,0.0393795520067215,-0.018498685210943222
1783169859370809900,5.487809814453125,0.018640050664544106,0.05052834004163742,-0.014513798989355564
1783169859380880000,5.4978798828125,0.019393788650631905,0.05430205166339874,-0.007492896169424057
1783169859390948900,5.507948974609375,0.020905399695038795,0.053898319602012634,-0.008963493630290031
1783169859401019000,5.518018798828125,0.013761124573647976,0.05397513508796692,-0.013377896510064602
1783169859411088000,5.528087890625,0.007370869163423777,0.05506330356001854,-0.019026726484298706
1783169859421158000,5.538157958984375,-0.0006431776564568281,0.05877094715833664,-0.026626870036125183
1783169859431226600,5.5482265625,-0.008724805898964405,0.062478870153427124,-0.02829720452427864
1783169859441297000,5.558296875,-0.0022186096757650375,0.05708171799778938,-0.03639652207493782
1783169859451366000,5.568365966796875,0.004498415160924196,0.04294352978467941,-0.04312446713447571
1783169859461436000,5.578435791015625,-0.00664450041949749,0.042996928095817566,-0.030631644651293755
1783169859471505000,5.5885048828125,-0.036418378353118896,0.04832298308610916,-0.008983871899545193
1783169859481574700,5.59857470703125,-0.05769170820713043,0.03897901624441147,0.0055849505588412285
1783169859491644000,5.608643798828125,-0.046812161803245544,0.02526267245411873,-0.008299972862005234
1783169859501713700,5.618713623046875,-0.014116236940026283,0.023425187915563583,-0.028381923213601112
1783169859511784000,5.628783935546875,-0.006899869069457054,0.031187236309051514,-0.028437314555048943
1783169859521852700,5.638852783203125,-0.020969456061720848,0.023509634658694267,-0.015176735818386078
1783169859531923000,5.6489228515625,-0.026353303343057632,0.011664693243801594,-0.02759265899658203
1783169859541992000,5.658991943359375,-0.028356723487377167,0.005318349227309227,-0.04464918375015259
1783169859552061700,5.669061767578125,-0.03372059389948845,0.007811333984136581,-0.0393524207174778
1783169859562131000,5.679130859375,-0.029674768447875977,0.005963669624179602,-0.021244075149297714
1783169859572200700,5.68920068359375,-0.019563544541597366,-0.00892313476651907,-0.02764924243092537
1783169859582270000,5.69927001953125,-0.002272859448567033,-0.02608572505414486,-0.03768714517354965
1783169859592339700,5.709339599609375,-0.0024683354422450066,-0.03710269182920456,-0.023436304181814194
1783169859602409000,5.719408935546875,-0.004526631440967321,-0.03206575661897659,-0.0038854782469570637
1783169859612478700,5.729478759765625,-0.010029254481196404,-0.03702562302350998,-0.005615999922156334
1783169859622548000,5.7395478515625,-0.022997474297881126,-0.036670394241809845,-0.027010157704353333
1783169859632618000,5.749617919921875,-0.024021459743380547,-0.0095644760876894,-0.039553649723529816
1783169859642686700,5.759686767578125,-0.02275778539478779,0.013557531870901585,-0.03432852774858475
1783169859652757000,5.769757080078125,-0.012832450680434704,0.024014700204133987,-0.040160585194826126
1783169859662825700,5.77982568359375,0.0009598575416021049,0.01953527331352234,-0.05019696056842804
1783169859672896000,5.78989599609375,0.012028487399220467,0.014551433734595776,-0.04887257143855095
1783169859682964700,5.79996484375,0.008463988080620766,-0.0002566492184996605,-0.043783314526081085
1783169859693035000,5.810034912109375,0.0073150997050106525,-0.016432423144578934,-0.04475456848740578
1783169859703103700,5.820103759765625,0.00536931399255991,-0.02203870192170143,-0.036621205508708954
1783169859713173800,5.830173828125,0.00021423306316137314,-0.020061038434505463,-0.018754327669739723
1783169859723244000,5.840244140625,0.006430850364267826,-0.02250155806541443,-0.0084193991497159
1783169859733312800,5.850312744140625,0.01996263861656189,-0.03380374610424042,-0.012154215946793556
1783169859743383000,5.860383056640625,0.020163722336292267,-0.036714982241392136,-0.015925046056509018
1783169859753451800,5.87045166015625,0.008284425362944603,-0.020285673439502716,-0.0038409545086324215
1783169859763521800,5.880521728515625,-0.011920444667339325,-0.007359755225479603,-0.005977608263492584
1783169859773590800,5.8905908203125,-0.014208633452653885,-0.004464632831513882,-0.01586991921067238
1783169859783660800,5.900660888671875,-0.008712414652109146,0.004594418220221996,-0.027819473296403885
1783169859793729800,5.910729736328125,0.0007210348267108202,0.01836162991821766,-0.028130531311035156
1783169859803799800,5.9207998046875,0.007372857537120581,0.01821458712220192,-0.02401026338338852
1783169859813868800,5.930868896484375,0.008564888499677181,0.02327539026737213,-0.016687637194991112
1783169859823938800,5.940938720703125,0.005888177081942558,0.020498786121606827,-0.014069609344005585
1783169859834007800,5.9510078125,0.0005450767930597067,0.005147526040673256,-0.0183799359947443
1783169859844077800,5.961077880859375,0.0022457558661699295,-0.006096743047237396,-0.02333042211830616
1783169859854147000,5.97114697265625,-0.0028752365615218878,-0.009560717269778252,-0.01937136799097061
1783169859864216800,5.981216796875,-0.0035962313413619995,-0.01837601512670517,-0.006970319896936417
1783169859874285800,5.991285888671875,0.006140285637229681,-0.031289950013160706,-0.008798313327133656
1783169859884355800,6.00135595703125,0.017831075936555862,-0.04318615049123764,-0.010629427619278431
1783169859894424300,6.01142431640625,0.0193200521171093,-0.04669459909200668,-0.004188040271401405
1783169859904494300,6.021494384765625,0.008122207596898079,-0.04415665566921234,0.00528023112565279
1783169859914564000,6.031564208984375,-0.0028492172714322805,-0.0308429803699255,0.005527638830244541
1783169859924633300,6.04163330078125,-0.013497613370418549,-0.026038596406579018,-0.005196324549615383
1783169859934703000,6.051703125,-0.025035493075847626,-0.02556695230305195,-0.011894173920154572
1783169859944772400,6.0617724609375,-0.03443170711398125,-0.026667777448892593,-0.01791965216398239
1783169859954842400,6.07184228515625,-0.036158233880996704,-0.015736300498247147,-0.015076194889843464
1783169859964911000,6.0819111328125,-0.02966851368546486,-0.011353779584169388,-0.018834160640835762
1783169859974981400,6.0919814453125,-0.019898708909749985,-0.010121269151568413,-0.022575102746486664
1783169859985050000,6.102050048828125,-0.012594176456332207,-0.004415223374962807,-0.02249285764992237
1783169859995120400,6.112120361328125,-0.01471804641187191,-0.004940398968756199,-0.018111959099769592
1783169860005189000,6.122189208984375,-0.019725369289517403,-0.005770735442638397,-0.020115012302994728
1783169860015259400,6.13225927734375,-0.025827202945947647,-0.0024527031928300858,-0.016059283167123795
1783169860025328000,6.142328125,-0.03406912460923195,0.007762478198856115,-0.00671729538589716
1783169860035398100,6.152398193359375,-0.03200410678982735,0.014057125896215439,0.0021483683958649635
1783169860045467100,6.162467041015625,-0.029035372659564018,0.019629407674074173,0.00048025487922132015
1783169860055537200,6.172537109375,-0.02020193263888359,0.014339838176965714,-0.006829589605331421
1783169860065606100,6.182606201171875,-0.013213187456130981,0.01503666676580906,-0.015300890430808067
1783169860075676200,6.19267626953125,-0.010105011984705925,0.022124936804175377,-0.02699323184788227
1783169860085745400,6.202745361328125,-0.006263890769332647,0.009151577949523926,-0.03754672035574913
1783169860095815200,6.212815185546875,-0.01201232336461544,0.007225046865642071,-0.025243181735277176
1783169860105885200,6.22288525390625,-0.028240030631422997,0.024482063949108124,0.00890946201980114
1783169860115954200,6.2329541015625,-0.04397664964199066,0.03786258399486542,0.032164182513952255
1783169860126024200,6.243024169921875,-0.044658370316028595,0.04058154672384262,0.01902102865278721
1783169860136093200,6.25309326171875,-0.04902489110827446,0.06201573461294174,0.003695868654176593
1783169860146163200,6.2631630859375,-0.05216284096240997,0.07668483257293701,-0.01351766288280487
1783169860156232200,6.273232177734375,-0.027944324538111687,0.07589147984981537,-0.025501089170575142
1783169860166302200,6.28330224609375,0.0021142112091183662,0.06257300078868866,-0.03394930809736252
1783169860176371500,6.293371337890625,0.02412816695868969,0.044906388968229294,-0.024342752993106842
1783169860186441200,6.303441162109375,0.033548757433891296,0.03329423815011978,-0.006836959160864353
1783169860196510200,6.31351025390625,0.0234665609896183,0.023218169808387756,0.015054491348564625
1783169860206580200,6.323580322265625,0.01073586568236351,0.010870115831494331,0.02937265858054161
1783169860216649200,6.333649169921875,0.005660413298755884,0.006625835783779621,0.03839172050356865
1783169860226719200,6.34371923828125,0.005153816193342209,0.010101251304149628,0.03908705711364746
1783169860236788200,6.353788330078125,0.01499472837895155,0.01511065661907196,0.023342447355389595
1783169860246858200,6.363858154296875,0.01853845827281475,0.015871543437242508,0.002936005126684904
1783169860256927200,6.37392724609375,0.021443167701363564,0.01702256128191948,-0.017192699015140533
1783169860266997200,6.383997314453125,0.02055937424302101,0.01740807294845581,-0.027219675481319427
1783169860277066200,6.394066162109375,0.01880328729748726,0.021095750853419304,-0.03030521422624588
1783169860287136300,6.40413623046875,0.010667611844837666,0.023531079292297363,-0.021832697093486786
1783169860297205200,6.414205322265625,-0.005669815465807915,0.028485625982284546,0.00022653164342045784
1783169860307275300,6.424275146484375,-0.012168698944151402,0.023119717836380005,0.003682131413370371
1783169860317345000,6.434344970703125,-0.003724614391103387,0.01978437416255474,-0.007959078066051006
1783169860327414300,6.444414306640625,0.003239929676055908,0.025055721402168274,-0.011350255459547043
1783169860337484000,6.454484130859375,-0.003880031406879425,0.04138915240764618,-0.005742437671869993
1783169860347553300,6.46455322265625,-0.014826923608779907,0.0459146685898304,-0.02832430601119995
1783169860357623300,6.474623291015625,-0.010621258988976479,0.05757984519004822,-0.04040200635790825
1783169860367692300,6.4846923828125,0.004369878675788641,0.041908375918865204,-0.037682946771383286
1783169860377762300,6.49476220703125,0.017048655077815056,0.04687117785215378,-0.026681696996092796
1783169860387831300,6.504831298828125,0.03809243440628052,0.035251498222351074,-0.01774231158196926
1783169860397901300,6.5149013671875,0.039640530943870544,0.03294013813138008,-0.00957892369478941
1783169860407970300,6.52497021484375,0.029476625844836235,0.03286988288164139,-0.007829967886209488
1783169860418040300,6.535040283203125,0.015929924324154854,0.02728257328271866,-0.008130372501909733
1783169860428109000,6.545109130859375,0.010440162383019924,0.021533841267228127,-0.01875774748623371
1783169860438179300,6.555179443359375,0.006844095885753632,0.015638401731848717,-0.019366014748811722
1783169860448248000,6.565248046875,0.0031667558941990137,0.023089516907930374,-0.017404139041900635
1783169860458318300,6.575318359375,-0.0015459740534424782,0.014443032443523407,-0.02327854000031948
1783169860468387000,6.585386962890625,0.009186550043523312,-0.0017480561509728432,-0.030500970780849457
1783169860478457000,6.59545703125,0.023612894117832184,-0.014200463891029358,-0.037428118288517
1783169860488526000,6.605526123046875,0.02790018916130066,-0.014528587460517883,-0.02119511552155018
1783169860498596000,6.61559619140625,0.015141251496970654,-0.01137939840555191,0.0030971751548349857
1783169860508665300,6.625665283203125,0.00204608216881752,-0.014803137630224228,0.013665957376360893
1783169860518735000,6.635735107421875,-0.0032778431195765734,-0.01783354952931404,0.0005975600797683001
1783169860528804400,6.645804443359375,0.0014321757480502129,-0.008672681637108326,-0.008704405277967453
1783169860538874000,6.6558740234375,0.0017387056723237038,0.015067001804709435,-0.001803888939321041
1783169860548944100,6.665944091796875,0.0032153651118278503,0.022636227309703827,-0.010824029333889484
1783169860559013000,6.67601318359375,0.012940697371959686,0.017698194831609726,-0.029199574142694473
1783169860569083100,6.686083251953125,0.027066543698310852,0.014255953952670097,-0.03789708763360977
1783169860579152100,6.696152099609375,0.031284723430871964,0.013989638537168503,-0.02789611741900444
1783169860589222100,6.70622216796875,0.02827782928943634,0.009416870772838593,-0.015130574814975262
1783169860599291400,6.71629150390625,0.030897580087184906,-0.00029354728758335114,-0.010205592028796673
1783169860609361200,6.726361083984375,0.026130033656954765,-0.000204368494451046,-0.0011883059050887823
1783169860619430400,6.736430419921875,0.009033870883286,0.00225612660869956,0.019708188250660896
1783169860629500200,6.746500244140625,0.000820745772216469,0.006347018294036388,0.01928848773241043
1783169860639569400,6.7565693359375,0.005417628213763237,0.007278059609234333,-0.008734358474612236
1783169860649639200,6.76663916015625,0.015246666967868805,0.008847611956298351,-0.024210965260863304
1783169860659708200,6.776708251953125,0.02154264599084854,0.011928623542189598,-0.030488034710288048
1783169860669778200,6.786778076171875,0.023265616968274117,0.0002716854214668274,-0.02805885300040245
1783169860679847200,6.79684716796875,0.022652823477983475,-0.003877519629895687,-0.02558956854045391
1783169860689917400,6.80691748046875,0.022076454013586044,0.0031632459722459316,-0.01066950336098671
1783169860699986200,6.816986083984375,0.016770372167229652,0.003828770015388727,0.002721136435866356
1783169860710056200,6.82705615234375,0.008515683934092522,-0.004286184906959534,0.00036779302172362804
1783169860720125200,6.837125244140625,0.00946909561753273,-0.0010741464793682098,-0.008902670815587044
1783169860730195200,6.8471953125,0.007402059622108936,-0.005653832107782364,-0.015510683879256248
1783169860740264200,6.85726416015625,0.015652265399694443,-0.006648256443440914,-0.025162246078252792
1783169860750334200,6.867334228515625,0.022063199430704117,-0.015323786064982414,-0.02336875908076763
1783169860760404200,6.877404296875,0.020128680393099785,-0.028684066608548164,-0.02756110578775406
1783169860770473200,6.88747314453125,0.018287211656570435,-0.03923393785953522,-0.02913573570549488
1783169860780543200,6.897543212890625,0.0043487586081027985,-0.0245218388736248,-0.0015243485104292631
1783169860790612200,6.9076123046875,-0.005344738252460957,-0.004812691360712051,0.012238300405442715
1783169860800682200,6.91768212890625,-0.009871846064925194,0.01054229587316513,0.0024096386041492224
1783169860810751200,6.927751220703125,-0.003032037988305092,0.017798569053411484,-0.01414516381919384
1783169860820821200,6.9378212890625,-0.0214264914393425,0.050594866275787354,-0.03190791606903076
1783169860830890200,6.94789013671875,-0.032051436603069305,0.05252556502819061,-0.05344543606042862
1783169860840960300,6.957960205078125,-0.01834574155509472,0.04848501831293106,-0.05670487880706787
1783169860851029200,6.968029296875,0.0007603868143633008,0.03481702506542206,-0.05592967942357063
1783169860861099300,6.978099365234375,0.008697671815752983,0.026506364345550537,-0.03191009908914566
1783169860871168300,6.988168212890625,0.015531186014413834,0.009585057385265827,-0.02651951089501381
1783169860881238300,6.99823828125,0.009817374870181084,-0.01106482744216919,-0.019465861842036247
1783169860891307000,7.00830712890625,0.004184913821518421,-0.021676350384950638,-0.010093091055750847
1783169860901377300,7.018377197265625,-0.0009568510577082634,-0.020939718931913376,-0.0069739967584609985
1783169860911446300,7.0284462890625,-0.01048586331307888,-0.00501671526581049,0.006980518810451031
1783169860921516300,7.038516357421875,-0.016607139259576797,0.022073492407798767,0.006969067268073559
1783169860931585300,7.048585205078125,-0.013796153478324413,0.02841212786734104,-0.013738147914409637
1783169860941655000,7.058655029296875,-0.009572912938892841,0.03698404133319855,-0.03338908031582832
1783169860951724300,7.068724365234375,-0.0029377571772783995,0.04582665115594864,-0.038370877504348755
1783169860961794000,7.0787939453125,0.009913592599332333,0.04398747533559799,-0.03827020898461342
1783169860971863300,7.08886328125,0.011438440531492233,0.034749798476696014,-0.03925687447190285
1783169860981933000,7.09893310546875,0.015490174293518066,0.029024802148342133,-0.03802303224802017
1783169860992003300,7.10900341796875,0.0026575280353426933,0.023150233551859856,-0.012182086706161499
1783169861002072300,7.119072265625,-0.0007135013584047556,0.023424804210662842,0.003470642026513815
1783169861012142000,7.12914208984375,-0.00018155784346163273,0.01962888613343239,-0.0012949963565915823
1783169861022211300,7.13921142578125,0.006796456873416901,0.023985818028450012,-0.01974058337509632
1783169861032281000,7.149281005859375,0.015814295038580894,0.024377010762691498,-0.04108598455786705
1783169861042350300,7.159350341796875,0.018767474219202995,0.0360480472445488,-0.06244266778230667
1783169861052420000,7.169420166015625,0.03243505209684372,0.02964198589324951,-0.0669688731431961
1783169861062489300,7.1794892578125,0.04003278538584709,0.015777304768562317,-0.0815640538930893
1783169861072559000,7.18955908203125,0.04345189407467842,0.012165503576397896,-0.06745385378599167
1783169861082628400,7.19962841796875,0.03598891943693161,0.019857510924339294,-0.04446970671415329
1783169861092698400,7.209698486328125,0.022063245996832848,0.0019493508152663708,-0.05571703240275383
1783169861102767000,7.21976708984375,0.015145685523748398,-0.010911320336163044,-0.08245517313480377
1783169861112837400,7.22983740234375,0.01273128017783165,-0.031122002750635147,-0.0902620479464531
1783169861122906000,7.239906005859375,0.0030397698283195496,-0.017188075929880142,-0.06243175268173218
1783169861132976400,7.249976318359375,0.009237634018063545,-0.03478817269206047,-0.05538589134812355
1783169861143045000,7.260045166015625,0.01932169310748577,-0.05771505832672119,-0.07276035100221634
1783169861153115400,7.270115478515625,0.017091844230890274,-0.05341578274965286,-0.057857099920511246
1783169861163184000,7.28018408203125,0.017742455005645752,-0.03560110181570053,-0.05537530034780502
1783169861173254100,7.290254150390625,0.004668230656534433,-0.035788312554359436,-0.04573345184326172
1783169861183323100,7.3003232421875,-0.014677237719297409,-0.025679221376776695,-0.04070247337222099
1783169861193393200,7.31039306640625,-0.029063649475574493,-0.018060054630041122,-0.023906653746962547
1783169861203462100,7.320462158203125,-0.030576059594750404,-0.0006757369264960289,-0.029800761491060257
1783169861213532200,7.3305322265625,-0.02682139351963997,0.0035300832241773605,-0.04987863823771477
1783169861223602200,7.340602294921875,-0.02232464589178562,0.020700547844171524,-0.06479740142822266
1783169861233671200,7.350671142578125,-0.01735072210431099,0.03203574940562248,-0.07933081686496735
1783169861243741200,7.3607412109375,-0.010096005164086819,0.03357931971549988,-0.0845641940832138
1783169861253810200,7.37081005859375,-0.0067123183980584145,0.03292788565158844,-0.06237342953681946
1783169861263880200,7.380880126953125,-0.007873989641666412,0.030085496604442596,-0.03868461027741432
1783169861273949200,7.39094921875,-0.011135655455291271,0.030498981475830078,-0.027126656845211983
1783169861284019200,7.401019287109375,-0.009542020037770271,0.01504066213965416,-0.04274023696780205
1783169861294088200,7.411088134765625,-0.005455088336020708,-0.0007535172626376152,-0.03988603875041008
1783169861304158200,7.421158203125,-0.006515559274703264,0.00597362732514739,-0.005200497806072235
1783169861314227200,7.431227294921875,-0.006333193276077509,0.009050545282661915,0.01035473495721817
1783169861324297200,7.441297119140625,-0.008525773882865906,0.0003944728523492813,0.004699512850493193
1783169861334366200,7.4513662109375,-0.004589449614286423,-0.004700436256825924,0.007424839772284031
1783169861344436200,7.461436279296875,-0.009035596624016762,-0.013001242652535439,0.008639240637421608
1783169861354505200,7.471505126953125,-0.016855672001838684,-0.0050778016448020935,0.012450098991394043
1783169861364575200,7.4815751953125,-0.01982962340116501,-0.004063935950398445,0.023458009585738182
1783169861374644200,7.491644287109375,-0.02184513956308365,-0.010892463847994804,0.021565429866313934
1783169861384714200,7.50171435546875,-0.018450675532221794,-0.0327245257794857,0.008256015367805958
1783169861394783200,7.511783203125,-0.007466823793947697,-0.0405639111995697,0.01245539728552103
1783169861404853000,7.52185302734375,-0.015625150874257088,-0.023966025561094284,0.04680058732628822
1783169861414922200,7.531922119140625,-0.025478394702076912,-0.009442356415092945,0.06607286632061005
1783169861424992300,7.5419921875,-0.0210836473852396,-0.006760818883776665,0.053660403937101364
1783169861435061200,7.552061279296875,-0.016697324812412262,0.0031219199299812317,0.03181278705596924
1783169861445131300,7.56213134765625,-0.018765004351735115,-0.0037194741889834404,0.01870817132294178
1783169861455200300,7.5722001953125,-0.022620823234319687,-0.005931244231760502,0.022922467440366745
1783169861465270300,7.582270263671875,-0.019773371517658234,-0.018749304115772247,0.013013111427426338
1783169861475340000,7.592340087890625,-0.006654903758317232,-0.02953173592686653,0.0006704162806272507
1783169861485409300,7.6024091796875,-0.0025011710822582245,-0.03850898519158363,0.00996298436075449
1783169861495479000,7.61247900390625,-0.012399123050272465,-0.029655180871486664,0.04430517181754112
1783169861505548300,7.62254833984375,-0.025287223979830742,-0.015764132142066956,0.05031512677669525
1783169861515618300,7.632618408203125,-0.023516381159424782,-0.026711881160736084,0.026888463646173477
1783169861525687300,7.642687255859375,-0.021567746996879578,-0.02621520310640335,0.0015700561925768852
1783169861535757300,7.65275732421875,-0.018264155834913254,-0.015831369906663895,-0.0013394712004810572
1783169861545826300,7.662826416015625,-0.020991764962673187,-0.006449052132666111,-0.000595384044572711
1783169861555896300,7.672896240234375,-0.01950528286397457,-0.01162385568022728,0.007552404887974262
1783169861565965000,7.682965087890625,-0.01461731642484665,-0.0171579048037529,0.000010865740478038788
1783169861576035300,7.693035400390625,-0.006754130125045776,-0.023518608883023262,-0.0009502822067588568
1783169861586104000,7.70310400390625,-0.002274693688377738,-0.014478510245680809,0.00562639394775033
1783169861596174300,7.71317431640625,-0.007680489681661129,0.0032856897450983524,0.019059285521507263
1783169861606243000,7.7232431640625,-0.010709568858146667,-0.0020824437960982323,0.02397521398961544
1783169861616313300,7.733313232421875,-0.007956000044941902,0.0029248520731925964,0.009907628409564495
1783169861626382000,7.743382080078125,-0.0029969275929033756,0.005688147619366646,-0.007382145617157221
1783169861636452000,7.7534521484375,0.0025499837938696146,0.011676144786179066,-0.005643683485686779
1783169861646521300,7.763521240234375,0.006588667631149292,0.021738100796937943,-0.0043131690472364426
1783169861656591000,7.773591064453125,0.009900575503706932,0.01510309986770153,0.00766013702377677
1783169861666660400,7.783660400390625,0.02011140063405037,0.009121640585362911,-0.0019072690047323704
1783169861676730000,7.793730224609375,0.019936084747314453,0.00014397874474525452,-0.004666520748287439
1783169861686799400,7.80379931640625,0.01690620742738247,-0.009970706887543201,-0.00728653883561492
1783169861696869000,7.813869140625,0.016154034063220024,-0.015032326802611351,-0.005209694150835276
1783169861706939100,7.823939208984375,0.004394846968352795,-0.007058023475110531,0.008662179112434387
1783169861717008100,7.834008056640625,0.0008416416239924729,-0.011291254311800003,0.0188757311552763
1783169861727078100,7.844078125,-0.0017229823861271143,-0.008073089644312859,0.021575378254055977
1783169861737147400,7.8541474609375,0.0007429179386235774,-0.006138956174254417,0.019809387624263763
1783169861747217200,7.864217041015625,-0.006449214648455381,0.0032377676106989384,0.025035841390490532
1783169861757286400,7.874286376953125,-0.002843390218913555,0.004499558359384537,0.021592218428850174
1783169861767356200,7.884356201171875,0.0052171992138028145,-0.0036198869347572327,0.0012462004087865353
1783169861777425400,7.89442529296875,0.00739540159702301,-0.000040687620639801025,-0.007740379311144352
1783169861787495200,7.9044951171875,0.0044278413988649845,0.0012722508981823921,-0.003468668321147561
1783169861797564200,7.914564208984375,0.0061319791711866856,0.007391348946839571,-0.003378848545253277
1783169861807634200,7.92463427734375,0.011748852208256721,-0.003039187751710415,-0.010685497894883156
1783169861817703200,7.934703125,0.01472984068095684,-0.004509367980062962,-0.005678928457200527
1783169861827773400,7.9447734375,0.01321796327829361,-0.007837519980967045,-0.004595021717250347
1783169861837842200,7.95484228515625,0.007689363323152065,-0.0036400016397237778,0.003204077947884798
1783169861847912200,7.964912109375,0.0026701041497290134,-0.004188613034784794,0.009167428128421307
1783169861857981200,7.974981201171875,0.0038831462152302265,-0.0023303544148802757,0.010095128789544106
1783169861868051200,7.98505126953125,0.007109299302101135,0.0007051164284348488,0.01045199204236269
1783169861878120200,7.9951201171875,0.011740035377442837,0.005371246486902237,0.004838720429688692
1783169861888190200,8.005190185546875,0.0068110572174191475,0.005384029820561409,-0.0005294133443385363
1783169861898259500,8.015259521484374,0.004525202792137861,0.00813080370426178,-0.002133714035153389
1783169861908329200,8.0253291015625,0.005450917407870293,-0.004122932441532612,-0.008196933194994926
1783169861918398500,8.0353984375,0.006867341697216034,-0.013265982270240784,0.0005948690231889486
1783169861928468200,8.04546826171875,0.004073685966432095,-0.008164696395397186,0.012203854508697987
1783169861938537500,8.055537353515625,0.0007941302610561252,-0.012447837740182877,0.02862626500427723
1783169861948607500,8.065607421875,0.0027227913960814476,-0.010292276740074158,0.029856912791728973
1783169861958676200,8.07567626953125,0.004558647982776165,0.0007805945351719856,0.027213163673877716
1783169861968746500,8.08574658203125,0.007950982078909874,0.0003190683200955391,0.0053110611625015736
1783169861978816300,8.095816162109376,0.017075253650546074,0.004769079387187958,-0.016644898802042007
1783169861988885500,8.105885498046876,0.017871271818876266,0.01119022723287344,-0.014023817144334316
1783169861998955300,8.115955322265625,0.00896000862121582,0.011131007224321365,-0.012920759618282318
1783169862009024300,8.126024169921875,0.01221412606537342,-0.004683376289904118,-0.021436750888824463
1783169862019094300,8.13609423828125,0.007449854630976915,-0.007703025825321674,-0.014035254716873169
1783169862029163300,8.146163330078124,0.009192094206809998,-0.01273240428417921,-0.00047284085303545
1783169862039233500,8.156233642578124,0.003663058392703533,-0.014231107197701931,0.019175084307789803
1783169862049302300,8.16630224609375,-0.0023002917878329754,-0.01852066069841385,0.01674814708530903
1783169862059372500,8.17637255859375,-0.003703639144077897,-0.021483447402715683,0.005603852216154337
1783169862069441300,8.186441162109375,-0.009535429067909718,-0.010137848556041718,0.00008178781718015671
1783169862079511300,8.19651123046875,-0.014553890563547611,-0.0011890940368175507,0.0060075875371694565
1783169862089580300,8.206580322265625,-0.013053464703261852,0.0002719154581427574,-0.0006596359889954329
1783169862099650300,8.216650390625,-0.004998825490474701,-0.006832703948020935,-0.010336922481656075
1783169862109719300,8.22671923828125,0.0015871718060225248,-0.005950398743152618,-0.0029780766926705837
1783169862119789300,8.236789306640626,-0.0011077763047069311,0.002920308616012335,0.013642556965351105
1783169862129858300,8.2468583984375,-0.0076354509219527245,0.006731292232871056,0.02083255909383297
1783169862139928300,8.25692822265625,-0.009197628125548363,0.008233586326241493,0.013332972303032875
1783169862149997300,8.266997314453125,-0.009700966998934746,-0.004538668319582939,-0.008165395818650723
1783169862160067300,8.2770673828125,-0.008493898436427116,0.001095626037567854,-0.0032683436293154955
1783169862170136600,8.287136474609374,-0.00454363226890564,0.001031443476676941,0.0029610563069581985
1783169862180206300,8.297206298828126,-0.003036624053493142,-0.007672801613807678,0.0060149491764605045
1783169862190275300,8.307275390625,-0.004924804903566837,-0.004000036045908928,0.011083210818469524
1783169862200345300,8.317345458984375,-0.001350044272840023,-0.01093330979347229,0.00025346665643155575
1783169862210414300,8.327414306640625,0.0019104639068245888,-0.010341554880142212,-0.0048057399690151215
1783169862220484400,8.337484375,-0.004239670000970364,-0.005549478344619274,0.003013411769643426
1783169862230553300,8.34755322265625,-0.004212771542370319,0.008596167899668217,0.008470228873193264
1783169862240623400,8.357623291015624,-0.0005602140445262194,0.009057432413101196,0.0006896776612848043
1783169862250693400,8.367693359375,-0.002528822747990489,0.013246318325400352,0.0004971311427652836
1783169862260762400,8.377762451171876,-0.00476837158203125,0.019172634929418564,0.003400086658075452
1783169862270832400,8.387832275390625,0.002763048280030489,0.021605433896183968,-0.001439409563317895
1783169862280901400,8.3979013671875,0.007659226655960083,0.019225668162107468,-0.017740700393915176
1783169862290971400,8.407971435546875,0.010773527435958385,0.01292409747838974,-0.019579080864787102
1783169862301040400,8.418040283203124,0.005708413664251566,0.013188408687710762,-0.0033490550704300404
1783169862311110100,8.428110107421874,0.006200299598276615,0.006176038645207882,0.0037682431284338236
1783169862321179400,8.438179443359376,0.003843778744339943,0.0009449427016079426,0.0003261971287429333
1783169862331249200,8.448249267578126,-0.0011235491838306189,-0.004183772951364517,0.00027453177608549595
1783169862341318400,8.458318359375,-0.006687834393233061,-0.0026755155995488167,0.013380782678723335
1783169862351388400,8.468388427734375,-0.0073118130676448345,-0.015408887527883053,0.004135086666792631
1783169862361457400,8.47845751953125,-0.00044355192221701145,-0.014810747466981411,-0.002970367204397917
1783169862371527400,8.48852734375,0.003975697327405214,-0.023276139050722122,0.0013985484838485718
1783169862381596400,8.498596435546874,0.012881983071565628,-0.03441678360104561,0.006801534444093704
1783169862391666400,8.50866650390625,0.013894516974687576,-0.035247690975666046,0.017636604607105255
1783169862401735400,8.5187353515625,0.00541344191879034,-0.02696196734905243,0.016150441020727158
1783169862411805400,8.528805419921875,-0.010475508868694305,-0.026037048548460007,0.014324843883514404
1783169862421874200,8.538874267578125,-0.00954725407063961,-0.012425212189555168,0.013643573969602585
1783169862431944400,8.5489443359375,-0.0009473741520196199,-0.011023590341210365,0.009809155017137527
1783169862442013200,8.55901318359375,0.004215648397803307,-0.0014946749433875084,0.004207917023450136
1783169862452083500,8.56908349609375,0.0073893372900784016,-0.003286183811724186,-0.010237867012619972
1783169862462152200,8.579152099609376,0.010543899610638618,-0.016570955514907837,-0.0335625521838665
1783169862472222200,8.58922216796875,0.013795885257422924,-0.008723951876163483,-0.04101727530360222
1783169862482291500,8.59929150390625,0.012405394576489925,-0.010264640673995018,-0.03358260914683342
1783169862492361200,8.609361328125,0.011404312215745449,-0.010776767507195473,-0.03262759745121002
1783169862502430500,8.619430419921875,0.008544771000742912,-0.015618367120623589,-0.038286637514829636
1783169862512500200,8.629500244140624,0.008876867592334747,-0.015707850456237793,-0.04953210428357124
1783169862522569500,8.639569580078126,0.014736764132976532,-0.02059619128704071,-0.06126229465007782
1783169862532639200,8.64963916015625,0.004481996409595013,-0.011457023210823536,-0.03443307802081108
1783169862542709200,8.659709228515625,-0.002735910937190056,-0.02454715594649315,0.006204378791153431
1783169862552778200,8.6697783203125,0.000584518420509994,-0.01655128225684166,0.006734614260494709
1783169862562848300,8.67984814453125,0.0008988036424852908,-0.014635933563113213,0.006133147515356541
1783169862572917500,8.68991748046875,-0.00022531661670655012,-0.00550342071801424,0.011948691681027412
1783169862582987300,8.6999873046875,-0.004069664515554905,0.000968622975051403,0.025971081107854843
1783169862593056500,8.710056396484376,-0.0003343145363032818,0.016886603087186813,0.01974807307124138
1783169862603126300,8.720126220703126,0.009978525340557098,0.02335396036505699,-0.002312019933015108
1783169862613195500,8.730195556640625,0.014218544587492943,0.014528511092066765,-0.0032372022978961468
