time,seconds_elapsed,z,y,x
1783174251531438000,0.07843798828125,1.0558294881254433,-0.1793522124134004,0.10567132852226495
1783174251541506300,0.08850634765625,0.8615344119936227,-0.22700711303576826,0.0039661271519958975
1783174251551575300,0.0985751953125,0.42761400266289706,-0.10775237258002161,0.014923976354859769
1783174251561644000,0.10864404296875,0.05894084926843643,0.006743921302258968,0.014446933427639305
1783174251571712300,0.118712158203125,-0.3156231157302856,0.014436960022896527,-0.046690256841294464
1783174251581781200,0.12878125,-0.525952211818099,-0.043675183336436746,-0.13287621937729419
1783174251591850200,0.138850341796875,-0.5349976880609989,-0.05189356110543012,-0.3438253470595926
1783174251601918200,0.148918212890625,-0.3913602014988661,-0.11322335133701562,-0.4597845896339044
1783174251611987200,0.1589873046875,-0.26266777061223984,-0.2845332732006907,-0.5266523594440892
1783174251622055200,0.16905517578125,0.008989362141489982,-0.2827338225632906,-0.58011821136754
1783174251632124200,0.179124267578125,0.35632045229971404,-0.18413813151568173,-0.463678893658705
1783174251642193200,0.189193115234375,0.5787251861065625,-0.05064794495850801,-0.23264384028110652
1783174251652261400,0.199261474609375,0.6100245797336101,0.0431239791944623,-0.06705510907582939
1783174251662330000,0.209330078125,0.2913385693013668,-0.016264321580529213,0.012567914748005568
1783174251672399400,0.2193994140625,-0.010515548795461654,-0.12282412337511778,0.05760167308654636
1783174251682467300,0.22946728515625,-0.07146656884253025,-0.10170374006554483,-0.014313918165117501
1783174251692536000,0.2395361328125,-0.00805880329310894,-0.012978285647183656,-0.20179456504173576
1783174251702604300,0.249604248046875,0.10753799917697907,0.029957039107382295,-0.13398885679431258
1783174251712673300,0.25967333984375,0.18420915092527865,0.15739683958441017,-0.09711451257914304
1783174251722742000,0.269741943359375,-0.00426642527282238,0.21501856907829642,-0.41979985831324007
1783174251732810200,0.279810302734375,-0.4663531909018755,0.08478095457628369,-0.44459567873254413
1783174251742879200,0.289879150390625,-0.5557487996667623,-0.09317337373793125,0.6490299446281045
1783174251752948200,0.2999482421875,-0.09528291323781013,-0.05101531696617603,0.4434476777411997
1783174251763016200,0.31001611328125,0.33332536115944383,-0.06693681645840406,-0.0756659932937473
1783174251773085200,0.320085205078125,0.5693634835213423,-0.1268155310988426,-0.1370563911387697
1783174251783154200,0.330154296875,0.6332073024004697,-0.060113984701037404,0.03175086372159421
1783174251793222100,0.34022216796875,0.34473815105557437,-0.020509119543433187,0.006224500538036227
1783174251803291100,0.350291015625,-0.023498364487290382,0.04585764194205403,-0.2771005293840542
1783174251813359400,0.360359375,-0.3028834611445665,0.08692468860670924,-0.5857611491579562
1783174251823428000,0.370427978515625,-0.4165028260618448,0.022236235596984625,-0.5794090036522597
1783174251833497300,0.380497314453125,-0.34308453862965105,-0.026528672093898056,-0.36555893036406484
1783174251843565300,0.3905654296875,-0.2743132002204656,0.04818944589048624,-0.30859708955101667
1783174251853634000,0.400634033203125,-0.06399754813611506,0.06791033766567707,-0.4717059135740623
1783174251863703300,0.410703369140625,0.03212240044772625,0.06802841108739376,-0.5389486176438629
1783174251873771300,0.420771240234375,-0.0592079757720232,0.028229484662413595,-0.5062644185949117
1783174251883840000,0.430840087890625,-0.17200842552185058,0.07527092956155539,-0.332089535754174
1783174251893908200,0.440908203125,-0.09015782530903815,0.07078808505907655,-0.23777234400967134
1783174251903977200,0.450977294921875,-0.12125380531847477,0.048043023157119745,-0.23074246363919226
1783174251914046200,0.461046142578125,-0.1659469335258007,0.008019201935082673,-0.3607269801629707
1783174251924114200,0.4711142578125,-0.12221768191456794,-0.08326558157727122,-0.7901588824354112
1783174251934183200,0.48118310546875,-0.2115378873556852,-0.19889014883711933,-1.2739666276156902
1783174251944252200,0.491252197265625,-0.506056255736947,-0.3326150209330022,-1.5500354393318294
1783174251954320100,0.501320068359375,-0.6838964561522006,-0.3169496881589293,-1.5557595160670576
1783174251964389000,0.51138916015625,-0.6077957977682352,-0.20913550238907336,-1.116123067177087
1783174251974458000,0.5214580078125,-0.443000372365117,-0.10465177621617913,-0.47333808135315775
1783174251984526000,0.531526123046875,-0.3394488124758005,-0.05941957269608974,0.12596793782617896
1783174251994595300,0.54159521484375,-0.2232119585365057,-0.012810673995316027,0.6481814380399883
1783174252004663300,0.551663330078125,-0.19251228436827658,0.04684110002145171,1.0006976757511497
1783174252014732000,0.56173193359375,-0.2581763044118881,0.12219795430079101,1.037948671258986
1783174252024801300,0.57180126953125,-0.2748462841838598,0.20870207940787075,0.8425729602836072
1783174252034869200,0.581869140625,-0.1860159080862999,0.18674977531880138,0.5957761645527556
1783174252044938000,0.59193798828125,-0.4573223277062177,0.1406641698397696,0.28987737417500464
1783174252055007200,0.60200732421875,-0.8773819694668054,0.10567761213257908,0.06107417150270193
1783174252065075200,0.6120751953125,-1.1164590211331844,0.05692614844515919,-0.1474236357710324
1783174252075144200,0.622144287109375,-1.0393746124088763,0.06605798779726028,-0.14306744985552503
1783174252085212200,0.632212158203125,-0.8383212941884994,0.14445260233730076,0.055446148153627285
1783174252095281200,0.64228125,-0.5789356139868498,0.29981881287693973,0.29830720273759215
1783174252105350100,0.65235009765625,-0.36427228808701034,0.48116789819598194,0.49751120329685505
1783174252115418000,0.662418212890625,-0.1978665048778057,0.5611180716149509,0.6428087320256978
1783174252125487000,0.672487060546875,-0.0909399155974388,0.5306580514214932,0.6080496629314497
1783174252135556000,0.68255615234375,0.07691548189818859,0.42273149131834503,0.45881410063393413
1783174252145624000,0.6926240234375,0.21061668085753915,0.3044906040802598,0.27365413352353496
1783174252155693300,0.702693359375,0.1575543682336807,0.17996479135379195,0.15937327249022198
1783174252165761300,0.71276123046875,-0.07144961770772934,0.10761895545870065,0.027208039510052184
1783174252175830300,0.722830322265625,-0.1546978097587824,0.0889469882145524,-0.0009245127000845968
1783174252185899300,0.732899169921875,-0.1647872420966625,0.08245324228107928,0.15810750860441475
1783174252195967200,0.74296728515625,-0.25085633678734304,0.0690777740098536,0.2887582887508906
1783174252206036200,0.7530361328125,-0.34624738657474513,0.05590469644293189,0.3215108585946262
1783174252216105200,0.763105224609375,-0.4887731125026941,0.08597337923124432,0.21410729945227502
1783174252226173200,0.773173095703125,-0.5318862780421972,0.06478036907687783,0.10022172134686261
1783174252236242200,0.7832421875,-0.30865503028333185,-0.04487842164635658,0.023411818714998662
1783174252246311200,0.793311279296875,-0.15157354025840758,-0.12626914926245808,0.009821721312403678
1783174252256379400,0.80337939453125,-0.15811901637911796,-0.0628109687000513,0.06472392618190496
1783174252266448400,0.813448486328125,-0.14559855750203132,0.03685702775418758,0.06764843532647938
1783174252276516000,0.82351611328125,0.03150456081032753,0.09063260321393608,0.05927521405564621
1783174252286585300,0.83358544921875,0.26020108823776245,0.07857742376103997,0.08840137356314808
1783174252296654300,0.843654296875,0.5043552970379591,0.08782558296918869,0.11466503804530948
1783174252306722000,0.85372216796875,0.8954203149825334,0.17948840601369737,0.3272380771350115
1783174252316791300,0.863791259765625,0.3604892624169588,0.02118058906421065,0.3487348925415426
1783174252326860300,0.8738603515625,-0.4532400268286466,0.049174657535552974,0.1323932398996316
1783174252336928300,0.88392822265625,-0.8475748602241278,0.14184139692559838,-0.015357253205589949
1783174252346997200,0.893997314453125,-0.9770008660823106,0.2112162541858852,-0.0187742220422253
1783174252357065200,0.904065185546875,-0.9409405416637658,0.20566329623386262,-0.07711401841128245
1783174252367134200,0.91413427734375,-0.6419067416846752,0.15080767045244572,-0.24483685730211435
1783174252377203200,0.924203125,-0.23691198258697985,0.13722308947518466,-0.4133983572404831
1783174252387271200,0.934271240234375,0.15920914970338343,0.1097140280418098,-0.46594464663360263
1783174252397340400,0.94434033203125,0.4336141198605299,-0.026513620655238625,-0.5041821324281395
1783174252407409200,0.9544091796875,0.7352846980839968,-0.1344182611875236,-0.5256138101765886
1783174252417477400,0.964477294921875,0.9465256483197212,-0.2186971114605665,-0.47837691577058283
1783174252427546400,0.97454638671875,1.0210112727224827,-0.2514244920641184,-0.304060943958722
1783174252437614000,0.984614013671875,0.975838252043724,-0.25271993870213627,-0.11993234745636581
1783174252447683300,0.994683349609375,0.8943968171536922,-0.18524594662711022,0.033542898237518964
1783174252457752300,1.00475244140625,0.9181617236226797,-0.19881679133996366,0.15767821380905805
1783174252467820300,1.0148203125,0.9404542194515466,-0.2800767321832478,0.24361542574837802
1783174252477889300,1.02488916015625,1.1007131704688071,-0.3646861295849085,0.23149996747560797
1783174252487958300,1.034958251953125,1.257154024502635,-0.38645343249589204,0.290666624856554
1783174252498026500,1.045026611328125,1.3744675677627325,-0.4820809213876724,0.27034126438219097
1783174252508095200,1.05509521484375,1.453113818976283,-0.6503169887639582,0.21408187275007365
1783174252518164200,1.065164306640625,1.3998054226368666,-0.7199103110805154,0.11791172834895551
1783174252528232400,1.075232421875,1.1577169141948223,-0.5764980115763843,0.03374419296327978
1783174252538301200,1.08530126953125,0.9035773179531097,-0.2793587931722402,0.05551295717898756
1783174252548369200,1.095369140625,0.6572200461506843,0.07497443083301186,0.10907434189878404
1783174252558438400,1.1054384765625,0.4775537993520498,0.43728900898098944,-0.04237517012115568
1783174252568507100,1.115507080078125,0.581505172213912,0.7104175294615328,-0.21690778035838157
1783174252578575400,1.125575439453125,1.0858668989926576,0.7806926965624094,-0.31691330167129633
1783174252588644400,1.135644287109375,1.9234499420344828,0.7221776714906096,-0.4097876924626529
1783174252598713000,1.145713134765625,2.6961054626137018,0.6441539360895753,-0.46990628027357156
1783174252608781300,1.15578125,3.1527672805845737,0.6445866284184157,-0.5447847764514386
1783174252618850300,1.165850341796875,3.353289852929115,0.6298186828754841,-0.6018045945294201
1783174252628918300,1.175918212890625,3.356621043178439,0.5717855961017311,-0.41713505955077707
1783174252638987300,1.1859873046875,3.086483667337894,0.42221375105455516,-0.18285013753175736
1783174252649056300,1.19605615234375,2.610857036656141,0.12715893770903347,-0.11471190939433872
1783174252659124500,1.20612451171875,2.0291051962047812,-0.17261662054806948,-0.19182386371269822
1783174252669193200,1.216193115234375,1.431828454363346,-0.22121084784716366,-0.1094873066138476
1783174252679262200,1.22626220703125,1.0010632941931485,0.5991831599846482,-0.0945455388739705
1783174252689330400,1.236330322265625,1.3626111257523297,1.049935900042206,0.7219204818591475
1783174252699399200,1.246399169921875,2.130593393823504,1.076100999520719,1.5223174113228917
1783174252709468400,1.256468505859375,2.720451383841038,1.349049925650656,1.1361709258843213
1783174252719536400,1.266536376953125,3.034467064374685,1.1901708846844732,0.4385108058609068
1783174252729605000,1.276605224609375,2.8688030394434927,0.7108994677595794,0.012750322110205888
1783174252739673300,1.28667333984375,1.9448603943318128,0.009847878666967153,-0.0007798983313143253
1783174252749742300,1.296742431640625,0.2978197480142116,-0.6457147556655108,-0.08592135678306222
1783174252759811000,1.30681103515625,-0.970800842398405,-0.7933860277883708,-0.38263416646867987
1783174252769879300,1.31687939453125,-0.7800625819653272,-0.04459215205088257,-0.045359044770151374
1783174252779948300,1.3269482421875,-0.41341187430918214,0.2775055665209889,-0.722746557419747
1783174252790017300,1.337017333984375,-0.2743582084059715,0.028367285697907207,0.23010858618244528
1783174252800085200,1.347085205078125,-0.0559966125100851,-0.2634291103735566,1.4313599600687623
1783174252810154200,1.357154296875,-0.01407236449420452,-0.07188786299452185,1.4451456165760754
1783174252820222500,1.367222412109375,-0.30492578062713144,0.241895031696558,0.8843827881395816
1783174252830291200,1.377291259765625,-0.5216840329796075,0.020654519363492725,0.35634734030663967
1783174252840360200,1.387360107421875,-0.7891501437842845,-0.40574265485554933,-0.12243936184123158
1783174252850428400,1.397428466796875,-2.0789280885159966,-0.8709032749719917,-0.7067847259171307
1783174252860497200,1.4074970703125,-3.5409874304920432,-0.9224095903255045,-0.5113555311888456
1783174252870566400,1.41756640625,-4.637416055509448,-0.2736092897348106,0.38524317992329593
1783174252880634400,1.42763427734375,-5.972576279756426,0.424480965334177,1.724904514981806
1783174252890703000,1.437703125,-7.05828185070753,0.700349724433571,2.8482167630106208
1783174252900772400,1.4477724609375,-8.043874604046344,0.15223814164698124,3.1526071215867995
1783174252910840300,1.45784033203125,-9.206185860294102,-1.121550352922827,2.202437856067717
1783174252920909000,1.467908935546875,-9.879848507201672,-2.5025427924096584,0.5742437298435717
1783174252930977300,1.477977294921875,-10.231197600829601,-3.747731653830409,-0.8620510562788695
1783174252941046300,1.48804638671875,-11.683322993290423,-4.365396226923168,-1.6437642549954354
1783174252951115300,1.498115234375,-14.05820737403631,-3.5806431490540502,-1.595243092932552
1783174252961183200,1.508183349609375,-16.037437070959804,-1.4408280456379055,-0.07764259972949512
1783174252971252200,1.518252197265625,-16.883960376304387,0.5830183532558382,1.409610485075414
1783174252981321200,1.5283212890625,-17.144267847526073,1.506406140963733,1.3957804049044846
1783174252991389200,1.53838916015625,-16.728149052345753,0.7571265275359154,-0.10279818423874676
1783174253001458200,1.548458251953125,-14.531331081986426,-0.6043642158843576,-1.676379261265695
1783174253011526400,1.5585263671875,-10.534831003558635,-1.1673662015497683,-1.915164198117703
1783174253021595100,1.56859521484375,-6.5505158684432505,-1.1366815788201987,-1.1068385945465415
1783174253031664400,1.578664306640625,-2.839085362049937,-0.5047172622181475,-0.017931012683734298
1783174253041732400,1.588732421875,0.25385376503765583,-0.09069324735999107,0.5795153135709464
1783174253051801000,1.598801025390625,2.75034266423583,-0.01908990039527416,0.5033913473766297
1783174253061870300,1.608870361328125,4.736154077637195,-0.12641805621385574,0.21784641291536389
1783174253071938300,1.618938232421875,6.080929102447628,-0.198655755559355,0.05692381035760045
1783174253082007300,1.62900732421875,6.55838645568788,0.0486408429197967,0.3162329912569374
1783174253092075300,1.6390751953125,6.1553276330888265,0.36793592516109347,-0.6826155494961887
1783174253102144300,1.649144287109375,4.880942487800121,0.41404315795004365,0.01029949489198625
1783174253112213200,1.659213134765625,3.668843410554528,0.7985539319455623,0.639701778986305
1783174253122281200,1.66928125,2.937037202236056,1.0964414114337413,0.68738758620359
1783174253132350200,1.67935009765625,3.253751035812497,0.9231273832060396,0.6688949941143393
1783174253142419500,1.68941943359375,4.617333636945486,0.8174255134150386,0.439497917202115
1783174253152487200,1.699487060546875,6.269236920863389,0.5080497676417232,0.48464079847093666
1783174253162556200,1.70955615234375,7.98302645985186,0.07746595538780093,0.641223947052285
1783174253172624400,1.719624267578125,9.000061814680695,-0.09914338805824517,0.7858712682440876
1783174253182692900,1.72969287109375,9.446916524386406,-0.12827873551920055,0.9577221651166677
1783174253192761600,1.73976171875,9.803257434952258,-0.19371391524299977,1.1359705079413949
1783174253202829800,1.749829833984375,10.240995356744527,-0.22418737943992018,1.0046054968446492
1783174253212898800,1.75989892578125,10.555179379582404,-0.18442746985107658,0.7414364987120032
1783174253222967800,1.7699677734375,10.867227559435367,0.04284574677497148,0.5155109703678638
1783174253233035800,1.780035888671875,10.943727446269989,0.26891251022070645,0.3615637597806752
1783174253243104800,1.790104736328125,10.345389797198772,0.39462928629741073,0.28940807616282255
1783174253253173800,1.800173828125,9.491152556475996,0.6749971103817224,0.077831610362418
1783174253263241700,1.81024169921875,8.895153579485417,1.0242572689063847,-0.1090248036686331
1783174253273310700,1.820310791015625,8.76233910023272,1.0042375403150916,-0.460166392025724
1783174253283379000,1.83037890625,9.37139162006378,0.6069891575604677,-0.8553007052358239
1783174253293447700,1.84044775390625,10.243493603301047,0.540672518827021,-0.8273127011790871
1783174253303517000,1.850516845703125,10.572726726710796,0.9058638214550911,-0.48120370016172526
1783174253313585000,1.8605849609375,10.22731988261342,1.327799924612045,-0.18149439380755647
1783174253323653600,1.870653564453125,9.495082881662249,1.6366325034193694,-0.2301051338500343
1783174253333723000,1.880722900390625,8.335992341026664,1.6068185260444878,-0.48111379338856786
1783174253343790800,1.890790771484375,7.360352826425433,1.563306570445746,-0.858496797863394
1783174253353859600,1.900859619140625,7.0742515732556575,1.5475911149196326,-1.0490586057510227
1783174253363927800,1.910927734375,7.055292605763674,1.4206291610874235,-1.4005936504051089
1783174253373996800,1.920996826171875,7.632251366719603,1.402547999343276,-1.750768001165241
1783174253384065800,1.931065673828125,8.33730342362523,1.4636137318111955,-1.769915038575232
1783174253394133800,1.9411337890625,8.498556061854957,1.3897620213977993,-1.9770649201050399
1783174253404202800,1.95120263671875,7.899955962455272,1.4025288562513887,-2.1416785592004657
1783174253414271700,1.961271728515625,6.5516773134380575,1.3450935892403124,-1.7489762954428791
1783174253424339700,1.971339599609375,5.218474068477749,1.3339901575542985,-0.8126373292904346
1783174253434408700,1.98140869140625,4.321768974381685,1.1504555448897182,0.4576158307600766
1783174253444477000,1.991476806640625,3.613791969940066,0.4396941704265773,1.3316183138564228
1783174253454545700,2.001545654296875,2.035820183673501,-0.29113968572840093,1.1666740545671432
1783174253464615000,2.011614990234375,-0.7919272072821855,-1.6834202658183872,1.4696918826811014
1783174253474683000,2.021682861328125,-3.8247669627159833,-2.9958026949375864,2.33403623752892
1783174253484751600,2.031751708984375,-7.027564640882611,-3.6750977947741745,3.3845933382093905
1783174253494820900,2.04182080078125,-11.777169151723385,-3.812579096794128,3.7673335954010483
1783174253504888800,2.051888916015625,-15.129948132520914,-3.927148894304037,2.5382553263038394
1783174253514957600,2.06195751953125,-17.328938186222313,-4.319862848499417,0.4407177413206547
1783174253525026800,2.07202685546875,-20.210608890545366,-5.096729849293828,-1.2204093710817396
1783174253535094800,2.0820947265625,-23.083407721626756,-5.565511144125462,-2.4561051586225626
1783174253545163800,2.092163818359375,-25.41197692592144,-5.963553015345335,-3.2238647238537665
1783174253555231700,2.102231689453125,-27.98260599708557,-5.702385127902031,-3.6220021644026037
1783174253565300700,2.11230078125,-30.13673984097242,-4.606483157107234,-3.407532315248251
1783174253575369700,2.12236962890625,-30.000066932725904,-3.7612323559165,-2.4734277570843695
1783174253585437700,2.132437744140625,-27.200674698638913,-2.683585588258505,-1.7920884380690751
1783174253595506700,2.142506591796875,-22.666264844095707,-1.600753234656155,-1.1202627973303199
1783174253605575700,2.15257568359375,-17.994179041743276,-0.6518244707174599,-0.09395783864650875
1783174253615643600,2.1626435546875,-14.243076450175046,-0.4896501875981688,0.8985330401755869
1783174253625713000,2.172712890625,-11.339046614527701,-0.5046415666334331,0.997772435954213
1783174253635780900,2.18278076171875,-8.858321101650596,-0.922764687373489,0.5498015817001461
1783174253645849600,2.192849609375,-6.071065295559167,-1.552838367923349,-0.10059713053051382
1783174253655918800,2.2029189453125,-3.4950580384880303,-1.4405975978828967,-0.2729357743874192
1783174253665986800,2.21298681640625,-1.6162573855191469,-1.0160451747477055,0.23762542808596043
1783174253676055600,2.2230556640625,0.35478725138306616,-0.4863524612270295,0.9864854643948375
1783174253686124800,2.233124755859375,2.8223586836546657,-0.2780651000998914,1.3573264633476734
1783174253696192800,2.24319287109375,5.300325837734341,-0.3562396421484649,1.201321735708788
1783174253706261800,2.25326171875,7.148018235734105,-0.3178602271325886,0.7920643507305533
1783174253716329700,2.263329833984375,7.993752436527609,-0.10387874601706862,0.08882005563294515
1783174253726398700,2.273398681640625,8.092164295440911,0.19697978517115114,-0.07651961444839835
1783174253736467700,2.2834677734375,7.829356239575147,0.4975584765046835,-0.04721638134093955
1783174253746535700,2.29353564453125,7.822740620827674,0.8309260693706572,-0.3046237289406359
1783174253756604700,2.303604736328125,7.812725422769785,0.6432318528085946,-1.1083310250613838
1783174253766674000,2.313673828125,8.660442321813106,0.7316074708759784,-1.3150057633601129
1783174253776741600,2.32374169921875,10.210616585093737,1.2893341464869676,-0.5607273552643135
1783174253786811000,2.333810791015625,11.470088238888978,1.626838254635781,0.04331460639573633
1783174253796878800,2.34387890625,12.714093443483113,1.6237442341431974,0.23534666949901728
1783174253806947600,2.353947509765625,13.659855706214904,1.639379025648534,0.4759350025111809
1783174253817016800,2.364016845703125,14.464875619304179,1.6815208619378506,0.8268785475455224
1783174253827084800,2.374084716796875,15.549787994050979,1.9877762837335466,1.4647120484419167
1783174253837153800,2.38415380859375,15.429362456250189,0.9903177360340952,0.6745896986246108
1783174253847222800,2.394222900390625,13.910610920715332,0.6956314637400209,0.0009092968646436929
1783174253857290800,2.404290771484375,12.304529476773737,0.6920620808206498,-0.5471150825625285
1783174253867360000,2.414360107421875,10.62592757102251,0.7272304248355329,-0.8167349008023739
1783174253877427700,2.424427734375,9.914627559638022,0.5767823814757168,-1.0669273668535053
1783174253887496700,2.43449658203125,9.457191834685206,0.4059273637726903,-1.2370873880296944
1783174253897566000,2.44456591796875,8.738925491419433,0.6725353964433074,-1.1391767566367983
1783174253907633700,2.454633544921875,7.759879967767,1.093189350835234,-0.8158429203987121
1783174253917702700,2.46470263671875,7.044276121708751,1.3378148304089903,-0.5593999425854533
1783174253927772000,2.47477197265625,6.573515051236749,1.448548118495941,-0.5207888377055525
1783174253937839900,2.48483984375,6.333021118509769,1.4042914820097385,-0.5483530633922666
1783174253947908900,2.494908935546875,6.216765559870004,1.3315895261533557,-0.43106903848759826
1783174253957977900,2.504977783203125,6.214086696049571,1.3414850433543324,-0.4730444321688264
1783174253968045800,2.5150458984375,6.431555727019906,1.2207859493091702,-0.7672972814816981
1783174253978114800,2.52511474609375,6.62739218737483,1.043562419487536,-0.9143643771663308
1783174253988182800,2.535182861328125,6.686088706493377,1.0316222447164356,-1.0211675592627376
1783174253998251800,2.545251708984375,6.70171239208281,1.0962620362788438,-1.2122921886648983
1783174254008320800,2.55532080078125,6.275451557594537,1.2795355137892066,-0.9794872030053288
1783174254018388700,2.565388671875,4.889588151070475,1.5237249400332569,-0.3389757150713354
1783174254028458000,2.5754580078125,2.7298253613859416,1.8324505513347684,0.29866540505811573
1783174254038526700,2.585526611328125,0.425010542166233,1.9460555954657495,0.8258429208874702
1783174254048594700,2.5955947265625,-1.7124276029855012,1.5744940271534025,1.1192818234689532
1783174254058664000,2.605663818359375,-3.952459861171245,0.8331243100672959,0.9311484848372638
1783174254068732000,2.61573193359375,-5.969540857583284,0.1550515916325152,0.2402520137298852
1783174254078800600,2.625800537109375,-8.1935694909513,-1.0400266465768218,-0.4081457704745233
1783174254088870000,2.635869873046875,-11.31435757895112,-2.61983003218472,-0.5491285047441721
1783174254098937900,2.645937744140625,-15.776376735544204,-3.6338553915426135,-0.2511700789116323
1783174254109006800,2.6560068359375,-21.15209362208843,-3.552957269749045,-0.13946326961740851
1783174254119075800,2.666075927734375,-24.918577322661875,-1.84090536820814,1.4945629968263208
1783174254129143800,2.676143798828125,-26.227066982126235,-2.623794844162464,1.8565651480242609
1783174254139212800,2.686212890625,-24.178380887138843,-4.861703534322976,0.2972274812094867
1783174254149281800,2.69628173828125,-20.341530103397368,-7.191088731175661,-1.2652256872773169
1783174254159349800,2.706349853515625,-18.57061348656416,-8.013561298847199,-2.3775657287843526
1783174254169418800,2.716418701171875,-18.589161535167694,-6.6124260889112945,-1.3303640760116278
1783174254179487000,2.726487060546875,-18.379516914212704,-4.963038587206602,0.6326712958276272
1783174254189556000,2.736555908203125,-17.435689418935773,-3.5212378971442577,0.9788351688373833
1783174254199625000,2.746625,-15.454816046458483,-2.23399706967473,0.7938105368107556
1783174254209693000,2.75669287109375,-13.599426664215326,-1.1288459167584777,0.36599933107532556
1783174254219762000,2.766761962890625,-10.949753866952657,-0.37248189802765846,-0.2223916916621849
1783174254229831000,2.776830810546875,-6.557458819448947,-0.09231734143048524,-0.5118635903088375
1783174254239899000,2.78689892578125,-1.5513140809655188,0.022138766571879385,-0.9794086578764021
1783174254249968000,2.796968017578125,2.271348018425703,0.09964432331770658,-1.4573011876635253
1783174254260036000,2.8070361328125,4.667155944734811,0.4579097722053528,-0.9413872625179588
1783174254270104800,2.817104736328125,6.032279345569014,1.3264442722193897,0.19909131569871677
1783174254280174000,2.827174072265625,6.971130221477151,2.077323575928807,1.0144948035005479
1783174254290242000,2.837241943359375,7.565836820569634,1.9686641715064643,0.8958147941928356
1783174254300310800,2.847310791015625,7.854213032934069,1.77657683455199,0.5029169347979128
1783174254310380000,2.857380126953125,7.6474647179424755,1.576632938878238,0.359061129309982
1783174254320448000,2.867447998046875,6.7272086523890495,1.545755423925072,0.17631383109819143
1783174254330517000,2.87751708984375,6.504881075471639,1.4479133277237415,0.08750714640347286
1783174254340585000,2.8875849609375,7.658559527930617,0.7661066834576428,-0.712139384818077
1783174254350654000,2.897654052734375,9.297283012279868,0.20021365252584217,-1.487486774829775
1783174254360723000,2.907722900390625,10.404260503840446,0.11608926216214895,-1.3068245027311145
1783174254370791000,2.917791015625,11.461901425302027,0.17019816122949122,-0.4860620999783277
1783174254380860000,2.92785986328125,12.230928818511963,0.3467885077141225,0.26635672479066996
1783174254390929000,2.937928955078125,11.934980709588528,0.7738722028926014,0.8911908607192337
1783174254400996900,2.947996826171875,11.427125879997014,1.0666698849610983,1.0480421952500938
1783174254411066000,2.958066162109375,10.298892249917984,1.3401469266183674,0.7349398301690816
1783174254421134000,2.968134033203125,9.566173018407822,1.6205661886289715,0.32073238503541796
1783174254431202800,2.978202880859375,9.361598540323973,1.6448559957548976,-0.16983466167934239
1783174254441272000,2.98827197265625,9.329204337197542,1.443639595927298,-0.7405708217933774
1783174254451340000,2.998340087890625,9.755803025338054,1.3886140204064548,-0.9764153212793171
1783174254461408800,3.00840869140625,10.168345131075382,1.518713541612029,-0.8314218900635838
1783174254471478000,3.01847802734375,10.38646064325571,1.6935221192464232,-0.5708611016679555
1783174254481546000,3.0285458984375,10.149452214556932,1.7141536961257458,-0.530626779500395
1783174254491615000,3.038614990234375,9.724113171088694,1.8532203676410017,-0.7657624731298536
1783174254501683000,3.048682861328125,9.403691130644082,1.9257387836240232,-0.9499745466645807
1783174254511752000,3.058751953125,9.485884260684252,1.8035015202261506,-1.2312373468272386
1783174254521821000,3.068821044921875,9.741595051765442,1.8741639330789446,-1.2753081053525208
1783174254531889000,3.078888916015625,10.211627807962893,1.9131186637647448,-0.9536234976261854
1783174254541958000,3.0889580078125,10.472523308205604,1.9082471122056244,-0.7516030148740858
1783174254552027000,3.09902685546875,10.205838703167437,2.016025934401154,-0.49912061125487084
1783174254562094800,3.1090947265625,9.799135971108079,2.3283412407577035,-0.21240707140564918
1783174254572164000,3.1191640625,8.760432389828562,2.447551557549834,-0.2272775274749845
1783174254582232800,3.12923291015625,7.382782100376486,2.337119298236072,-0.5239470094755292
1783174254592300800,3.13930078125,5.991386194166541,2.207088750613481,-0.5981594429600984
1783174254602370000,3.1493701171875,5.51607286721766,0.7367176534965634,-1.2446173451431095
1783174254612438000,3.15943798828125,5.0520460734367365,0.13671411703974007,-0.517330221684277
1783174254622506800,3.1695068359375,3.4339071119546887,-0.6026631110548972,0.5532236651033162
1783174254632576000,3.179575927734375,1.1080518427938222,-1.4598033797428012,1.9858277800142763
1783174254642644000,3.18964404296875,-2.5090046819001435,-2.4455409483797848,2.469607322013378
1783174254652712700,3.199712646484375,-7.082370582303405,-3.7254362353920936,2.825938880228996
1783174254662782000,3.209781982421875,-12.595924160176514,-4.761690085431933,2.988384819896519
1783174254672850000,3.219849853515625,-20.080000981426238,-5.983726619324088,2.237158017923683
1783174254682919000,3.2299189453125,-26.64830618906021,-4.844141281886398,2.0650440862007438
1783174254692987000,3.23998681640625,-32.42345026370287,-2.9619357889100906,2.8005738450869915
1783174254703056000,3.250055908203125,-37.51002287611961,-2.2380459066741167,2.773167367245257
1783174254713124900,3.260124755859375,-39.070448484301565,-1.6270432756885884,1.9590055318012833
1783174254723192800,3.27019287109375,-37.14517366492748,-1.5402238010220228,1.8958336208343505
1783174254733261800,3.28026171875,-33.07139044033289,-1.7123226813063024,2.514613461692631
1783174254743331000,3.2903310546875,-29.26061634713411,-1.6454285349458455,1.6621853162184357
1783174254753398800,3.300398681640625,-25.82887664234638,-1.738957882514596,-0.026104930256493387
1783174254763468000,3.310468017578125,-21.466456508624553,-1.4263115906380117,-0.6111664432451128
1783174254773536000,3.320535888671875,-16.613124496805668,-0.7256549922123551,-0.7322754332654178
1783174254783604700,3.330604736328125,-11.883493683457374,0.2536637954235077,-0.9582490385349839
1783174254793674000,3.340674072265625,-6.781199770295619,0.926453897280246,-0.8033468653105199
1783174254803742000,3.350741943359375,-1.2491454900920391,1.2100314771912992,-0.41336145929619666
1783174254813811000,3.36081103515625,2.911483658784628,1.3351498489834368,0.10191014935784042
1783174254823880000,3.3708798828125,5.758084803292155,1.8198710557468234,0.9600010698340833
1783174254833948000,3.380947998046875,7.560041870555281,1.721914247124642,1.1398198037806897
1783174254844017200,3.39101708984375,8.97991100705564,1.308217856785655,-0.02191467549242079
1783174254854086000,3.4010859375,10.24817094746232,0.5570100517742336,-1.1968418138157575
1783174254864153900,3.41115380859375,10.87954811182618,0.18501915213391185,-1.451769126369059
1783174254874223000,3.42122314453125,11.093066943866013,0.40705534488931294,-1.1573011730007827
1783174254884290800,3.431290771484375,11.25415416240096,0.518619092451036,-1.052029219059646
1783174254894359800,3.44135986328125,11.54542960333824,0.4432319891639054,-1.322546534128487
1783174254904429000,3.451428955078125,11.639070010066032,0.24210619022920726,-1.6664869589351117
1783174254914497000,3.4614970703125,11.861713228803872,0.3108971101216972,-1.6274992027625441
1783174254924566000,3.47156591796875,12.218036603713035,0.3691626904770732,-1.3852178020969033
1783174254934635000,3.481635009765625,12.310780353862047,0.42780879458263515,-1.105579315200448
1783174254944703000,3.491702880859375,12.441756511771679,0.8457089202217757,-0.49859947345759714
1783174254954772000,3.50177197265625,12.574326076352596,0.8148989175468683,-0.7165402501255274
1783174254964840000,3.51183984375,12.122287242007255,0.45845264691039916,-1.2124915106292813
1783174254974909000,3.521908935546875,11.443898151099681,0.8505924544796347,-0.9184415634773672
1783174254984978000,3.53197802734375,10.670730004823207,1.59858056679219,-0.14882014989703893
1783174254995046000,3.5420458984375,10.038615173834561,1.852055561645329,0.2054417624376714
1783174255005115100,3.552115234375,9.415728774440288,1.9849990741051733,0.29804873446449637
1783174255015184000,3.562183837890625,9.129141783580183,2.0450395551785827,0.35355095105376094
1783174255025251800,3.572251953125,9.198128810566663,2.0051564576014873,0.12672657417375593
1783174255035321000,3.582321044921875,8.719274450010062,1.8049341833777726,-0.3648558235960081
1783174255045389000,3.59238916015625,8.207970356747508,1.7165417603060602,-0.3708713210258633
1783174255055457800,3.602457763671875,7.874121848496794,2.076125890576839,0.2994646291444078
1783174255065527000,3.612527099609375,7.66135061995387,2.4564152474850416,1.0823599137850106
1783174255075595000,3.622594970703125,7.608176079127192,2.4484677956119176,1.436804196949303
1783174255085664000,3.6326640625,7.652037432685494,2.1913792864367365,1.0470012348297983
1783174255095733000,3.64273291015625,8.029388398054241,1.9434161868728697,0.2981696939630434
1783174255105801000,3.652801025390625,8.346955049067736,1.5299756709910928,-0.5554818192936479
1783174255115870000,3.662869873046875,8.424916825148463,1.272755644390732,-1.0213361938279122
1783174255125938000,3.67293798828125,8.185656818130612,1.3182647651560604,-0.9940871715702115
1783174255136007000,3.6830068359375,7.250062313669919,1.3296611884392797,-0.729834615984559
1783174255146076000,3.693075927734375,6.32787206518352,1.6809328329168258,-0.4424389390900731
1783174255156143900,3.703143798828125,5.542099288877845,1.9769674510799347,-0.3355354384243488
1783174255166213000,3.713213134765625,4.596086850777268,1.7593724556423722,-0.4253511722974479
1783174255176281900,3.72328173828125,3.078884298250079,1.2042572777040301,-0.6183220140881837
1783174255186349800,3.733349853515625,1.2519587939471006,0.22569106200113892,-0.2816585214819759
1783174255196419000,3.743419189453125,-0.8283709780603646,-0.8593952080078423,0.12002893969863652
1783174255206487800,3.75348779296875,-3.434113448181748,-2.3937767127424476,0.32430202368311584
1783174255216555800,3.7635556640625,-8.059899271652101,-3.970222312355041,1.2236426539145409
1783174255226625000,3.773625,-13.565039241445064,-4.487221694649755,2.0674454482540487
1783174255236693000,3.78369287109375,-18.935282665014267,-4.2953398171395065,2.8181352207407353
1783174255246761700,3.79376171875,-24.51634442949295,-4.146092089480161,3.648886371935904
1783174255256831000,3.8038310546875,-27.483216213500498,-4.127328936821222,4.04312738956809
1783174255266899000,3.81389892578125,-26.402652681612967,-4.475637347579002,3.4776696813136336
1783174255276968000,3.823968017578125,-24.160150818443295,-5.276729858091473,2.261095066089183
1783174255287037000,3.834036865234375,-22.711137420523166,-5.648292303186655,0.9187516523398458
1783174255297105000,3.84410498046875,-21.90179438353777,-4.690024194625019,0.39364856816437094
1783174255307174000,3.854173828125,-21.54799965032339,-3.439796169993281,-0.23545274195568636
1783174255317241900,3.864241943359375,-20.536914728331563,-2.547747085009515,-0.6890653832226992
1783174255327310800,3.874310791015625,-18.545315379178522,-1.7568009977191685,-0.5507620972953736
1783174255337379800,3.8843798828125,-15.817594881117342,-1.164758795530349,-0.2106550218402408
1783174255347447800,3.89444775390625,-12.464204490423201,-0.5829508409775793,-0.972350336862728
1783174255357517000,3.90451708984375,-8.652841783681511,-0.3434245842389762,-2.348947390934825
1783174255367585800,3.914585693359375,-4.037454604628682,0.15902385626435278,-3.3661317988455295
1783174255377653800,3.92465380859375,-0.023720482805371285,0.7489765388280153,-3.342881563900411
1783174255387723000,3.934722900390625,2.3665233796358107,1.3419317642085253,-2.451563861931115
1783174255397791700,3.944791748046875,3.445072649091482,1.7980287879034875,-1.4999837067008017
1783174255407859700,3.954859619140625,3.9983477521210906,2.259284655666351,-0.7595012207780033
1783174255417929000,3.964928955078125,5.257864414101839,2.3539131966486573,-0.32879206511136144
1783174255427997000,3.974996826171875,6.446517149308323,1.9092013441905378,-0.40215146196316925
1783174255438066000,3.98506591796875,6.821704799163341,1.4139645886316894,-0.5848694610152393
1783174255448135000,3.995135009765625,7.744165681284666,0.7854347765229642,-0.3061797627435997
1783174255458203000,4.005202880859375,9.159118988692759,0.3246677882555872,0.019761041122488675
1783174255468271900,4.01527197265625,10.839984163200855,0.015624416241794824,0.2323135854134336
1783174255478340900,4.0253408203125,12.539850975298881,-0.3026521366067231,0.4220414997601881
1783174255488408800,4.035408935546875,13.671791643202305,-0.667768182041496,0.4839388242140412
1783174255498477800,4.045477783203125,13.586169707757234,-0.5753201999686658,0.7047447445221244
1783174255508545800,4.0555458984375,12.867690598523616,-0.4291115477442741,1.0040521007455885
1783174255518615000,4.065614990234375,12.036660630387066,-0.4714595741301775,0.6577692775312811
1783174255528683800,4.075683837890625,10.968536893355846,-0.4239814183142036,-0.032657712900824844
1783174255538751700,4.085751708984375,10.018410590195655,-0.22632373388148844,-0.4474976107191294
1783174255548821000,4.095821044921875,8.842024631366133,-0.07355579620674252,-0.7822182986944913
1783174255558890000,4.105889892578125,7.714276738977432,0.294972103498131,-0.5531752593843267
1783174255568957700,4.115957763671875,6.986475090125203,0.8754195102874189,0.12430584983285516
1783174255579027000,4.12602685546875,6.991591994747519,1.2859285758271812,0.676286565670371
1783174255589095000,4.136094970703125,7.45420483007729,1.3801887218885123,1.056635105419904
1783174255599164000,4.146163818359375,8.05753371156454,1.1130044967651367,0.564795262290351
1783174255609233000,4.15623291015625,8.449283204641938,0.674993822446093,-0.2665649972464889
1783174255619300900,4.16630078125,8.180590182390809,0.21317301427684723,-0.9686757400032132
1783174255629369900,4.176369873046875,7.63100808866024,-0.20763591148108243,-1.7084224589973687
1783174255639438800,4.18643896484375,7.658986228910088,-0.4310157739304006,-2.1237116714857516
1783174255649506800,4.1965068359375,7.471648132309317,-0.09088117114752531,-1.8582406800210476
1783174255659576000,4.206576171875,6.958472984477877,0.40171252255663276,-1.1456479254122822
1783174255669644800,4.216644775390625,6.359180226638912,0.8276507009617984,-0.9063689214330166
1783174255679713000,4.226713134765625,6.054614511495828,0.939389658959955,-1.0259056206353008
1783174255689782000,4.236781982421875,6.406564493626356,1.0988026606723666,-1.13707781159617
1783174255699849700,4.246849609375,6.87116704146862,1.1542838710062204,-1.3737792932376265
1783174255709919000,4.2569189453125,7.395524093049764,0.9352420377612113,-1.4895624120600521
1783174255719988000,4.266988037109375,6.967870342898369,0.7759320580318569,-1.5672339730225502
1783174255730056000,4.277055908203125,4.979637255308032,0.6324984234787523,-1.16159565532431
1783174255740125000,4.287125,3.07242942302227,0.5664670314274728,-0.2067169700052589
1783174255750194000,4.29719384765625,1.0934726978212594,0.20149828550890087,0.5503997667890042
1783174255760262000,4.307261962890625,-1.1747469594508408,-0.3727114689998329,0.7784490823540836
1783174255770331000,4.317330810546875,-4.225571284386516,-1.0754349368274212,0.7940981215804814
1783174255780398800,4.32739892578125,-7.982482854494452,-1.838927784524858,0.7997768978692591
1783174255790468000,4.337468017578125,-10.719553949224949,-1.9390888251930474,0.9669925361566245
1783174255800536800,4.347536865234375,-13.286145143175125,-1.6169072277300058,1.392804896225035
1783174255810604800,4.357604736328125,-14.895224015367031,-1.9252938163354991,2.0533309981837866
1783174255820674000,4.367674072265625,-15.520402909612654,-2.619954827608168,2.5020786820292473
1783174255830742800,4.37774267578125,-16.67417780818343,-2.905390018084645,2.409314035222679
1783174255840811000,4.38781103515625,-17.168560577261445,-3.253599644643068,1.7282709226749837
1783174255850880000,4.3978798828125,-17.779859414714572,-4.064490495592356,0.14225991459861398
1783174255860948000,4.407947998046875,-18.649271428215503,-4.621892323163151,-2.3019781344890595
1783174255871017000,4.418016845703125,-18.82434508652687,-4.774859948128461,-3.748518420293927
1783174255881086000,4.4280859375,-17.91725829914808,-3.8335993807300923,-3.2619404797479508
1783174255891154000,4.43815380859375,-16.709673484456538,-2.0832206711433825,-2.1146933755107225
1783174255901223000,4.448222900390625,-17.040730316162108,-0.7330734517753124,-1.5408236666113138
1783174255911292000,4.4582919921875,-18.389121777904034,-0.20718349153846502,-1.578490549443662
1783174255921360100,4.468360107421875,-17.889854743915794,0.4226144408099353,-1.15025651518628
1783174255931428900,4.478428955078125,-14.915317539846896,0.9674931791551411,-0.28935506733395155
1783174255941497900,4.488497802734375,-11.26027176849842,1.1822758205857127,0.3326195509776473
1783174255951566000,4.498566162109375,-7.720762009343504,1.0918371325086802,1.128298804269731
1783174255961634800,4.508634765625,-4.586806981256604,1.3312025726623833,1.6487822292879224
1783174255971702800,4.518702880859375,-0.9904588980704545,1.3920809658646582,1.6031424678802488
1783174255981772000,4.52877197265625,2.520576461750269,0.871899081076309,0.7218306846838444
1783174255991840800,4.5388408203125,5.206094479376078,-0.11264248270913958,-0.5593511350076645
1783174256001908700,4.54890869140625,7.996011613631248,-0.7668021183758974,-1.1103674993250519
1783174256011978000,4.55897802734375,10.338130035328865,-0.8461888857584446,-1.1804343574374914
1783174256022046700,4.569046630859375,11.43114154537916,-1.1406433951232582,-1.0779233926422893
1783174256032115000,4.579114990234375,11.757990988522767,-1.3657225357711313,-1.1358224777728319
1783174256042184000,4.589183837890625,11.739324866497515,-1.381084209423512,-1.3203189212068915
1783174256052252000,4.599251953125,11.594230166864394,-1.4477917471706867,-1.4133530326046049
1783174256062321000,4.60932080078125,11.552654293894767,-1.2682635936684905,-0.986026760841906
1783174256072390000,4.619389892578125,11.546203510320186,-0.8824054967172443,-0.270520438607689
1783174256082457900,4.629457763671875,11.440419076812267,-0.6131067636579275,0.003613025698275305
1783174256092526800,4.63952685546875,11.560444801640509,-0.41083720151558517,-0.3777343386631459
1783174256102595800,4.649595947265625,12.084003396320343,-0.3724059101819992,-0.953704088581726
1783174256112664000,4.6596640625,12.528399022436142,-0.4066822737932205,-1.3511527431488037
1783174256122732800,4.66973291015625,12.330228566175698,-0.19328107678368686,-1.1925708584982901
1783174256132802000,4.679802001953125,11.534939773505926,0.4132398787431419,-0.4175769946319982
1783174256142870000,4.6898701171875,10.203089112198352,1.0662749673593788,0.4403571643799543
1783174256152938800,4.699938720703125,9.16915347597301,1.4319811607070267,0.9640598437055945
1783174256163006700,4.7100068359375,8.798525096857547,1.461497324179113,0.9868686915587633
1783174256173076000,4.720075927734375,8.71138515806496,1.284633275319636,0.5634955413360149
1783174256183145500,4.7301455078125,8.645171102923154,0.9849708951134234,-0.2974579837634228
1783174256193213400,4.74021337890625,8.462237963283062,0.6335648106012493,-1.163816107852757
1783174256203282700,4.75028271484375,8.266486843124031,0.4995012811355293,-1.520130276542157
1783174256213351400,4.760351318359375,7.717147910499572,0.7167032586675137,-1.1648550955116748
1783174256223419400,4.77041943359375,7.277189390048385,1.2289338921904562,-0.4391372671961784
1783174256233488600,4.780488525390625,7.358084296971559,1.4858407611884177,0.006639328416623175
1783174256243556600,4.790556640625,7.628665324926376,1.598562154352665,-0.005860087672434747
1783174256253625600,4.80062548828125,7.8055884104967115,1.594417601893842,-0.20044559811819343
1783174256263694600,4.810694580078125,7.689149311983585,1.5559632219456134,-0.7154618803042918
1783174256273762600,4.820762451171875,6.875887055727839,1.4801931106902657,-0.842629366645962
1783174256283831600,4.83083154296875,5.95503828497827,1.513372180584073,-0.36951015220787375
1783174256293900500,4.840900634765625,4.856958385622501,1.3884975544199347,0.22832630587555466
1783174256303968500,4.850968505859375,3.476816863876581,0.9598695524089038,0.8331637652948498
1783174256314037500,4.86103759765625,1.7147896559417246,0.3632362230375409,1.2116192578393965
1783174256324105500,4.87110546875,-0.012851882788538932,-0.1409612530902028,1.6904554251521824
1783174256334174700,4.8811748046875,-1.7756313703954218,-0.7114220303289592,2.026529792758822
1783174256344243500,4.891243408203125,-4.130742544656992,-1.588560838689655,1.815630203306675
1783174256354311400,4.9013115234375,-7.593900301015377,-2.2717197743475435,1.1216223952457307
1783174256364380700,4.911380615234375,-11.7232014146924,-2.0184945164717734,0.6828449743378907
1783174256374449400,4.921449462890625,-15.985336296844482,-1.4248501397833226,0.5000649794328957
1783174256384517400,4.931517333984375,-20.174950717186928,-1.3196493513822556,0.3184785051614046
1783174256394586600,4.941586669921875,-22.837377782082555,-1.102914187644422,-1.1253346207018942
1783174256404655400,4.9516552734375,-23.79251460688114,-0.582147050314024,-3.4769060034647583
1783174256414723600,4.9617236328125,-26.298383328843116,0.6174323717720807,-5.2311213686048985
1783174256424792600,4.97179248046875,-28.78872948750257,1.7783163716956971,-5.036499544736743
1783174256434860500,4.981860595703125,-30.042026252055166,2.8424627295285463,-3.484764315749705
1783174256444929500,4.991929443359375,-29.643571708381174,3.70959949157387,-1.757918165180832
1783174256454998500,5.00199853515625,-27.380415179717538,3.7089287527054546,-1.0254814038738609
1783174256465066500,5.01206640625,-24.67751348109245,3.176865656791627,-1.3553482951425015
1783174256475135500,5.022135498046875,-21.129596543598172,2.6940526217371223,-1.4619734172582626
1783174256485204500,5.03220458984375,-16.401713450700043,2.2087964313142,-0.7117470975648611
1783174256495272700,5.042272705078125,-11.727855377978086,1.9043235090211033,0.08401318507418036
1783174256505341400,5.052341552734375,-6.009961715298891,1.7103760772831738,0.48200639484673735
1783174256515410400,5.062410400390625,-0.2681365574121475,1.1643676773209124,0.2929867018345743
1783174256525478700,5.072478759765625,4.910742582780123,0.4678558870824054,-0.008206614265963435
1783174256535547400,5.08254736328125,8.365515372630954,-0.23365279812794176,0.09814970084577798
1783174256545615400,5.092615478515625,9.910241307377815,-0.2694805193670094,0.2643755243781954
1783174256555684600,5.1026845703125,10.926984401261805,-0.02356741113550961,0.5154475497428328
1783174256565753300,5.11275341796875,11.887049914634227,-0.05209719391874969,0.672900576493889
1783174256575821600,5.122821533203125,12.650476419097185,-0.15571626608632505,0.8638025030560791
1783174256585890600,5.132890625,12.966121746659278,-0.23997538874559102,0.8928292755760252
1783174256595959600,5.14295947265625,13.440267198872565,-0.44523324598371977,0.38996228086706247
1783174256606027500,5.153027587890625,13.731151010143757,-0.860755098184198,-0.12771240687333046
1783174256616096500,5.163096435546875,14.132247592759132,-1.0082491140440106,-0.5819448057401925
1783174256626164500,5.17316455078125,14.755745402050017,-1.1243038163494319,-0.7846177610516548
1783174256636233500,5.1832333984375,15.21675314027071,-1.0470062763310968,-0.4016700351217761
1783174256646302500,5.193302490234375,15.037043054330349,-0.6188648157279938,0.08488574839131906
1783174256656370700,5.20337060546875,14.352463876610994,-0.29098873295038935,0.3466655023889616
1783174256666439400,5.213439453125,13.44477152455449,0.08608049286752939,0.7093332413561642
1783174256676508400,5.22350830078125,12.543159369194507,0.4948225487347692,0.9207304050669074
1783174256686576600,5.23357666015625,11.949423076438903,0.7824247810520232,1.0572433004461228
1783174256696644600,5.24364453125,11.544026750802994,1.0015132299177347,0.9483023026034235
1783174256706712600,5.253712646484375,11.381728402912616,0.8437666270475834,0.38155309323370457
1783174256716781600,5.263781494140625,11.15603748704195,0.7361847156636416,0.06370033702151849
1783174256726850600,5.2738505859375,10.828513505637645,0.7938176972039044,0.1634022357453592
1783174256736918500,5.28391845703125,10.79191425203681,0.912407690140605,0.4768158404663205
1783174256746987500,5.293987548828125,10.30231287201643,1.2369072091571987,0.9604243367474525
1783174256757056500,5.304056396484375,9.295404358926415,1.3894741443671286,1.142584884579852
1783174256767124500,5.31412451171875,8.673759484025835,1.2735349582001567,0.768402100918442
1783174256777193500,5.324193359375,8.54828952231705,1.0202069706022738,-0.05337785397958941
1783174256787261400,5.334261474609375,8.842565898635982,0.8329799331605434,-0.7096691222470253
1783174256797330700,5.34433056640625,9.276492737707494,0.7399365424778312,-0.7319673171643167
1783174256807399400,5.3543994140625,9.259337020245194,0.7216415918525307,-0.4039459441645071
1783174256817467400,5.36446728515625,8.367149111312628,0.7867107147429138,0.2101935600746423
1783174256827536600,5.37453662109375,7.015548624396324,0.7042870638824998,0.9885784911513328
1783174256837605400,5.38460546875,4.755767125123739,0.474922354869917,1.7639175517261028
1783174256847673300,5.39467333984375,1.9566735817223786,0.43445736575163896,2.0087360696539283
1783174256857742600,5.40474267578125,-0.5599994428485632,-0.2542432027466595,1.6023733832038938
1783174256867811300,5.414811279296875,-2.4747446849018333,-1.4389274727135897,1.0303373925376682
1783174256877879600,5.424879638671875,-5.323351908534765,-2.453833414298296,0.04844652592409402
1783174256887948500,5.434948486328125,-10.866417412096261,-3.2521763338416814,-1.0126737986184655
1783174256898016500,5.4450166015625,-18.33849282990694,-2.94835968350023,-1.8732240218803284
1783174256908085500,5.45508544921875,-25.910997291672228,-2.1197265473723412,-3.202038384231925
1783174256918154500,5.465154541015625,-31.745804684638976,-1.3300164316177367,-5.477401483517885
1783174256928222500,5.475222412109375,-34.37329604523182,-1.0731262214936315,-7.432157248920202
1783174256938291500,5.48529150390625,-33.46359059978723,-1.3747080985203384,-7.6893030412405725
1783174256948360400,5.4953603515625,-30.772865661168098,-1.5868965587392447,-6.13823855112195
1783174256958428700,5.5054287109375,-27.566106093633174,-1.3658420704975724,-3.865817350506782
1783174256968497400,5.515497314453125,-24.65604983730316,-1.2781602799132465,-2.1074910429164766
1783174256978565400,5.5255654296875,-22.82672311707735,-0.9309427331320941,-1.089012503542006
1783174256988634600,5.535634521484375,-20.80223856641054,-0.5089334186084569,-0.5635642957232893
1783174256998703400,5.545703369140625,-17.209740144389865,-0.04221044454611838,-0.7260038787152617
1783174257008771300,5.555771240234375,-12.855043882918357,0.38072818671688435,-0.8404096447698771
1783174257018840600,5.565840576171875,-8.940404341575503,0.7320930624358356,-0.9458850123286247
1783174257028909600,5.57590966796875,-5.834131685662269,0.8883676199920475,-0.7934690298967063
1783174257038977500,5.5859775390625,-3.346868879970908,1.14320659667477,-0.1943012136116624
1783174257049046500,5.596046630859375,-1.1371166092365979,1.8709692286908626,0.7667671931929886
1783174257059114500,5.606114501953125,1.1390496231257914,2.362056463354826,1.8111580263286828
1783174257069183500,5.61618359375,3.1951533008933066,2.607913968941569,2.27509275791198
1783174257079254500,5.626254638671875,5.151265157079696,2.652458628588915,1.7081687764972446
1783174257089322500,5.636322509765625,7.341955584469437,2.343443532821536,0.5890583275398239
1783174257099391500,5.6463916015625,9.763714529114962,1.72080380166471,-0.3972719097606838
1783174257109459700,5.656459716796875,11.857234622085095,1.2571965484701095,-0.827166059250012
1783174257119528400,5.666528564453125,13.641891010457277,0.9736113697744906,-0.75571205762811
1783174257129597400,5.676597412109375,14.507209032642841,0.7735412173725664,-0.4408939746703952
1783174257139665700,5.686665771484375,14.27119312211275,0.7919298376306891,-0.23151927496427668
1783174257149734400,5.696734375,14.003636410415172,0.8546485980026424,-0.19144288330478593
1783174257159803600,5.7068037109375,13.754367050558328,0.7991036747828125,-0.3128059394177049
1783174257169871600,5.71687158203125,13.752680120384692,0.5646564748741686,-0.6860202433731406
1783174257179939800,5.72693994140625,13.915447254830598,0.3529290562957525,-0.8818626950774341
1783174257190008600,5.737008544921875,13.655039245843886,0.3609044190891087,-0.8478655137337744
1783174257200076500,5.74707666015625,13.207410044634342,0.5281925380907952,-0.5684769099451601
1783174257210145800,5.757145751953125,12.136066761034726,0.8000769037291408,-0.014998064504377543
1783174257220213800,5.7672138671875,11.163362715363501,1.257778586141765,0.5558228878162801
1783174257230282500,5.777282470703125,10.528906289684771,1.4387779812403023,0.856331071196869
1783174257240351700,5.787351806640625,10.32625722670555,1.4186957088068126,1.0063225298956036
1783174257250419700,5.797419677734375,10.33940663113594,1.445619225437194,1.2629640259556472
1783174257260488700,5.80748876953125,9.944030179733037,1.4907976529434321,1.446035112761706
1783174257270557700,5.8175576171875,9.344486077481507,1.471830063753575,1.2915337023578584
1783174257280625700,5.827625732421875,8.706097573050856,1.4252309557944536,1.1634135184012353
1783174257290694700,5.837694580078125,8.364929681697488,1.2383606228359043,1.2045992230094968
1783174257300762600,5.8477626953125,8.10406749920249,1.1472482732810079,1.3351649004220962
1783174257310831600,5.85783154296875,8.121629459378124,1.1730443933166563,1.2947834979340433
1783174257320900600,5.867900634765625,8.408311727306247,0.991952059237659,0.9341033160548656
1783174257330968600,5.877968505859375,8.347045065438747,0.7284732645034789,0.5040602596141398
1783174257341037800,5.888037841796875,8.09054575432837,0.7945636932656168,0.4956617395052686
1783174257351106600,5.8981064453125,7.460374458622932,0.7529264454975724,0.3895404021931812
1783174257361174500,5.908174560546875,6.86163641205728,0.5861654191099107,0.1837105172207579
1783174257371243800,5.918243896484375,6.02434212282896,0.702447135104239,0.1867105758195743
1783174257381312500,5.9283125,4.680428098762035,0.6362267963521182,0.41287999592218544
1783174257391380500,5.93838037109375,2.98710559374094,-0.034165596713125704,0.5956321164395659
1783174257401449700,5.94844970703125,0.7237994274735451,-1.2156010940171778,1.0913359780535101
1783174257411517700,5.958517578125,-1.3616665383785962,-2.7330682888299225,1.4823194551944732
1783174257421586700,5.968586669921875,-2.5319711314678193,-4.143374062693119,1.179983691060543
1783174257431655700,5.97865576171875,-3.941740314236283,-4.799940028849244,0.7401394446387887
1783174257441723600,5.9887236328125,-6.206509538793563,-3.7781466658383605,0.7025698116358369
1783174257451792600,5.998792724609375,-10.332401720809935,-2.5174270578086375,1.800320844363421
1783174257461861600,6.008861572265625,-17.093457697743176,-1.5784414496049284,3.0107255387812852
1783174257471929600,6.0189296875,-24.469620087718962,-0.2683689048632979,2.4521426847323773
1783174257481998600,6.02899853515625,-29.61575548069477,0.4876910163544118,-0.2057968960182741
1783174257492067600,6.039067626953125,-31.66962979197502,-0.028639234507083892,-3.1213805009350177
1783174257502135800,6.0491357421875,-32.493969322562215,-1.0408632435314358,-5.886044243729114
1783174257512204500,6.05920458984375,-32.20816149938106,-1.9358106803052126,-7.422642401599884
1783174257522272500,6.0692724609375,-30.101228967130183,-2.177274627108127,-7.150944936835765
1783174257532341800,6.079341796875,-26.222458611547946,-2.018053933097422,-5.401005057057738
1783174257542410500,6.089410400390625,-21.99691947586536,-1.548464244492352,-3.4554280388891696
1783174257552478500,6.099478515625,-18.532385754978655,-0.8065561096806079,-1.6367799490660428
1783174257562547700,6.109547607421875,-16.85456477047205,0.11244739852845669,0.563622090325132
1783174257572616700,6.11961669921875,-14.961799889558552,1.679039566516131,2.366903903385997
1783174257582684700,6.1296845703125,-10.694103866147994,2.2630273493260145,2.779251947855949
1783174257592753700,6.139753662109375,-5.0381554952502245,1.9037822417512535,1.898337420348823
1783174257602822700,6.14982275390625,0.5526672002643347,1.2347400942511857,0.7593368970617651
1783174257612890600,6.159890625,4.901368605235219,0.8262418570771813,0.1628056398253888
1783174257622959600,6.169959716796875,7.977509157735109,0.7901566904783248,0.19871610744446516
1783174257633027600,6.180027587890625,10.111564674711227,0.9882835998579859,0.46102110915891825
1783174257643096600,6.1900966796875,11.1967506057024,1.1290462616361676,0.6581774930059909
1783174257653165600,6.20016552734375,11.517787563174963,0.9982250020273029,0.5975501154227182
1783174257663233800,6.21023388671875,11.752062767517566,0.7830442281246185,0.013115219032997266
1783174257673302500,6.220302490234375,12.35849955189228,0.2793633232168853,-0.9189302968423813
1783174257683371500,6.23037158203125,13.007890511852501,-0.36699805978909134,-2.0416621876999734
1783174257693439700,6.240439697265625,14.092420609283446,-0.865738731815666,-2.9770927337706086
1783174257703508700,6.2505087890625,15.081116004812717,-1.0726213407114147,-3.412630807431042
1783174257713577700,6.26057763671875,15.774777483654022,-1.2556016804940997,-3.063298314322531
1783174257723645700,6.270645751953125,15.439930612015724,-0.9184498929142951,-1.9934552061527966
1783174257733714700,6.280714599609375,14.108219066917895,-0.2708813260756433,-0.7409451349984854
1783174257743782700,6.29078271484375,12.708155870127678,0.15373159507513046,0.017913842353224754
1783174257753851600,6.3008515625,11.630564047527313,0.35142727343067526,0.1808218465745449
1783174257763920600,6.310920654296875,11.07852520829439,0.4813257191061973,-0.09629448316683992
1783174257773988600,6.320988525390625,10.908789403879641,0.4095261189170182,-0.657439314924553
1783174257784057600,6.3310576171875,10.590888990867137,0.48926966384798287,-0.9092484223920851
1783174257794126800,6.341126953125,10.101050294959544,0.6764654293686151,-0.8143375573370605
1783174257804194800,6.35119482421875,9.878048179781436,0.9102074036173522,-0.5820259812176227
1783174257814263600,6.361263671875,9.359934991025924,1.216875497867167,-0.018257669088523835
1783174257824332800,6.371332763671875,8.447439622601866,1.637673829165846,0.6701417062398046
1783174257834400800,6.38140087890625,8.134945452547074,1.8731107707642018,0.9749218678511679
1783174257844469500,6.391469482421875,8.445671443885564,1.775671264014393,0.7523049525983632
1783174257854537700,6.401537841796875,8.779771296548843,1.6735931376785038,0.3865659894922748
1783174257864606700,6.411606689453125,9.035162354156375,1.6604191833287476,0.06344663625508547
1783174257874675700,6.42167578125,9.498255666479468,1.5258147519193588,-0.17260562423001974
1783174257884743700,6.43174365234375,9.775590844869614,1.5990892469666897,-0.2041394842000678
1783174257894812700,6.441812744140625,9.250064164987206,1.9191877545453606,0.1674575755507685
1783174257904881700,6.451881591796875,7.920107354602218,2.2283557027868923,0.6120266037384048
1783174257914949600,6.46194970703125,6.9267761159658425,2.592349320062995,0.8560258777052163
1783174257925018600,6.4720185546875,6.620110213673114,2.5765105304181573,0.987380440473184
1783174257935087600,6.482087646484375,6.411716469562053,2.1182240338549017,0.8630442320346832
1783174257945155600,6.492155517578125,6.038681613826752,1.4986531887494026,0.6372603041183204
1783174257955224800,6.502224853515625,5.118510303947329,0.5942335747532547,0.6865510623142123
1783174257965292800,6.512292724609375,3.688817692568898,-0.6122463474363088,0.8463814126558601
1783174257975361500,6.522361572265625,1.0330261201649904,-1.5802296481959521,0.9598431027933955
1783174257985430800,6.5324306640625,-3.305156228879094,-2.178861019516736,0.6925403658568858
1783174257995498800,6.542498779296875,-10.24425465080142,-2.201444022724777,0.36238742418847975
1783174258005567500,6.5525673828125,-18.661186322414874,-1.712811195475608,0.6178155258707702
1783174258015636700,6.56263671875,-24.63836921918392,-0.7565921283982694,0.8964902092363685
1783174258025704700,6.57270458984375,-26.40805834004879,-0.13331819099113346,-0.28650526739340276
1783174258035773700,6.582773681640625,-25.642886453223227,-0.4109697418540716,-2.7946017849400637
1783174258045842700,6.5928427734375,-25.794438950693607,-0.65065381950289,-5.486783644369244
1783174258055910700,6.60291064453125,-29.070373176741597,-0.44663449108377096,-6.862869753244519
1783174258065979600,6.612979736328125,-33.038795161676404,0.5253961853705347,-5.681785407465696
1783174258076047600,6.623047607421875,-34.07092053360939,1.4249620757251977,-2.9927628888502715
1783174258086116600,6.63311669921875,-30.56602908337116,1.050128573070094,-0.8465147567119449
1783174258096185600,6.643185546875,-24.5951379802227,-0.13231624740697442,-0.5637272312000393
1783174258106253600,6.653253662109375,-18.602472267639637,-1.3794821810543536,-1.9499200158089398
1783174258116322800,6.66332275390625,-13.172308336114883,-2.4739354143455623,-3.576268587231636
1783174258126391600,6.6733916015625,-8.724567880243063,-2.842738623860478,-4.261719871610403
1783174258136459500,6.68345947265625,-4.761585456013679,-2.461718614590168,-3.6307273226499555
1783174258146528800,6.69352880859375,-1.6668793192535638,-1.2962014019079506,-1.844325698045641
1783174258156597500,6.703597412109375,-0.4914221657067537,0.04277735771387815,0.6412536846034228
1783174258166665500,6.71366552734375,-0.10992635561823844,1.1487060708738863,2.25732884542346
1783174258176734700,6.723734619140625,0.2507949619889259,1.5258315569236873,2.6455694535970684
1783174258186803500,6.733803466796875,1.4317255785107612,1.3373878371685743,2.010040868642181
1783174258196872400,6.74387255859375,4.202693682146072,0.8514709908798337,0.4224009441897273
1783174258206941400,6.75394140625,7.531902986785769,0.6274200973011553,-0.5175625691354274
1783174258217009400,6.764009521484375,9.58812649154067,0.6503665269941091,0.05831468019410967
1783174258227078400,6.774078369140625,10.815498541241883,0.7788885697498917,1.2543556259557604
1783174258237147400,6.7841474609375,11.062439165890217,0.8634324276346713,1.8968804995387791
1783174258247215600,6.794215576171875,11.264827532106636,0.6880404240891337,1.651354417863488
1783174258257284400,6.804284423828125,12.018882981634139,0.2994778904847801,1.2764885473087428
1783174258267353300,6.814353271484375,13.197760757279395,0.1866978990010917,1.1404990912817419
1783174258277421600,6.824421630859375,14.83300516734123,-0.0042905368007719515,0.9299350173942744
1783174258287490300,6.834490234375,16.034399895220993,-0.23879735794216392,0.6559247456431389
1783174258297558300,6.844558349609375,15.918434259438515,-0.19692863950580358,0.7879907446160912
1783174258307627500,6.85462744140625,14.966494769376515,0.19126096913293003,1.1392637042678893
1783174258317696300,6.8646962890625,13.884974959677457,0.5673562353521585,1.316690501576662
1783174258327764500,6.874764404296875,12.607750207048653,0.9767461606688796,1.505181275343895
1783174258337833500,6.88483349609375,11.783672542268038,1.4690240664221346,1.8689966134436427
1783174258347902200,6.894902099609375,11.480991910219192,1.591309552875906,1.6826637483626603
1783174258357970400,6.904970458984375,10.946654731893538,1.578134283351898,1.2791326320767402
1783174258368039400,6.915039306640625,9.780919930937886,1.681205950769782,1.0015786963693798
1783174258378108400,6.9251083984375,8.803810343784093,1.6526437270216643,0.7700165503777563
1783174258388176400,6.93517626953125,8.362058510175347,1.6147449351295828,0.7849466276798397
1783174258398245400,6.945245361328125,8.204629814147948,1.5863278189405798,0.8456357819203287
1783174258408313600,6.955313720703125,8.286042022943496,1.3917039492458105,0.7243318538498132
1783174258418382300,6.96538232421875,8.174476667946577,1.2277337226204574,0.4295968470431864
1783174258428451300,6.975451416015625,7.954600575834513,1.0243043229185045,-0.005785798593517392
1783174258438519600,6.98551953125,7.843515113309025,0.842589180766046,-0.4459265620101243
1783174258448588300,6.99558837890625,7.77064101575613,0.7493339008983224,-0.5123823169533163
1783174258458657500,7.005657470703125,7.583573552790284,0.7816394028279929,-0.4345243665732443
1783174258468725500,7.0157255859375,6.967620752051472,0.8843438443686813,-0.2521261375274509
1783174258478794200,7.025794189453125,6.350044734025001,0.6608098142709583,0.013540979297552257
1783174258488863500,7.035863525390625,5.357295679190755,0.28975188463181256,0.1995569421827793
1783174258498931500,7.045931396484375,4.398659321838617,-0.1370417415589094,0.4206587036322802
1783174258509000200,7.056000244140625,3.19744111956954,-0.7358679778646677,0.9455310843244195
1783174258519068400,7.066068359375,1.9639438649863004,-1.9036660680256783,0.945130321503803
1783174258529137400,7.076137451171875,0.09161620742380619,-2.9890438683271405,0.3514004584889859
1783174258539206400,7.086206298828125,-2.5326380709439515,-3.8509275321498513,0.3718549983009696
1783174258549274400,7.0962744140625,-6.058012921762466,-4.199336188411713,0.904834113081172
1783174258559343400,7.10634326171875,-11.002065068948268,-4.281337595272064,1.9268088970735668
1783174258569412400,7.116412353515625,-15.552861410146951,-4.124952855339646,3.1570906967416406
1783174258579480300,7.126480224609375,-17.924172024059295,-3.474037754552066,2.655407249261439
1783174258589549300,7.13654931640625,-20.388385378074645,-2.4611861151486636,-0.8459722473330795
1783174258599618600,7.14661865234375,-24.887679495573042,-1.143256134904921,-4.549342050737143
1783174258609686300,7.156686279296875,-31.156632338798044,0.9097681354172528,-6.067880235782265
1783174258619755500,7.166755615234375,-37.62069858880043,3.541246958211064,-5.394294161242247
1783174258629823500,7.176823486328125,-39.891159302997586,4.665943646335601,-4.216370909842849
1783174258639892200,7.186892333984375,-36.36320495707989,3.767338563837111,-2.800386505821347
1783174258649961500,7.19696142578125,-29.364492901194094,2.6007448079645634,-1.5109779789239168
1783174258660029400,7.207029541015625,-21.92297979490757,1.4875797138102351,-0.3821304547302425
1783174258670098400,7.217098388671875,-15.739154381608962,0.3564347263291478,0.36707854114677757
1783174258680167400,7.22716748046875,-10.718252803498507,-0.3339786374364048,0.24058113608639686
1783174258690235400,7.2372353515625,-5.959966973552107,-0.8346432632628827,0.06768610045574605
1783174258700304400,7.247304443359375,-2.0304677167296408,-0.9347733973361552,0.025124065992981195
1783174258710373400,7.257373291015625,0.611662410068512,-0.8560721279997378,0.0996235362580046
1783174258720441300,7.26744140625,2.412094459721446,-0.6410108888234943,0.28236396633759137
1783174258730510600,7.277510498046875,4.201790011304617,0.07854819766655564,0.49758419546782967
1783174258740578300,7.287578369140625,6.366743939891458,0.43176410807967186,0.514315732701309
1783174258750647300,7.297647216796875,9.04488587579131,0.25386823195442554,-0.0011631620278581977
1783174258760716500,7.307716552734375,11.635431945824623,0.011861702707409858,-0.3396134284529835
1783174258770784300,7.3177841796875,13.575273050689697,-0.2083675867564976,-0.4093109052637592
1783174258780853500,7.327853515625,14.424454761588573,-0.4199941753089428,-0.7653772001393139
1783174258790922500,7.337922607421875,14.404828854620456,-0.6656744246326387,-1.2970678094789385
1783174258800990500,7.347990478515625,13.563482075130938,-0.4925669518277049,-1.3107096736013888
1783174258811059500,7.3580595703125,12.477272061789035,-0.08528422792330384,-0.6187682965509593
1783174258821128400,7.36812841796875,11.917482462298869,0.38468554604053495,0.149474156826362
1783174258831196400,7.378196533203125,11.978843232190608,0.6545078645825385,0.5709485242230817
1783174258841265400,7.388265380859375,12.313662046778202,0.7870042177967727,0.5351143001779913
1783174258851333400,7.39833349609375,12.61788230948448,0.8214956854633987,0.25735585487447676
1783174258861402600,7.408402587890625,12.919750456106662,0.8859970914684235,0.03070363795729354
1783174258871471400,7.418471435546875,12.31924072369337,1.0039894107729197,0.01254980370257981
1783174258881539300,7.428539306640625,11.148272698259353,1.2367737920358777,0.27210884031029414
1783174258891608600,7.438608642578125,10.308321757042407,1.5808480723552405,0.48391756223030385
1783174258901677300,7.44867724609375,9.670066523602605,1.8413943207688628,0.6161880707994103
1783174258911745300,7.458745361328125,9.080168786096573,2.0485162913784385,0.5698207257695496
1783174258921814500,7.468814453125,8.635815830078721,1.9352527541615068,0.12991967112664132
1783174258931883300,7.47888330078125,8.39476484799087,1.6611774543501436,-0.5894776854630559
1783174258941951500,7.488951416015625,8.487807873347402,1.498957578523457,-1.1640966052945703
1783174258952020500,7.4990205078125,8.79020325871408,1.4379285248041151,-1.337155197456479
1783174258962088400,7.50908837890625,8.864590098917484,1.5187698018439113,-0.9388963955502957
1783174258972157400,7.519157470703125,8.402791502580046,1.7280175324358045,-0.3141156337767839
1783174258982226400,7.529226318359375,7.6824290638178585,1.9468569749765097,0.40534598368816077
1783174258992294400,7.53929443359375,7.627738857731223,2.137187823652476,1.0685126632835715
1783174259002363400,7.54936328125,7.98554458015263,2.1070206489257512,1.0987316412627697
1783174259012432400,7.559432373046875,8.482650052192806,1.896362028622627,0.6983326855227351
1783174259022500600,7.56950048828125,8.850602490097284,1.461019477534294,0.018792762345913795
1783174259032569300,7.5795693359375,8.489013157483935,1.1064549289911985,-0.3261474323540926
1783174259042638300,7.589638427734375,7.886049017655849,0.8453878715738654,-0.1514831585612148
1783174259052706600,7.59970654296875,6.73604662336111,0.6076343235962093,0.5679251578139141
1783174259062775300,7.609775390625,4.560363795489073,0.07916267630308867,1.52807407515347
1783174259072843300,7.61984326171875,1.9744927315294742,-0.5711525588952004,2.042089765462279
1783174259082912500,7.62991259765625,-0.9498094922959804,-1.2735317433297633,2.202919940496236
1783174259092981200,7.639981201171875,-4.246232964143156,-2.01664479695186,1.9639935493469236
1783174259103049500,7.650049560546875,-7.676599627012014,-2.6589678643524643,0.7767515577211975
1783174259113118500,7.660118408203125,-11.092329277241229,-3.0781138983994722,-1.0390579476751387
1783174259123187200,7.670187255859375,-14.766617509198188,-3.234037742821872,-2.512315998405218
1783174259133255400,7.68025537109375,-20.038205328226088,-2.693902107350528,-3.8546827930301424
1783174259143324400,7.690324462890625,-27.5676235124588,-0.9732367643084376,-5.29920940092504
1783174259153393400,7.700393310546875,-35.43367486722469,1.307998076555133,-5.683128638768196
1783174259163461400,7.71046142578125,-40.801713474226,3.1759824442163107,-4.421826846936344
1783174259173530400,7.7205302734375,-41.5156251294136,4.361920659767091,-3.21860841076076
1783174259183598000,7.73059814453125,-37.295800279724595,4.015649600055814,-2.8291946671545505
1783174259193666800,7.740666748046875,-30.80066552224159,3.2381288115277886,-2.301456010311097
1783174259203736000,7.750736083984375,-24.919376948606967,2.7352356959968804,-0.7416115630179643
1783174259213804000,7.760803955078125,-19.91793410420418,2.716283742767572,0.8390728432081639
1783174259223873000,7.770873046875,-15.002729281318187,2.590789815661311,1.0283660193994641
1783174259233942000,7.78094189453125,-9.169314804014563,1.922925625899434,-0.08121193698309362
1783174259244010000,7.791010009765625,-2.752043622934818,0.940464740845561,-1.5678586807921528
1783174259254079000,7.801078857421875,2.32340612244308,0.0775211196411401,-2.734831791371107
1783174259264148000,7.81114794921875,5.1778299234002825,-0.19534334307573734,-3.2272724864706395
1783174259274216000,7.8212158203125,6.414259724304079,-0.14000380623489617,-2.7525881050750614
1783174259284285200,7.83128515625,7.109823821896314,0.17207118855975567,-1.6058268846586345
1783174259294353000,7.841352783203125,7.66771021811366,0.46396505365632473,-0.7683412375766784
1783174259304422100,7.851422119140625,8.485886549896001,0.40148857760764656,-0.46717203300409016
1783174259314491100,7.8614912109375,9.733933138835429,0.10866787998974323,-0.5610611903285607
1783174259324558800,7.871558837890625,10.893100836360453,-0.3209786514140665,-0.8364880874119699
1783174259334628000,7.881628173828125,11.929862635922431,-0.7263640172645449,-1.0911202164109797
1783174259344697000,7.891697021484375,12.818791835319995,-1.0656334545854478,-1.3892828595787285
1783174259354765000,7.90176513671875,13.579713078963756,-1.2329147785201668,-1.4477993459552525
1783174259364834000,7.911833984375,13.74561441978216,-1.1029909792076795,-0.9047640435196459
1783174259374903000,7.921903076171875,13.555689229297638,-0.6306668241374195,-0.08898249791935085
1783174259384971300,7.93197119140625,13.312593589639663,-0.1609703141570091,0.9188639536079019
1783174259395040000,7.9420400390625,12.657474315160512,0.16565226142816245,1.469425194568932
1783174259405109000,7.95210888671875,11.501728408777714,0.5544616094004362,1.6841177465632557
1783174259415177200,7.96217724609375,10.873222415935993,0.6773518568143249,1.7024138662323354
1783174259425246000,7.972245849609375,10.820844578444957,0.7699482343818992,1.564433967040479
1783174259435314000,7.98231396484375,10.565551135993003,0.8615211871858686,1.212299714384228
1783174259445383200,7.992383056640625,10.07535705077648,0.89062190172486,0.7008213605333119
1783174259455452000,8.002451904296874,9.517800324904918,0.9043510788045823,0.2684361979458481
1783174259465519900,8.012519775390626,8.953806843984127,0.8916639581236988,0.023688818158628416
1783174259475589000,8.022589111328125,8.195091001430153,0.983209803725034,-0.035425040456000714
1783174259485657900,8.032657958984375,7.813022359889746,1.1978403233338146,-0.09264619892551564
1783174259495726000,8.04272607421875,7.975508923828602,1.2569146627888084,-0.08717162170563823
1783174259505795000,8.052795166015626,8.21508749527633,1.334512281732261,0.14009304628777317
1783174259515864000,8.062864013671875,8.306732344272731,1.5245698664247989,0.464861381441541
1783174259525932000,8.07293212890625,8.296284015494585,1.5385010688826442,0.4937177292980253
1783174259536001000,8.0830009765625,8.213644895252585,1.3946366416968405,0.3408156803822145
1783174259546069000,8.093069091796876,8.000309603086114,1.2149048553813249,0.2977272108925506
1783174259556138000,8.103137939453125,7.258512162107229,1.34907067617774,0.47106275683231646
1783174259566207000,8.11320703125,6.846663883852958,1.6099910186007618,0.8820118942897767
1783174259576275200,8.123275146484374,6.1587657908439635,1.751630317083001,1.4170393199019133
1783174259586344000,8.133343994140626,5.348536034151912,2.0300059444367884,1.6083004351653158
1783174259596413200,8.1434130859375,5.244406966635585,1.9360858439847826,1.1759843192260713
1783174259606481200,8.153481201171875,5.174353771722316,1.0949407245472074,0.8954182691559195
1783174259616550000,8.1635498046875,4.491725143548846,-0.07816292467601597,0.8137173065468668
1783174259626619100,8.173619140625,2.355176056191325,-1.109421450646594,1.1577117265630512
1783174259636687000,8.18368701171875,-1.4876321746498344,-1.5326149334535002,2.0773830510310827
1783174259646755800,8.193755859375,-5.621942056399583,-1.768811607377976,2.891005518901348
1783174259656824000,8.203823974609374,-9.413582994583248,-1.7814830190330744,3.023587066181004
1783174259666893000,8.21389306640625,-13.138392037987709,-1.6864641635589301,2.7204540141895412
1783174259676962000,8.223962158203125,-15.294219826310872,-2.4062355045601724,1.9615338812351226
1783174259687030000,8.234030029296875,-15.301319429183005,-3.526483981104195,0.2815482660405338
1783174259697099000,8.24409912109375,-14.641015445542335,-4.542902373078465,-1.807291706289351
1783174259707168000,8.25416796875,-14.70678351048231,-4.312905868968367,-4.566863386641442
1783174259717236000,8.264236083984375,-18.43008741002083,-3.0948516827106474,-7.542090618801116
1783174259727305000,8.274304931640625,-25.709456482195854,-1.6234528499811887,-8.788685839888453
1783174259737374000,8.2843740234375,-34.072512771236894,0.6343163596209138,-6.426821684235334
1783174259747442000,8.29444189453125,-38.642714070129394,3.269776872462034,-2.5915388804629442
1783174259757511200,8.30451123046875,-36.21843525161743,4.68627448670268,0.06106456342414021
1783174259767579100,8.3145791015625,-29.36590042990446,3.639296413552761,0.4184603533377871
1783174259777647900,8.32464794921875,-21.522065583121776,1.6978373520970345,-0.5430657706391065
1783174259787717000,8.334717041015624,-13.818346478515863,-0.07013338401000946,-1.3186010113731026
1783174259797785000,8.34478515625,-5.844291260626912,-1.3592492481037974,-1.254625821199268
1783174259807853800,8.354853759765625,0.8412666999906301,-1.3603254990331828,-0.450253741026856
1783174259817923000,8.364923095703125,5.280516975414753,-1.178469194844365,0.0833640369830653
1783174259827991000,8.374990966796876,8.333988599988817,-1.0177593582544475,0.3331321401422843
1783174259838060000,8.38506005859375,9.84396821552515,-0.7875024496424943,0.5588758821787312
1783174259848129000,8.39512890625,10.053216530638933,-0.6772540955282748,0.5592021915236488
1783174259858197000,8.405197021484375,8.698931334683298,-0.9572964139852672,0.3238497864035889
1783174259868266000,8.415265869140624,6.837421423733234,-0.809334269157052,0.13167145583056844
1783174259878334000,8.425333984375,5.74813507168591,-0.5868409072186798,0.145417538379319
1783174259888403000,8.43540283203125,5.577949185416102,-1.0221423225790263,-0.24324818160487338
1783174259898472200,8.44547216796875,6.243393454554677,-1.3611537665508686,-0.19895709485979748
1783174259908540000,8.455539794921876,7.304569564405083,-1.5608566930755972,1.0152178570780903
1783174259918609200,8.465609130859375,10.063872364687919,-1.114237399560958,0.25264380472600456
1783174259928678100,8.47567822265625,11.73100127478838,-0.8509735627517103,0.5574873504297807
1783174259938745900,8.485745849609375,11.801036349523066,-0.520881192164123,1.4703171749725936
1783174259948815000,8.495815185546874,12.787024239659308,-0.29846787319201973,1.3030946685530245
1783174259958884000,8.505884033203126,12.016902621471882,-0.448593333533965,1.9529909476868808
1783174259968952000,8.5159521484375,9.84288568098545,-0.6296481486141682,4.110404982288181
1783174259979021000,8.52602099609375,8.310564469781518,-0.028551848484575745,3.474332061323523
1783174259989090000,8.536090087890624,7.807239684835076,-0.01692157991286367,2.1914330624505878
1783174259999158000,8.546157958984375,8.514799340647459,-0.23235026416201143,1.0087626165241002
1783174260009227000,8.55622705078125,9.55231926510036,-0.403568160360679,0.050713977665733545
1783174260019295000,8.566294921875,10.120241317641735,-0.7999738086808472,-0.26534237838266417
1783174260029364200,8.5763642578125,10.202786329859494,-0.8046578017786145,-0.03882421790761873
1783174260039433000,8.586432861328126,9.758310624244809,-0.6082079587657004,0.2635493392197415
1783174260049501000,8.5965009765625,8.858564847278595,-0.5167985990256071,0.07056191162038594
1783174260059570200,8.606570068359375,7.940286803799867,-0.48871999407596883,0.07643566249199212
1783174260069639000,8.616638916015624,7.431422504904866,0.32363786068595946,0.5466095441931859
1783174260079707000,8.626706787109375,8.121478652730584,0.9089584995348006,0.7359684425644576
1783174260089776000,8.636776123046875,8.35177735465765,0.7873513507340103,-0.046459918684139845
1783174260099844900,8.646844970703125,8.07066324225068,0.37499128703270107,-0.803823104520142
1783174260109913000,8.6569130859375,6.6878738363444805,-0.0743374481037259,-1.2752496531635522
1783174260119982000,8.666982177734376,1.6944477096587418,-0.28463724503181875,-2.051799258571863
1783174260130050000,8.677050048828125,1.2718787154257296,0.17161738037765026,-1.1256420792158692
1783174260140119000,8.687119140625,1.843513651010394,0.6987725382447242,-0.6307479265496134
1783174260150188000,8.69718798828125,3.6261370722502466,2.6279712530642745,0.7614270742740482
1783174260160256000,8.707256103515626,5.128270650461316,2.9744726144000886,2.0762192679487166
1783174260170325000,8.717324951171875,5.694395298191905,2.1405615378692744,3.097665278826654
1783174260180394000,8.72739404296875,5.004378313332796,0.5801106491155922,3.6374887796089053
1783174260190462200,8.737462158203124,2.512449853917956,-1.00804511590451,3.0045708155438304
1783174260200531000,8.747531005859376,-1.013895303237438,-1.811733780390024,1.529035175270587
1783174260210600200,8.75760009765625,-4.948035663864016,-1.6346885297447442,0.13274981651864945
1783174260220668200,8.767668212890625,-8.250383265063165,-0.9064904289208352,-0.20676859059464187
1783174260230737000,8.77773681640625,-11.179465124380588,-0.5221327996604145,0.3242954478118569
1783174260240804900,8.787804931640625,-12.756729639160632,-0.8159653777346014,0.46214806736223396
1783174260250874000,8.7978740234375,-12.035761635720728,-1.4789192913621663,-0.6476447008147835
1783174260260942800,8.80794287109375,-11.723605903840065,-2.0751701972872016,-2.0249127129510045
1783174260271011000,8.818010986328124,-11.767488300186395,-2.3364814387239514,-2.9670035936936734
1783174260281080000,8.828080078125,-11.845519634371994,-2.232345649205893,-3.5233553276896474
1783174260291149000,8.838149169921875,-14.031388340693711,-1.83052206749022,-3.5617417569682
1783174260301217000,8.848217041015625,-17.395486003363132,-0.6031035482987761,-3.8021687619388103
1783174260311286000,8.8582861328125,-18.823007700443267,0.6503929766096175,-3.605946517136693
1783174260321355000,8.86835498046875,-18.546320756828784,0.8326902294989674,-2.2035595535740256
1783174260331423000,8.878423095703125,-16.96438941928148,0.8347078529316931,-0.9003292759425937
1783174260341492000,8.888491943359375,-13.653386217939852,1.1017750275466591,-0.26312413607761265
1783174260351560200,8.898560302734374,-9.62348597421348,1.2449331330940128,0.5217298448827118
1783174260361629000,8.90862890625,-5.630667214646935,1.0463380947459489,0.4290469580754637
1783174260371698200,8.9186982421875,-2.2207272537350655,0.30478834491781887,-0.739911188840866
1783174260381766100,8.92876611328125,-0.8202583987534046,-0.4794193009629845,-2.431598493875563
1783174260391835000,8.9388349609375,-0.7502280001938343,-0.2014871065277606,-2.513220253768563
1783174260401904000,8.948904052734376,-1.0239268679082394,0.6667636811740696,-1.3107884379260242
1783174260411972000,8.95897216796875,-1.0026748210430145,1.1497028998915106,-0.3158439188741147
1783174260422040800,8.969040771484375,-0.2696884630292654,1.1088440160848199,0.6360872417509555
1783174260432110000,8.979110107421874,0.7381611303031445,0.7223958442859352,1.3053688970953226
1783174260442178000,8.989177978515626,1.810903759306669,-0.037419940600264816,1.255407034704834
1783174260452246800,8.999246826171875,2.262231815034151,-0.1864196665816009,1.5245448781140147
1783174260462316000,9.00931591796875,2.165273662060499,-0.13714056229088456,1.6126991085156797
1783174260472384000,9.019384033203124,1.9637153169274328,-0.5744230319332331,0.9348761270582675
1783174260482453000,9.029452880859376,2.3988930328428744,-1.047960069924593,0.3016629794389009
1783174260492521000,9.03952099609375,3.1483471260547637,-1.4826833200708032,0.04653364150747657
1783174260502590000,9.04958984375,3.792780171346664,-1.609545028398931,0.28336832107454535
1783174260512659200,9.0596591796875,4.784247369676828,-1.3594229972355067,0.8500270756818353
1783174260522727000,9.069726806640626,5.608775700834393,-1.2164097800515592,1.907657768010348
1783174260532796000,9.0797958984375,5.75097000285089,-0.904747823037207,2.544468793991208
1783174260542865200,9.089865234375,5.815768930497765,-0.7073398755818605,2.521538584780693
1783174260552932900,9.099932861328124,6.265709331259131,-1.0402877817310392,2.0813528314448893
1783174260563002000,9.110002197265626,6.90936262435019,-1.4810320457324384,1.3898119980193673
1783174260573071000,9.120071044921875,7.63839352273643,-1.7020432793542741,0.7678466589927673
1783174260583138800,9.130138916015625,8.394084464511275,-1.7957710721045732,0.3970142817378044
1783174260593208000,9.1402080078125,9.000995296138525,-1.713510575916618,0.5068012288853526
1783174260603276000,9.150276123046876,9.198797503608464,-1.3738136338986455,0.932986075527966
1783174260613345000,9.160344970703125,8.763373119455576,-0.8278423510763794,1.164729715566337
1783174260623414000,9.1704140625,7.851611910524964,-0.24976271459804847,1.2488646273240447
1783174260633482000,9.18048193359375,6.9134268050491805,0.3504795442517847,1.18985297784172
1783174260643551200,9.19055126953125,6.734466660693287,0.3032248219281435,0.9800129073798656
1783174260653620000,9.200619873046875,7.198857611611485,0.18594470601361243,0.21195545518063008
1783174260663688000,9.21068798828125,7.328524440488219,0.3674077000359073,-0.6665577833384275
1783174260673757200,9.220757080078124,7.07889150801599,0.2114654066413641,-1.3079903316400945
1783174260683826000,9.230825927734376,6.117976099815964,0.785352212806046,-1.268344111558795
