time,seconds_elapsed,z,y,x
1783174251531438000,0.07843798828125,-0.06772777438163757,0.048373349010944366,0.0043523842468857765
1783174251541506300,0.08850634765625,-0.08172561228275299,0.09297730028629303,-0.09880569577217102
1783174251551575300,0.0985751953125,-0.06854139268398285,0.05153756961226463,-0.0830981433391571
1783174251561644000,0.10864404296875,-0.015043549239635468,-0.07541212439537048,0.01874539628624916
1783174251571712300,0.118712158203125,0.049990274012088776,-0.19790546596050262,0.17178599536418915
1783174251581781200,0.12878125,0.12331695109605789,-0.28051406145095825,0.3211698830127716
1783174251591850200,0.138850341796875,0.15821513533592224,-0.2751564681529999,0.406426340341568
1783174251601918200,0.148918212890625,0.15542440116405487,-0.1857331097126007,0.4321093261241913
1783174251611987200,0.1589873046875,0.11930325627326965,-0.09910090267658234,0.3908730745315552
1783174251622055200,0.16905517578125,0.0838126391172409,-0.0033456175588071346,0.2725815773010254
1783174251632124200,0.179124267578125,0.0748775452375412,0.09871065616607666,0.11827738583087921
1783174251642193200,0.189193115234375,0.10169345140457153,0.1913556456565857,-0.03859078884124756
1783174251652261400,0.199261474609375,0.1324632167816162,0.23867788910865784,-0.13561418652534485
1783174251662330000,0.209330078125,0.1453888714313507,0.29075175523757935,-0.1481693834066391
1783174251672399400,0.2193994140625,0.1536586582660675,0.337139755487442,-0.13079741597175598
1783174251682467300,0.22946728515625,0.15436358749866486,0.33937788009643555,-0.10117800533771515
1783174251692536000,0.2395361328125,0.18797768652439117,0.33422327041625977,-0.0725138783454895
1783174251702604300,0.249604248046875,0.2470892071723938,0.33319076895713806,-0.08166929334402084
1783174251712673300,0.25967333984375,0.2973081171512604,0.3114111125469208,-0.08707251399755478
1783174251722742000,0.269741943359375,0.20748476684093475,0.18370908498764038,-0.04234951362013817
1783174251732810200,0.279810302734375,0.24332745373249054,0.11868708580732346,0.07541976869106293
1783174251742879200,0.289879150390625,0.3372257351875305,0.04005245491862297,0.11930413544178009
1783174251752948200,0.2999482421875,0.3533034920692444,-0.011833379045128822,0.03849344700574875
1783174251763016200,0.31001611328125,0.3225865960121155,0.023904377594590187,-0.08660587668418884
1783174251773085200,0.320085205078125,0.31932082772254944,0.13222548365592957,-0.24766916036605835
1783174251783154200,0.330154296875,0.3462770879268646,0.24067498743534088,-0.4022693932056427
1783174251793222100,0.34022216796875,0.34685274958610535,0.3074190318584442,-0.4932487905025482
1783174251803291100,0.350291015625,0.26786208152770996,0.3334924280643463,-0.5249395966529846
1783174251813359400,0.360359375,0.13920797407627106,0.3134251534938812,-0.5130541324615479
1783174251823428000,0.370427978515625,0.07052826136350632,0.28506729006767273,-0.49697956442832947
1783174251833497300,0.380497314453125,0.05597496032714844,0.2485227882862091,-0.478383868932724
1783174251843565300,0.3905654296875,0.06361956894397736,0.2009403556585312,-0.47652631998062134
1783174251853634000,0.400634033203125,0.05679931864142418,0.1960573047399521,-0.47974303364753723
1783174251863703300,0.410703369140625,0.053344931453466415,0.16575132310390472,-0.4671156406402588
1783174251873771300,0.420771240234375,0.046456482261419296,0.15953917801380157,-0.4084068834781647
1783174251883840000,0.430840087890625,0.08486459404230118,0.2206273078918457,-0.33954980969429016
1783174251893908200,0.440908203125,0.15645666420459747,0.27523601055145264,-0.30396533012390137
1783174251903977200,0.450977294921875,0.2402399778366089,0.3206607699394226,-0.28990623354911804
1783174251914046200,0.461046142578125,0.26934781670570374,0.3935259282588959,-0.30490419268608093
1783174251924114200,0.4711142578125,0.23246514797210693,0.4845951199531555,-0.3459368348121643
1783174251934183200,0.48118310546875,0.11898841708898544,0.5702520608901978,-0.359761506319046
1783174251944252200,0.491252197265625,-0.029940875247120857,0.665717363357544,-0.3227049708366394
1783174251954320100,0.501320068359375,-0.15883265435695648,0.7251638174057007,-0.25672900676727295
1783174251964389000,0.51138916015625,-0.21302053332328796,0.6809335350990295,-0.1984931379556656
1783174251974458000,0.5214580078125,-0.21176691353321075,0.5328194499015808,-0.14474396407604218
1783174251984526000,0.531526123046875,-0.18035972118377686,0.3450348973274231,-0.10530254244804382
1783174251994595300,0.54159521484375,-0.12567824125289917,0.193365216255188,-0.07543829083442688
1783174252004663300,0.551663330078125,-0.05342002213001251,0.058806080371141434,-0.05456416681408882
1783174252014732000,0.56173193359375,0.004191828425973654,-0.07722876220941544,-0.02095162123441696
1783174252024801300,0.57180126953125,0.028528327122330666,-0.22782598435878754,-0.0031483888160437346
1783174252034869200,0.581869140625,0.022647447884082794,-0.37828630208969116,0.027296779677271843
1783174252044938000,0.59193798828125,-0.003393207909539342,-0.4656742215156555,0.09894806146621704
1783174252055007200,0.60200732421875,-0.044190894812345505,-0.47464221715927124,0.21128416061401367
1783174252065075200,0.6120751953125,-0.09157571941614151,-0.4642747938632965,0.3051251769065857
1783174252075144200,0.622144287109375,-0.132075697183609,-0.44986116886138916,0.35670602321624756
1783174252085212200,0.632212158203125,-0.1540321260690689,-0.42971354722976685,0.36787691712379456
1783174252095281200,0.64228125,-0.1329013705253601,-0.3904615640640259,0.3555137813091278
1783174252105350100,0.65235009765625,-0.07245799899101257,-0.3197557032108307,0.31742390990257263
1783174252115418000,0.662418212890625,0.006324531510472298,-0.2305554449558258,0.25896668434143066
1783174252125487000,0.672487060546875,0.07426442950963974,-0.12146623432636261,0.17825743556022644
1783174252135556000,0.68255615234375,0.11252787709236145,-0.006685130298137665,0.0638042464852333
1783174252145624000,0.6926240234375,0.12901391088962555,0.09846073389053345,-0.05021926388144493
1783174252155693300,0.702693359375,0.13009501993656158,0.18531230092048645,-0.10470113158226013
1783174252165761300,0.71276123046875,0.11644472926855087,0.2362511157989502,-0.09440215677022934
1783174252175830300,0.722830322265625,0.09825746715068817,0.23295998573303223,-0.06563929468393326
1783174252185899300,0.732899169921875,0.09418895840644836,0.19521953165531158,-0.01623552478849888
1783174252195967200,0.74296728515625,0.10474985092878342,0.16985318064689636,0.04274674132466316
1783174252206036200,0.7530361328125,0.12584848701953888,0.15766549110412598,0.11610350757837296
1783174252216105200,0.763105224609375,0.13999883830547333,0.1765952706336975,0.18463987112045288
1783174252226173200,0.773173095703125,0.14610573649406433,0.18953104317188263,0.2196764200925827
1783174252236242200,0.7832421875,0.14672215282917023,0.2017471343278885,0.20037336647510529
1783174252246311200,0.793311279296875,0.1545313447713852,0.22297519445419312,0.15182900428771973
1783174252256379400,0.80337939453125,0.14468781650066376,0.2524087727069855,0.11048513650894165
1783174252266448400,0.813448486328125,0.14702659845352173,0.2870732843875885,0.09428645670413971
1783174252276516000,0.82351611328125,0.16877351701259613,0.3197832405567169,0.06630752980709076
1783174252286585300,0.83358544921875,0.19293372333049774,0.3058953881263733,0.022647133097052574
1783174252296654300,0.843654296875,0.19413943588733673,0.227680042386055,0.01716914027929306
1783174252306722000,0.85372216796875,0.19201797246932983,-0.008433678187429905,0.019136149436235428
1783174252316791300,0.863791259765625,0.19676785171031952,-0.16064639389514923,0.07250554114580154
1783174252326860300,0.8738603515625,0.19497208297252655,-0.1469729244709015,0.16198481619358063
1783174252336928300,0.88392822265625,0.20461112260818481,-0.17015255987644196,0.25292733311653137
1783174252346997200,0.893997314453125,0.21101762354373932,-0.1491577923297882,0.34067606925964355
1783174252357065200,0.904065185546875,0.21934644877910614,-0.06263081729412079,0.37633195519447327
1783174252367134200,0.91413427734375,0.2218295782804489,0.06126262620091438,0.3436855971813202
1783174252377203200,0.924203125,0.21603062748908997,0.17969068884849548,0.2642439007759094
1783174252387271200,0.934271240234375,0.20014114677906036,0.28201571106910706,0.18455281853675842
1783174252397340400,0.94434033203125,0.15932877361774445,0.3117409348487854,0.1177968755364418
1783174252407409200,0.9544091796875,0.10451161116361618,0.2770404815673828,0.05194595828652382
1783174252417477400,0.964477294921875,0.04138598218560219,0.22183680534362793,0.005869784392416477
1783174252427546400,0.97454638671875,-0.005876605864614248,0.1681799590587616,-0.02225506119430065
1783174252437614000,0.984614013671875,-0.024817459285259247,0.13716022670269012,-0.030880074948072433
1783174252447683300,0.994683349609375,-0.03152835741639137,0.13695035874843597,-0.04783269390463829
1783174252457752300,1.00475244140625,-0.024578284472227097,0.13407428562641144,-0.0732775628566742
1783174252467820300,1.0148203125,-0.031544312834739685,0.14524544775485992,-0.11408117413520813
1783174252477889300,1.02488916015625,-0.038648128509521484,0.15917663276195526,-0.18964572250843048
1783174252487958300,1.034958251953125,-0.03774159029126167,0.18601037561893463,-0.2864484488964081
1783174252498026500,1.045026611328125,-0.0533435121178627,0.20587189495563507,-0.38407498598098755
1783174252508095200,1.05509521484375,-0.09528456628322601,0.19062690436840057,-0.47180402278900146
1783174252518164200,1.065164306640625,-0.15167942643165588,0.14074598252773285,-0.5270648002624512
1783174252528232400,1.075232421875,-0.20485129952430725,0.07895238697528839,-0.5431976914405823
1783174252538301200,1.08530126953125,-0.21799370646476746,0.046603426337242126,-0.5056720972061157
1783174252548369200,1.095369140625,-0.20172178745269775,0.06759285926818848,-0.4068695902824402
1783174252558438400,1.1054384765625,-0.16762785613536835,0.17215511202812195,-0.26430273056030273
1783174252568507100,1.115507080078125,-0.12461193650960922,0.3781642019748688,-0.13730774819850922
1783174252578575400,1.125575439453125,-0.08018074929714203,0.6483420729637146,-0.07375437021255493
1783174252588644400,1.135644287109375,-0.03419194743037224,0.8528997898101807,-0.06671217083930969
1783174252598713000,1.145713134765625,-0.0020760626066476107,0.9247757196426392,-0.05569151043891907
1783174252608781300,1.15578125,0.005567475687712431,0.8559048175811768,-0.013278009369969368
1783174252618850300,1.165850341796875,-0.004761197604238987,0.6816812753677368,0.04834158346056938
1783174252628918300,1.175918212890625,-0.013330450281500816,0.5138310194015503,0.1248246431350708
1783174252638987300,1.1859873046875,-0.033635348081588745,0.39876341819763184,0.19551704823970795
1783174252649056300,1.19605615234375,-0.10727441310882568,0.36712774634361267,0.24661991000175476
1783174252659124500,1.20612451171875,-0.23851090669631958,0.284928560256958,0.2758922576904297
1783174252669193200,1.216193115234375,-0.32533714175224304,0.2608032524585724,0.35161179304122925
1783174252679262200,1.22626220703125,-0.32749995589256287,0.3724350333213806,0.4784232974052429
1783174252689330400,1.236330322265625,-0.208626851439476,0.30754631757736206,0.5042820572853088
1783174252699399200,1.246399169921875,0.00037127386895008385,0.2557658553123474,0.4070965051651001
1783174252709468400,1.256468505859375,0.19352900981903076,0.29882144927978516,0.17914137244224548
1783174252719536400,1.266536376953125,0.2847083508968353,0.4277777075767517,-0.09892427176237106
1783174252729605000,1.276605224609375,0.29837197065353394,0.4259079098701477,-0.2949827313423157
1783174252739673300,1.28667333984375,0.25043195486068726,0.3579607605934143,-0.31545403599739075
1783174252749742300,1.296742431640625,0.09621761739253998,0.33644136786460876,-0.08291265368461609
1783174252759811000,1.30681103515625,0.0023859553039073944,0.31669551134109497,0.2185732126235962
1783174252769879300,1.31687939453125,-0.042370863258838654,0.14918719232082367,0.4045870304107666
1783174252779948300,1.3269482421875,-0.03975620120763779,0.06433872133493423,0.5172339677810669
1783174252790017300,1.337017333984375,0.04117220640182495,-0.03828432038426399,0.5274514555931091
1783174252800085200,1.347085205078125,0.15716399252414703,-0.14011460542678833,0.4105885624885559
1783174252810154200,1.357154296875,0.254911869764328,-0.2181398868560791,0.29943326115608215
1783174252820222500,1.367222412109375,0.29319873452186584,-0.238358274102211,0.17106707394123077
1783174252830291200,1.377291259765625,0.25852569937705994,-0.1980835646390915,-0.041126150637865067
1783174252840360200,1.387360107421875,0.13675245642662048,-0.1293875277042389,-0.20793312788009644
1783174252850428400,1.397428466796875,-0.08278283476829529,-0.05926196277141571,-0.20875203609466553
1783174252860497200,1.4074970703125,-0.22794418036937714,-0.12005249410867691,-0.09207030385732651
1783174252870566400,1.41756640625,-0.12829987704753876,-0.293828547000885,0.11077389121055603
1783174252880634400,1.42763427734375,0.1813274770975113,-0.47880345582962036,0.3246304988861084
1783174252890703000,1.437703125,0.5816227197647095,-0.7448356747627258,0.4519549012184143
1783174252900772400,1.4477724609375,0.8608715534210205,-1.1442638635635376,0.4989388585090637
1783174252910840300,1.45784033203125,0.8515903949737549,-1.521356225013733,0.45528727769851685
1783174252920909000,1.467908935546875,0.5905748009681702,-1.7751171588897705,0.1910228580236435
1783174252930977300,1.477977294921875,0.21366268396377563,-1.886935830116272,-0.2731916904449463
1783174252941046300,1.48804638671875,-0.18044333159923553,-1.9026867151260376,-0.6853204369544983
1783174252951115300,1.498115234375,-0.35149896144866943,-1.8504592180252075,-0.8714261054992676
1783174252961183200,1.508183349609375,-0.16574417054653168,-1.8429818153381348,-0.7907156944274902
1783174252971252200,1.518252197265625,0.22519083321094513,-2.0049662590026855,-0.4853443205356598
1783174252981321200,1.5283212890625,0.5454826951026917,-2.031346082687378,-0.04675321280956268
1783174252991389200,1.53838916015625,0.5860479474067688,-1.6368697881698608,0.3459192216396332
1783174253001458200,1.548458251953125,0.396640807390213,-1.107985019683838,0.5063546299934387
1783174253011526400,1.5585263671875,0.1875552535057068,-0.6093904376029968,0.4203081429004669
1783174253021595100,1.56859521484375,0.1007779911160469,-0.13471539318561554,0.14553067088127136
1783174253031664400,1.578664306640625,0.14374995231628418,0.18755479156970978,-0.2220769077539444
1783174253041732400,1.588732421875,0.22554588317871094,0.3338877856731415,-0.5493723750114441
1783174253051801000,1.598801025390625,0.2646919786930084,0.32070857286453247,-0.8259158134460449
1783174253061870300,1.608870361328125,0.25033310055732727,0.23388217389583588,-1.0774013996124268
1783174253071938300,1.618938232421875,0.26794061064720154,0.22533182799816132,-1.331223487854004
1783174253082007300,1.62900732421875,0.2546882927417755,0.33398717641830444,-1.5698716640472412
1783174253092075300,1.6390751953125,0.14216095209121704,0.381767213344574,-1.6511718034744263
1783174253102144300,1.649144287109375,0.1649969518184662,0.4111158549785614,-1.4489771127700806
1783174253112213200,1.659213134765625,0.2030375450849533,0.37544041872024536,-0.9820733070373535
1783174253122281200,1.66928125,0.25519368052482605,0.37025097012519836,-0.38186633586883545
1783174253132350200,1.67935009765625,0.3029630780220032,0.3976687490940094,0.12688425183296204
1783174253142419500,1.68941943359375,0.3346029818058014,0.49057018756866455,0.45823848247528076
1783174253152487200,1.699487060546875,0.312186598777771,0.5346654653549194,0.5818283557891846
1783174253162556200,1.70955615234375,0.2478727400302887,0.5644411444664001,0.5588665008544922
1783174253172624400,1.719624267578125,0.19650807976722717,0.5715752243995667,0.505306601524353
1783174253182692900,1.72969287109375,0.20264795422554016,0.5335724353790283,0.4607662260532379
1783174253192761600,1.73976171875,0.22714316844940186,0.4690594971179962,0.4398881196975708
1783174253202829800,1.749829833984375,0.23690161108970642,0.32867035269737244,0.42963579297065735
1783174253212898800,1.75989892578125,0.2386595606803894,0.25643104314804077,0.39752182364463806
1783174253222967800,1.7699677734375,0.2440144270658493,0.23701612651348114,0.3096888065338135
1783174253233035800,1.780035888671875,0.23522520065307617,0.2643764019012451,0.22287696599960327
1783174253243104800,1.790104736328125,0.2083306610584259,0.32176220417022705,0.21049922704696655
1783174253253173800,1.800173828125,0.19026297330856323,0.42431893944740295,0.24971188604831696
1783174253263241700,1.81024169921875,0.1645684689283371,0.5606684684753418,0.28150343894958496
1783174253273310700,1.820310791015625,0.04989701509475708,0.641260027885437,0.26095154881477356
1783174253283379000,1.83037890625,-0.13309717178344727,0.5232257843017578,0.18347497284412384
1783174253293447700,1.84044775390625,-0.26543018221855164,0.3556610345840454,0.056756436824798584
1783174253303517000,1.850516845703125,-0.29122674465179443,0.21774841845035553,-0.08271028846502304
1783174253313585000,1.8605849609375,-0.24171778559684753,0.21206150949001312,-0.19602327048778534
1783174253323653600,1.870653564453125,-0.17314539849758148,0.35166051983833313,-0.2382681518793106
1783174253333723000,1.880722900390625,-0.12603594362735748,0.5806747674942017,-0.1697724461555481
1783174253343790800,1.890790771484375,-0.08939909189939499,0.8080500364303589,-0.03846045583486557
1783174253353859600,1.900859619140625,-0.06964483112096786,0.9745389223098755,0.13480693101882935
1783174253363927800,1.910927734375,-0.09852497279644012,1.0228102207183838,0.29909515380859375
1783174253373996800,1.920996826171875,-0.1447955220937729,0.9544239044189453,0.37946829199790955
1783174253384065800,1.931065673828125,-0.19374877214431763,0.7942571640014648,0.41047346591949463
1783174253394133800,1.9411337890625,-0.261676162481308,0.6938184499740601,0.4223412871360779
1783174253404202800,1.95120263671875,-0.3242299258708954,0.6897037625312805,0.4975668787956238
1783174253414271700,1.961271728515625,-0.3387390971183777,0.6803789734840393,0.6274955868721008
1783174253424339700,1.971339599609375,-0.2750947177410126,0.6112622618675232,0.7567552328109741
1783174253434408700,1.98140869140625,-0.1396903097629547,0.3493930697441101,0.8199703693389893
1783174253444477000,1.991476806640625,-0.03864124044775963,0.06170981004834175,0.8211159706115723
1783174253454545700,2.001545654296875,0.009192593395709991,-0.06312773376703262,0.7559567093849182
1783174253464615000,2.011614990234375,0.03801779821515083,-0.10565419495105743,0.6600293517112732
1783174253474683000,2.021682861328125,0.0906277447938919,-0.3104110658168793,0.45447590947151184
1783174253484751600,2.031751708984375,0.28757598996162415,-0.6125571131706238,0.38197460770606995
1783174253494820900,2.04182080078125,0.504668653011322,-0.8927078247070312,0.5164275169372559
1783174253504888800,2.051888916015625,0.6473615169525146,-1.315877914428711,0.5916732549667358
1783174253514957600,2.06195751953125,0.624616265296936,-1.6380131244659424,0.49609267711639404
1783174253525026800,2.07202685546875,0.4799729585647583,-1.8120356798171997,0.28171971440315247
1783174253535094800,2.0820947265625,0.2576647996902466,-1.8140783309936523,-0.08111601322889328
1783174253545163800,2.092163818359375,0.011664223857223988,-1.6138460636138916,-0.433473140001297
1783174253555231700,2.102231689453125,-0.18690797686576843,-1.2765803337097168,-0.5440912246704102
1783174253565300700,2.11230078125,-0.31254249811172485,-1.0201215744018555,-0.3677022457122803
1783174253575369700,2.12236962890625,-0.3106401860713959,-0.7502967119216919,-0.1362495720386505
1783174253585437700,2.132437744140625,-0.23169706761837006,-0.43157151341438293,-0.02019329182803631
1783174253595506700,2.142506591796875,-0.07406509667634964,-0.1658812165260315,-0.07367994636297226
1783174253605575700,2.15257568359375,0.09491650015115738,-0.2462368607521057,-0.12334668636322021
1783174253615643600,2.1626435546875,0.1997222900390625,-0.6213297843933105,-0.026293907314538956
1783174253625713000,2.172712890625,0.25605958700180054,-0.8966758847236633,0.11860788613557816
1783174253635780900,2.18278076171875,0.19438551366329193,-0.84200519323349,0.15787678956985474
1783174253645849600,2.192849609375,0.017734045162796974,-0.46952036023139954,0.013639728538691998
1783174253655918800,2.2029189453125,-0.14118875563144684,0.11603713035583496,-0.19932954013347626
1783174253665986800,2.21298681640625,-0.18117526173591614,0.6730330586433411,-0.3656919598579407
1783174253676055600,2.2230556640625,-0.12650269269943237,1.01674222946167,-0.4657280147075653
1783174253686124800,2.233124755859375,-0.05037704482674599,1.0400760173797607,-0.5440509915351868
1783174253696192800,2.24319287109375,0.02940300665795803,0.8902069330215454,-0.6467866897583008
1783174253706261800,2.25326171875,0.05849684402346611,0.6621071696281433,-0.7150421738624573
1783174253716329700,2.263329833984375,0.046744849532842636,0.4479741156101227,-0.7070987224578857
1783174253726398700,2.273398681640625,0.04627043753862381,0.2928142547607422,-0.5876041650772095
1783174253736467700,2.2834677734375,0.047085631638765335,0.29449790716171265,-0.4165347218513489
1783174253746535700,2.29353564453125,0.007125900126993656,0.4416276216506958,-0.22487080097198486
1783174253756604700,2.303604736328125,-0.11002815514802933,0.6712509393692017,-0.008947827853262424
1783174253766674000,2.313673828125,-0.19707433879375458,0.826499879360199,0.13009436428546906
1783174253776741600,2.32374169921875,-0.16119889914989471,0.9466171860694885,0.17150358855724335
1783174253786811000,2.333810791015625,-0.09890175610780716,1.0354729890823364,0.15246811509132385
1783174253796878800,2.34387890625,-0.03909274935722351,0.9769468903541565,0.1055687740445137
1783174253806947600,2.353947509765625,0.030487023293972015,0.8338388204574585,0.017351437360048294
1783174253817016800,2.364016845703125,0.15936590731143951,0.308193176984787,-0.044138289988040924
1783174253827084800,2.374084716796875,0.26970329880714417,-0.2447088062763214,-0.2591347098350525
1783174253837153800,2.38415380859375,0.16123169660568237,-0.5183579325675964,-0.410541296005249
1783174253847222800,2.394222900390625,0.10515841096639633,-0.6823731064796448,-0.5242461562156677
1783174253857290800,2.404290771484375,0.040064629167318344,-0.5540441870689392,-0.5313701033592224
1783174253867360000,2.414360107421875,-0.03765812888741493,-0.4392928183078766,-0.4519413113594055
1783174253877427700,2.424427734375,-0.20124226808547974,-0.41910499334335327,-0.41552606225013733
1783174253887496700,2.43449658203125,-0.3642883598804474,-0.4391959309577942,-0.40684178471565247
1783174253897566000,2.44456591796875,-0.449860543012619,-0.4538731575012207,-0.3717828691005707
1783174253907633700,2.454633544921875,-0.4672401547431946,-0.37413957715034485,-0.33773234486579895
1783174253917702700,2.46470263671875,-0.4429968595504761,-0.20545974373817444,-0.31282272934913635
1783174253927772000,2.47477197265625,-0.41756775975227356,-0.040427036583423615,-0.27229073643684387
1783174253937839900,2.48483984375,-0.3908812701702118,0.1197916567325592,-0.18917721509933472
1783174253947908900,2.494908935546875,-0.3443496823310852,0.23805108666419983,-0.04006098955869675
1783174253957977900,2.504977783203125,-0.3119478225708008,0.39186063408851624,0.10108362138271332
1783174253968045800,2.5150458984375,-0.3440665304660797,0.5663045644760132,0.15625914931297302
1783174253978114800,2.52511474609375,-0.4176350235939026,0.7688206434249878,0.12958146631717682
1783174253988182800,2.535182861328125,-0.48437562584877014,0.9333376288414001,0.07234976440668106
1783174253998251800,2.545251708984375,-0.5585572123527527,0.9699468016624451,0.011025957763195038
1783174254008320800,2.55532080078125,-0.6063929200172424,0.8236950039863586,-0.012059319764375687
1783174254018388700,2.565388671875,-0.5677810311317444,0.6689006090164185,0.10941863805055618
1783174254028458000,2.5754580078125,-0.4231301248073578,0.5246871113777161,0.38126683235168457
1783174254038526700,2.585526611328125,-0.24441391229629517,0.3195190727710724,0.6919309496879578
1783174254048594700,2.5955947265625,-0.011100049130618572,0.15578290820121765,0.9678450226783752
1783174254058664000,2.605663818359375,0.21653231978416443,0.20357626676559448,1.0987493991851807
1783174254068732000,2.61573193359375,0.32760679721832275,0.17894282937049866,0.9804538488388062
1783174254078800600,2.625800537109375,0.34570616483688354,0.029338952153921127,0.6798121929168701
1783174254088870000,2.635869873046875,0.24175311625003815,-0.381753534078598,0.4976043701171875
1783174254098937900,2.645937744140625,0.048529863357543945,-0.8167014718055725,0.5822715759277344
1783174254109006800,2.6560068359375,0.0443057157099247,-0.9782097935676575,0.8892518877983093
1783174254119075800,2.666075927734375,0.6432453393936157,-0.9429812431335449,1.0911086797714233
1783174254129143800,2.676143798828125,1.0819861888885498,-0.6798135638237,1.2085378170013428
1783174254139212800,2.686212890625,0.8877615332603455,-0.9999547600746155,0.9820937514305115
1783174254149281800,2.69628173828125,0.42529839277267456,-1.526767373085022,0.46913981437683105
1783174254159349800,2.706349853515625,0.13553237915039062,-1.6988061666488647,0.007295211777091026
1783174254169418800,2.716418701171875,0.03814920037984848,-1.4801229238510132,-0.282063752412796
1783174254179487000,2.726487060546875,0.06953775137662888,-0.9429311156272888,-0.4140748083591461
1783174254189556000,2.736555908203125,0.1585751175880432,-0.4108511209487915,-0.4166744351387024
1783174254199625000,2.746625,0.20691707730293274,-0.25794917345046997,-0.25539180636405945
1783174254209693000,2.75669287109375,0.25732138752937317,-0.300344854593277,0.04584153741598129
1783174254219762000,2.766761962890625,0.2783063054084778,-0.33080342411994934,0.2662961483001709
1783174254229831000,2.776830810546875,0.2200818955898285,-0.15333819389343262,0.2208860218524933
1783174254239899000,2.78689892578125,0.08086995780467987,0.08875885605812073,-0.07881414145231247
1783174254249968000,2.796968017578125,-0.10350215435028076,0.3183760643005371,-0.46654874086380005
1783174254260036000,2.8070361328125,-0.19914984703063965,0.5498950481414795,-0.7994411587715149
1783174254270104800,2.817104736328125,-0.10034108906984329,0.7105644941329956,-1.0078285932540894
1783174254280174000,2.827174072265625,0.03872332721948624,0.7146311402320862,-1.0081162452697754
1783174254290242000,2.837241943359375,0.12188132107257843,0.6032236218452454,-0.8735694885253906
1783174254300310800,2.847310791015625,0.1650671362876892,0.43969225883483887,-0.7053517699241638
1783174254310380000,2.857380126953125,0.17984230816364288,0.2837420403957367,-0.43507295846939087
1783174254320448000,2.867447998046875,0.23897354304790497,0.28452473878860474,-0.06497533619403839
1783174254330517000,2.87751708984375,0.25192898511886597,0.36064064502716064,0.23374037444591522
1783174254340585000,2.8875849609375,0.12124395370483398,0.4354674816131592,0.35389286279678345
1783174254350654000,2.897654052734375,-0.0485813282430172,0.5255471467971802,0.2896002233028412
1783174254360723000,2.907722900390625,-0.16236914694309235,0.6368513107299805,0.17026741802692413
1783174254370791000,2.917791015625,-0.22203604876995087,0.6421706080436707,-0.024100665003061295
1783174254380860000,2.92785986328125,-0.20008334517478943,0.5965411067008972,-0.16885891556739807
1783174254390929000,2.937928955078125,-0.1327824890613556,0.4861523509025574,-0.21898692846298218
1783174254400996900,2.947996826171875,-0.09444255381822586,0.3390768766403198,-0.18433494865894318
1783174254411066000,2.958066162109375,-0.06781637668609619,0.2738080322742462,-0.05801016464829445
1783174254421134000,2.968134033203125,-0.06716550141572952,0.24252067506313324,0.031053932383656502
1783174254431202800,2.978202880859375,-0.12796907126903534,0.27231237292289734,0.10214132815599442
1783174254441272000,2.98827197265625,-0.2343280017375946,0.32006630301475525,0.11074094474315643
1783174254451340000,2.998340087890625,-0.32035118341445923,0.3638719618320465,0.0705888643860817
1783174254461408800,3.00840869140625,-0.3450903594493866,0.40831905603408813,-0.01868509314954281
1783174254471478000,3.01847802734375,-0.3208671808242798,0.4148680567741394,-0.07117457687854767
1783174254481546000,3.0285458984375,-0.2982758581638336,0.3777686059474945,-0.03539792820811272
1783174254491615000,3.038614990234375,-0.27833205461502075,0.33624494075775146,0.05611131340265274
1783174254501683000,3.048682861328125,-0.28054407238960266,0.30870410799980164,0.16729508340358734
1783174254511752000,3.058751953125,-0.3251769542694092,0.3242952823638916,0.24751126766204834
1783174254521821000,3.068821044921875,-0.34636932611465454,0.39657318592071533,0.2524937689304352
1783174254531889000,3.078888916015625,-0.37965622544288635,0.3747873306274414,0.19818982481956482
1783174254541958000,3.0889580078125,-0.4152296483516693,0.31735679507255554,0.14636629819869995
1783174254552027000,3.09902685546875,-0.3841085731983185,0.3770627975463867,0.03760363906621933
1783174254562094800,3.1090947265625,-0.3029692471027374,0.5583534836769104,-0.08649726957082748
1783174254572164000,3.1191640625,-0.22746537625789642,0.7472419142723083,-0.10995279252529144
1783174254582232800,3.12923291015625,-0.11176194995641708,0.8178407549858093,0.02083158679306507
1783174254592300800,3.13930078125,-0.11665353178977966,0.7190485000610352,0.20223639905452728
1783174254602370000,3.1493701171875,-0.26254841685295105,0.4808362126350403,0.23257672786712646
1783174254612438000,3.15943798828125,-0.29089704155921936,0.33773157000541687,0.11717015504837036
1783174254622506800,3.1695068359375,-0.25536462664604187,0.297300785779953,-0.16754919290542603
1783174254632576000,3.179575927734375,-0.18288245797157288,0.11336060613393784,-0.4887640178203583
1783174254642644000,3.18964404296875,-0.16789472103118896,-0.22739563882350922,-0.7644046545028687
1783174254652712700,3.199712646484375,-0.20438729226589203,-0.9574601650238037,-0.8963738679885864
1783174254662782000,3.209781982421875,-0.3636038601398468,-1.4322443008422852,-1.0230739116668701
1783174254672850000,3.219849853515625,-0.5572221279144287,-1.475760817527771,-1.1787006855010986
1783174254682919000,3.2299189453125,-0.4054794907569885,-1.3908382654190063,-1.3250664472579956
1783174254692987000,3.23998681640625,-0.07118959724903107,-0.934807538986206,-1.3829305171966553
1783174254703056000,3.250055908203125,0.25385162234306335,-0.5080684423446655,-1.1838682889938354
1783174254713124900,3.260124755859375,0.49320197105407715,-0.45834285020828247,-0.7491718530654907
1783174254723192800,3.27019287109375,0.6958068013191223,-0.7095263600349426,-0.31258925795555115
1783174254733261800,3.28026171875,0.8687206506729126,-1.0512654781341553,0.0783471092581749
1783174254743331000,3.2903310546875,0.8531923294067383,-1.2101517915725708,0.4705401659011841
1783174254753398800,3.300398681640625,0.6748760938644409,-1.0319702625274658,0.7568053007125854
1783174254763468000,3.310468017578125,0.5001578330993652,-0.5737721920013428,0.8325046300888062
1783174254773536000,3.320535888671875,0.3828441798686981,0.10361994802951813,0.7776917219161987
1783174254783604700,3.330604736328125,0.30320632457733154,0.6882506608963013,0.6495087146759033
1783174254793674000,3.340674072265625,0.22624905407428741,0.813673198223114,0.5501753687858582
1783174254803742000,3.350741943359375,0.13566163182258606,0.5817174911499023,0.42223283648490906
1783174254813811000,3.36081103515625,0.16341203451156616,0.2710956931114197,0.32047370076179504
1783174254823880000,3.3708798828125,0.3129562437534332,0.020065348595380783,0.24936865270137787
1783174254833948000,3.380947998046875,0.457033634185791,-0.11212509125471115,0.22032849490642548
1783174254844017200,3.39101708984375,0.45993807911872864,-0.12836505472660065,0.10612761974334717
1783174254854086000,3.4010859375,0.35919713973999023,0.03985640034079552,-0.052660003304481506
1783174254864153900,3.41115380859375,0.3183296024799347,0.30973580479621887,-0.19188207387924194
1783174254874223000,3.42122314453125,0.3667070269584656,0.4583759009838104,-0.22306855022907257
1783174254884290800,3.431290771484375,0.40703287720680237,0.30577704310417175,-0.10658429563045502
1783174254894359800,3.44135986328125,0.3758412301540375,-0.005618282128125429,0.07969915866851807
1783174254904429000,3.451428955078125,0.2896312475204468,-0.2422444075345993,0.25045278668403625
1783174254914497000,3.4614970703125,0.20995894074440002,-0.33447563648223877,0.3417716324329376
1783174254924566000,3.47156591796875,0.10290359705686569,-0.252753883600235,0.32836341857910156
1783174254934635000,3.481635009765625,0.07374003529548645,0.005304609891027212,0.24359431862831116
1783174254944703000,3.491702880859375,0.08232580125331879,0.2347700148820877,0.08614930510520935
1783174254954772000,3.50177197265625,-0.02591625228524208,0.27501359581947327,-0.016301967203617096
1783174254964840000,3.51183984375,-0.17461411654949188,0.1734486073255539,-0.0519409216940403
1783174254974909000,3.521908935546875,-0.21348394453525543,0.05994303897023201,-0.04643041267991066
1783174254984978000,3.53197802734375,-0.17664656043052673,-0.031907256692647934,-0.038525618612766266
1783174254995046000,3.5420458984375,-0.15267975628376007,-0.08151239901781082,-0.03938289359211922
1783174255005115100,3.552115234375,-0.14764371514320374,-0.05670825392007828,-0.0497729517519474
1783174255015184000,3.562183837890625,-0.1629243791103363,-0.018498653545975685,-0.11345396190881729
1783174255025251800,3.572251953125,-0.23964712023735046,0.034942734986543655,-0.17267200350761414
1783174255035321000,3.582321044921875,-0.35494348406791687,0.11470598727464676,-0.17524278163909912
1783174255045389000,3.59238916015625,-0.4063432812690735,0.20438793301582336,-0.12561477720737457
1783174255055457800,3.602457763671875,-0.3271447420120239,0.3147750496864319,-0.06784987449645996
1783174255065527000,3.612527099609375,-0.15968967974185944,0.360721230506897,0.012061737477779388
1783174255075595000,3.622594970703125,-0.011549611575901508,0.30257245898246765,0.1494574397802353
1783174255085664000,3.6326640625,0.049038100987672806,0.18027079105377197,0.28462138772010803
1783174255095733000,3.64273291015625,0.02284693904221058,0.1608513593673706,0.3158508539199829
1783174255105801000,3.652801025390625,-0.08216576278209686,0.31658050417900085,0.23829321563243866
1783174255115870000,3.662869873046875,-0.17096829414367676,0.5575871467590332,0.09281519800424576
1783174255125938000,3.67293798828125,-0.2297607809305191,0.7462269067764282,0.012754712253808975
1783174255136007000,3.6830068359375,-0.21758778393268585,0.7838698029518127,0.04757142439484596
1783174255146076000,3.693075927734375,-0.1372537910938263,0.7105129957199097,0.15004026889801025
1783174255156143900,3.703143798828125,-0.06031214818358421,0.5309893488883972,0.24985314905643463
1783174255166213000,3.713213134765625,-0.03933655843138695,0.22746166586875916,0.33754703402519226
1783174255176281900,3.72328173828125,-0.0894676074385643,-0.14333967864513397,0.41615793108940125
1783174255186349800,3.733349853515625,-0.16195593774318695,-0.5505977272987366,0.40709519386291504
1783174255196419000,3.743419189453125,-0.30076029896736145,-0.8907846212387085,0.13606761395931244
1783174255206487800,3.75348779296875,-0.4660691022872925,-0.9480202198028564,-0.40048134326934814
1783174255216555800,3.7635556640625,-0.5640411972999573,-0.6416494250297546,-0.9352918267250061
1783174255226625000,3.773625,-0.5475037693977356,-0.23291786015033722,-1.3730531930923462
1783174255236693000,3.78369287109375,-0.3741956949234009,0.14861634373664856,-1.3511919975280762
1783174255246761700,3.79376171875,-0.14860305190086365,0.2525922656059265,-0.7226347923278809
1783174255256831000,3.8038310546875,0.08141010254621506,-0.1124386340379715,-0.03394215553998947
1783174255266899000,3.81389892578125,0.24788537621498108,-0.6710981726646423,0.2984227240085602
1783174255276968000,3.823968017578125,0.278788685798645,-1.0489362478256226,0.22567404806613922
1783174255287037000,3.834036865234375,0.257833868265152,-1.201540470123291,0.0070503633469343185
1783174255297105000,3.84410498046875,0.2943195104598999,-1.1657021045684814,-0.16872182488441467
1783174255307174000,3.854173828125,0.3130947947502136,-0.9562886953353882,-0.2469537854194641
1783174255317241900,3.864241943359375,0.3483329117298126,-0.7409138679504395,-0.2273073047399521
1783174255327310800,3.874310791015625,0.4114444851875305,-0.5816192626953125,-0.08202734589576721
1783174255337379800,3.8843798828125,0.47451215982437134,-0.46489906311035156,0.09715545922517776
1783174255347447800,3.89444775390625,0.41990482807159424,-0.29387056827545166,0.223269984126091
1783174255357517000,3.90451708984375,0.2473137080669403,-0.16455323994159698,0.17912955582141876
1783174255367585800,3.914585693359375,0.04135389253497124,-0.24149969220161438,-0.04408596083521843
1783174255377653800,3.92465380859375,-0.10188961029052734,-0.45695507526397705,-0.2733379900455475
1783174255387723000,3.934722900390625,-0.16470877826213837,-0.53354811668396,-0.4712875783443451
1783174255397791700,3.944791748046875,-0.15801575779914856,-0.24348369240760803,-0.5969014167785645
1783174255407859700,3.954859619140625,-0.07995264232158661,0.31193238496780396,-0.7178738713264465
1783174255417929000,3.964928955078125,-0.0374746099114418,0.8990744352340698,-0.863808274269104
1783174255427997000,3.974996826171875,-0.06889751553535461,1.354646921157837,-0.835856556892395
1783174255438066000,3.98506591796875,-0.134755939245224,1.4130955934524536,-0.553901731967926
1783174255448135000,3.995135009765625,-0.1914367973804474,1.0764063596725464,-0.13868163526058197
1783174255458203000,4.005202880859375,-0.21425634622573853,0.5526987314224243,0.2582233250141144
1783174255468271900,4.01527197265625,-0.21480467915534973,0.06335859000682831,0.4610520601272583
1783174255478340900,4.0253408203125,-0.2255445420742035,-0.21432387828826904,0.40068763494491577
1783174255488408800,4.035408935546875,-0.2367849349975586,-0.23121178150177002,0.15950509905815125
1783174255498477800,4.045477783203125,-0.20299699902534485,-0.01853291690349579,-0.12600453197956085
1783174255508545800,4.0555458984375,-0.17869378626346588,0.2523832619190216,-0.39099571108818054
1783174255518615000,4.065614990234375,-0.22834275662899017,0.39913296699523926,-0.527560830116272
1783174255528683800,4.075683837890625,-0.3080439567565918,0.351560115814209,-0.5306745767593384
1783174255538751700,4.085751708984375,-0.42221489548683167,0.17380905151367188,-0.4355418086051941
1783174255548821000,4.095821044921875,-0.5383539795875549,0.015036437660455704,-0.2763441801071167
1783174255558890000,4.105889892578125,-0.5593801140785217,-0.07244766503572464,-0.09244120121002197
1783174255568957700,4.115957763671875,-0.49648720026016235,-0.07482640445232391,0.06453882902860641
1783174255579027000,4.12602685546875,-0.35528701543807983,0.04094456136226654,0.13494868576526642
1783174255589095000,4.136094970703125,-0.2120896428823471,0.2092515528202057,0.11199410259723663
1783174255599164000,4.146163818359375,-0.16120414435863495,0.37283989787101746,0.009573708288371563
1783174255609233000,4.15623291015625,-0.18560108542442322,0.40778616070747375,-0.05589238181710243
1783174255619300900,4.16630078125,-0.2741785943508148,0.3100259602069855,0.040343835949897766
1783174255629369900,4.176369873046875,-0.4052117168903351,0.09949187934398651,0.1987294852733612
1783174255639438800,4.18643896484375,-0.5408738255500793,-0.09634432196617126,0.34361329674720764
1783174255649506800,4.1965068359375,-0.5881577134132385,-0.16078509390354156,0.4690614938735962
1783174255659576000,4.206576171875,-0.5533350706100464,-0.05178014189004898,0.5645217895507812
1783174255669644800,4.216644775390625,-0.5183477997779846,0.2036372423171997,0.6704708933830261
1783174255679713000,4.226713134765625,-0.4965672194957733,0.4578738212585449,0.6972637176513672
1783174255689782000,4.236781982421875,-0.484415739774704,0.6098212599754333,0.7033035159111023
1783174255699849700,4.246849609375,-0.5307505130767822,0.5563333630561829,0.6494932174682617
1783174255709919000,4.2569189453125,-0.6053643226623535,0.2289355844259262,0.5340569019317627
1783174255719988000,4.266988037109375,-0.6817740201950073,-0.20723749697208405,0.4962029457092285
1783174255730056000,4.277055908203125,-0.676116406917572,-0.5224721431732178,0.5041612386703491
1783174255740125000,4.287125,-0.5947940349578857,-0.7013812065124512,0.43947556614875793
1783174255750194000,4.29719384765625,-0.5025618076324463,-0.8339320421218872,0.3089772164821625
1783174255760262000,4.307261962890625,-0.4505094587802887,-0.9893510341644287,0.17491605877876282
1783174255770331000,4.317330810546875,-0.45685869455337524,-1.1546086072921753,0.20600900053977966
1783174255780398800,4.32739892578125,-0.4984557628631592,-1.3622125387191772,0.3350766599178314
1783174255790468000,4.337468017578125,-0.47989964485168457,-1.5396009683609009,0.4704400897026062
1783174255800536800,4.347536865234375,-0.3389485478401184,-1.548563003540039,0.5964177846908569
1783174255810604800,4.357604736328125,-0.13566601276397705,-1.5180139541625977,0.5577257871627808
1783174255820674000,4.367674072265625,0.12239804118871689,-1.5011427402496338,0.44807353615760803
1783174255830742800,4.37774267578125,0.3817904591560364,-1.633000373840332,0.2908673882484436
1783174255840811000,4.38781103515625,0.5876131057739258,-1.7838494777679443,0.03462119400501251
1783174255850880000,4.3978798828125,0.570488452911377,-1.6612164974212646,-0.24692179262638092
1783174255860948000,4.407947998046875,0.31591588258743286,-1.2049038410186768,-0.5718911290168762
1783174255871017000,4.418016845703125,0.00546188373118639,-0.6800864338874817,-0.9221612215042114
1783174255881086000,4.4280859375,-0.16763551533222198,-0.3788643479347229,-1.3617488145828247
1783174255891154000,4.43815380859375,-0.2061711847782135,-0.34158435463905334,-1.7033162117004395
1783174255901223000,4.448222900390625,-0.235262930393219,-0.27727556228637695,-1.6763778924942017
1783174255911292000,4.4582919921875,-0.28021204471588135,-0.08080696314573288,-1.312269687652588
1783174255921360100,4.468360107421875,-0.22325630486011505,0.07682757824659348,-0.8660244345664978
1783174255931428900,4.478428955078125,-0.09051183611154556,0.2114197462797165,-0.4665505290031433
1783174255941497900,4.488497802734375,0.045157063752412796,0.3273398280143738,-0.16774140298366547
1783174255951566000,4.498566162109375,0.23055621981620789,0.48606956005096436,0.11088835448026657
1783174255961634800,4.508634765625,0.4528544545173645,0.7646051049232483,0.28241798281669617
1783174255971702800,4.518702880859375,0.6188514232635498,1.130511999130249,0.2690294682979584
1783174255981772000,4.52877197265625,0.6136980056762695,1.515496015548706,0.17396315932273865
1783174255991840800,4.5388408203125,0.4691501259803772,1.6812931299209595,0.09692935645580292
1783174256001908700,4.54890869140625,0.3248375952243805,1.495343565940857,0.02600962668657303
1783174256011978000,4.55897802734375,0.21389056742191315,1.0781813859939575,0.01868380233645439
1783174256022046700,4.569046630859375,0.10320881754159927,0.6557823419570923,0.049066781997680664
1783174256032115000,4.579114990234375,0.007523573003709316,0.43704360723495483,0.07082560658454895
1783174256042184000,4.589183837890625,-0.11419373005628586,0.34183555841445923,0.09850168228149414
1783174256052252000,4.599251953125,-0.2371143251657486,0.25180739164352417,0.16546820104122162
1783174256062321000,4.60932080078125,-0.28859183192253113,0.15661263465881348,0.23594625294208527
1783174256072390000,4.619389892578125,-0.28268012404441833,0.08654167503118515,0.2855079472064972
1783174256082457900,4.629457763671875,-0.2917219400405884,0.08533196151256561,0.3071577250957489
1783174256092526800,4.63952685546875,-0.37238162755966187,0.08068899810314178,0.27170464396476746
1783174256102595800,4.649595947265625,-0.5230244398117065,0.06112724170088768,0.13462136685848236
1783174256112664000,4.6596640625,-0.6942529678344727,0.07027067244052887,-0.07053019106388092
1783174256122732800,4.66973291015625,-0.7960039377212524,0.09249193221330643,-0.255802720785141
1783174256132802000,4.679802001953125,-0.7879204750061035,0.11206270754337311,-0.34697628021240234
1783174256142870000,4.6898701171875,-0.6771066188812256,0.11423993110656738,-0.311574786901474
1783174256152938800,4.699938720703125,-0.5446308851242065,0.04994536191225052,-0.21603867411613464
1783174256163006700,4.7100068359375,-0.438802570104599,-0.017948191612958908,-0.124751016497612
1783174256173076000,4.720075927734375,-0.409554660320282,-0.06528108566999435,-0.06534414738416672
1783174256183145500,4.7301455078125,-0.48693615198135376,-0.06526830047369003,-0.03254668787121773
1783174256193213400,4.74021337890625,-0.622762143611908,-0.012922532856464386,-0.023817114531993866
1783174256203282700,4.75028271484375,-0.7442329525947571,0.06446786224842072,0.004604141227900982
1783174256213351400,4.760351318359375,-0.7537338733673096,0.1451600193977356,0.10096634179353714
1783174256223419400,4.77041943359375,-0.671122133731842,0.1458410918712616,0.21461278200149536
1783174256233488600,4.780488525390625,-0.5824354290962219,0.0984397605061531,0.3050215244293213
1783174256243556600,4.790556640625,-0.5058426260948181,0.09084491431713104,0.3423621952533722
1783174256253625600,4.80062548828125,-0.4818342924118042,0.17453289031982422,0.2860073149204254
1783174256263694600,4.810694580078125,-0.5097683668136597,0.3055645823478699,0.21101267635822296
1783174256273762600,4.820762451171875,-0.5343365669250488,0.4001193046569824,0.17135155200958252
1783174256283831600,4.83083154296875,-0.5133475065231323,0.3244834542274475,0.1818423867225647
1783174256293900500,4.840900634765625,-0.4564703702926636,0.15855252742767334,0.2468557357788086
1783174256303968500,4.850968505859375,-0.38736188411712646,-0.010629831813275814,0.3173927664756775
1783174256314037500,4.86103759765625,-0.3149271011352539,-0.15688344836235046,0.3622739315032959
1783174256324105500,4.87110546875,-0.2062528431415558,-0.3664647936820984,0.3119894862174988
1783174256334174700,4.8811748046875,-0.10617072135210037,-0.6777257323265076,0.06807723641395569
1783174256344243500,4.891243408203125,-0.1095115914940834,-1.1151403188705444,-0.30264878273010254
1783174256354311400,4.9013115234375,-0.15327905118465424,-1.513283371925354,-0.708769679069519
1783174256364380700,4.911380615234375,-0.13505153357982635,-1.6217670440673828,-1.0937023162841797
1783174256374449400,4.921449462890625,-0.0328894779086113,-1.4131325483322144,-1.3553162813186646
1783174256384517400,4.931517333984375,0.05194789916276932,-1.1530473232269287,-1.4593441486358643
1783174256394586600,4.941586669921875,-0.03968587890267372,-1.2151708602905273,-1.6593080759048462
1783174256404655400,4.9516552734375,-0.2790311276912689,-1.3033488988876343,-1.9196679592132568
1783174256414723600,4.9617236328125,-0.4882062077522278,-1.2859501838684082,-2.0441033840179443
1783174256424792600,4.97179248046875,-0.5696862936019897,-1.2523255348205566,-1.9218825101852417
1783174256434860500,4.981860595703125,-0.44585272669792175,-1.1654138565063477,-1.5526666641235352
1783174256444929500,4.991929443359375,-0.18770179152488708,-1.003613829612732,-1.0973255634307861
1783174256454998500,5.00199853515625,-0.026554713025689125,-0.6975905299186707,-0.6078310012817383
1783174256465066500,5.01206640625,0.04350551590323448,-0.13270869851112366,-0.10667457431554794
1783174256475135500,5.022135498046875,0.0995115265250206,0.43532225489616394,0.3438872694969177
1783174256485204500,5.03220458984375,0.20855313539505005,0.8183484077453613,0.8124814033508301
1783174256495272700,5.042272705078125,0.3433825969696045,0.8394970893859863,1.2521522045135498
1783174256505341400,5.052341552734375,0.43991339206695557,0.5801416635513306,1.5152685642242432
1783174256515410400,5.062410400390625,0.4145486354827881,0.19165971875190735,1.5562660694122314
1783174256525478700,5.072478759765625,0.30475202202796936,-0.13268554210662842,1.3756986856460571
1783174256535547400,5.08254736328125,0.1705593317747116,-0.16212040185928345,1.120603084564209
1783174256545615400,5.092615478515625,0.07897639274597168,0.15352767705917358,0.8285967707633972
1783174256555684600,5.1026845703125,0.0262636449187994,0.6308260560035706,0.5680421590805054
1783174256565753300,5.11275341796875,-0.0011279935715720057,0.9960204362869263,0.3806777000427246
1783174256575821600,5.122821533203125,0.005904349498450756,1.1353086233139038,0.3404197692871094
1783174256585890600,5.132890625,0.010757950134575367,1.097678542137146,0.3909909427165985
1783174256595959600,5.14295947265625,-0.037916913628578186,0.9262318015098572,0.4849507212638855
1783174256606027500,5.153027587890625,-0.14218629896640778,0.6621398329734802,0.5994836688041687
1783174256616096500,5.163096435546875,-0.27866798639297485,0.3886995017528534,0.6404744982719421
1783174256626164500,5.17316455078125,-0.4423556625843048,0.09237335622310638,0.5797834396362305
1783174256636233500,5.1832333984375,-0.5510048866271973,-0.16676394641399384,0.4468173384666443
1783174256646302500,5.193302490234375,-0.6281980872154236,-0.24875669181346893,0.2529052495956421
1783174256656370700,5.20337060546875,-0.6667166948318481,-0.16573745012283325,0.06236355006694794
1783174256666439400,5.213439453125,-0.665330171585083,0.03573991358280182,-0.09135910123586655
1783174256676508400,5.22350830078125,-0.6510566473007202,0.25075873732566833,-0.19494248926639557
1783174256686576600,5.23357666015625,-0.6247748732566833,0.35228827595710754,-0.23876935243606567
1783174256696644600,5.24364453125,-0.6497026085853577,0.2849087119102478,-0.212630957365036
1783174256706712600,5.253712646484375,-0.7478610873222351,0.12367136776447296,-0.1701919585466385
1783174256716781600,5.263781494140625,-0.8353344798088074,0.029857251793146133,-0.15069176256656647
1783174256726850600,5.2738505859375,-0.8913407325744629,0.013453034684062004,-0.18104307353496552
1783174256736918500,5.28391845703125,-0.8667792081832886,0.0031844181939959526,-0.22388482093811035
1783174256746987500,5.293987548828125,-0.7643290162086487,-0.010331978090107441,-0.1805335432291031
1783174256757056500,5.304056396484375,-0.6387641429901123,0.023025978356599808,-0.06680965423583984
1783174256767124500,5.31412451171875,-0.5590139627456665,0.1334482580423355,0.05926196277141571
1783174256777193500,5.324193359375,-0.563681423664093,0.32462888956069946,0.12149178236722946
1783174256787261400,5.334261474609375,-0.619415283203125,0.5299090147018433,0.09552416205406189
1783174256797330700,5.34433056640625,-0.6965758204460144,0.6136409044265747,0.025406597182154655
1783174256807399400,5.3543994140625,-0.7459984421730042,0.538089394569397,0.02343548834323883
1783174256817467400,5.36446728515625,-0.7144343852996826,0.36610856652259827,0.11050407588481903
1783174256827536600,5.37453662109375,-0.6367671489715576,0.0977720096707344,0.25275489687919617
1783174256837605400,5.38460546875,-0.48087185621261597,-0.11798211932182312,0.4608399271965027
1783174256847673300,5.39467333984375,-0.3091021478176117,-0.3118067681789398,0.6308754682540894
1783174256857742600,5.40474267578125,-0.21670298278331757,-0.6722544431686401,0.6466341614723206
1783174256867811300,5.414811279296875,-0.21392019093036652,-1.1953884363174438,0.38215112686157227
1783174256877879600,5.424879638671875,-0.2695738673210144,-1.7454584836959839,-0.022909261286258698
1783174256887948500,5.434948486328125,-0.3158610761165619,-2.128082036972046,-0.37082114815711975
1783174256898016500,5.4450166015625,-0.20428606867790222,-2.018437147140503,-0.5549286603927612
1783174256908085500,5.45508544921875,-0.09781015664339066,-1.4260923862457275,-0.5119460225105286
1783174256918154500,5.465154541015625,-0.06412462890148163,-0.679668664932251,-0.295577734708786
1783174256928222500,5.475222412109375,-0.15122641623020172,0.04289586469531059,-0.09327694028615952
1783174256938291500,5.48529150390625,-0.2981831133365631,0.5795894265174866,-0.051287941634655
1783174256948360400,5.4953603515625,-0.3747611343860626,0.7449150681495667,-0.04937558248639107
1783174256958428700,5.5054287109375,-0.3720950484275818,0.48175081610679626,-0.08365419507026672
1783174256968497400,5.515497314453125,-0.3399655222892761,0.07101010531187057,-0.06630034744739532
1783174256978565400,5.5255654296875,-0.2833096981048584,-0.21055926382541656,0.06958425045013428
1783174256988634600,5.535634521484375,-0.24710339307785034,-0.29622504115104675,0.19566775858402252
1783174256998703400,5.545703369140625,-0.21891383826732635,-0.2237154245376587,0.154706209897995
1783174257008771300,5.555771240234375,-0.19612278044223785,-0.030136000365018845,-0.02223498374223709
1783174257018840600,5.565840576171875,-0.20028504729270935,0.2619054317474365,-0.20053867995738983
1783174257028909600,5.57590966796875,-0.2532879710197449,0.5145201086997986,-0.2912184000015259
1783174257038977500,5.5859775390625,-0.2576630115509033,0.6139913201332092,-0.2069312334060669
1783174257049046500,5.596046630859375,-0.15675100684165955,0.5085426568984985,0.024198846891522408
1783174257059114500,5.606114501953125,0.010547701269388199,0.24629081785678864,0.3734564483165741
1783174257069183500,5.61618359375,0.18341539800167084,0.011942006647586823,0.7224615812301636
1783174257079254500,5.626254638671875,0.2800058424472809,-0.051950689405202866,0.9701586961746216
1783174257089322500,5.636322509765625,0.2695799469947815,0.06404803693294525,1.028802514076233
1783174257099391500,5.6463916015625,0.18881423771381378,0.33820849657058716,0.9160059094429016
1783174257109459700,5.656459716796875,0.10215497761964798,0.5996922850608826,0.7036606073379517
1783174257119528400,5.666528564453125,0.032755397260189056,0.6836111545562744,0.4573855996131897
1783174257129597400,5.676597412109375,-0.018307946622371674,0.6045407056808472,0.3311604857444763
1783174257139665700,5.686665771484375,-0.04229477420449257,0.40225815773010254,0.3104586899280548
1783174257149734400,5.696734375,-0.06075718626379967,0.13913139700889587,0.3222210705280304
1783174257159803600,5.7068037109375,-0.11335248500108719,-0.1529417335987091,0.36787909269332886
1783174257169871600,5.71687158203125,-0.22751474380493164,-0.4037257432937622,0.34087935090065
1783174257179939800,5.72693994140625,-0.37513935565948486,-0.46214166283607483,0.20478889346122742
1783174257190008600,5.737008544921875,-0.5170537233352661,-0.309421569108963,-0.0464162640273571
1783174257200076500,5.74707666015625,-0.6350765228271484,-0.06893201917409897,-0.30646833777427673
1783174257210145800,5.757145751953125,-0.7056559324264526,0.12043888121843338,-0.4517093598842621
1783174257220213800,5.7672138671875,-0.7354295253753662,0.23178431391716003,-0.5308206677436829
1783174257230282500,5.777282470703125,-0.7702299952507019,0.2959769368171692,-0.5518186092376709
1783174257240351700,5.787351806640625,-0.7925965189933777,0.25229230523109436,-0.5695898532867432
1783174257250419700,5.797419677734375,-0.7722886800765991,0.1427229642868042,-0.5572605729103088
1783174257260488700,5.80748876953125,-0.7411219477653503,0.02869253233075142,-0.5179538726806641
1783174257270557700,5.8175576171875,-0.7120184302330017,-0.02098371833562851,-0.42948901653289795
1783174257280625700,5.827625732421875,-0.6768276691436768,-0.04034516587853432,-0.31835290789604187
1783174257290694700,5.837694580078125,-0.6371651291847229,-0.01131631899625063,-0.2181897610425949
1783174257300762600,5.8477626953125,-0.5746449828147888,0.11039759963750839,-0.14680957794189453
1783174257310831600,5.85783154296875,-0.520872175693512,0.3253655433654785,-0.15684039890766144
1783174257320900600,5.867900634765625,-0.5331538915634155,0.5061129331588745,-0.17860907316207886
1783174257330968600,5.877968505859375,-0.5688642859458923,0.5573755502700806,-0.17395401000976562
1783174257341037800,5.888037841796875,-0.5549119710922241,0.5591814517974854,-0.12582802772521973
1783174257351106600,5.8981064453125,-0.5696934461593628,0.507337749004364,-0.024236192926764488
1783174257361174500,5.908174560546875,-0.57110595703125,0.4417182505130768,0.05386366695165634
1783174257371243800,5.918243896484375,-0.5085291266441345,0.4281023144721985,0.11736328154802322
1783174257381312500,5.9283125,-0.41943359375,0.42104944586753845,0.15093030035495758
1783174257391380500,5.93838037109375,-0.3341715931892395,0.4505726993083954,0.180756077170372
1783174257401449700,5.94844970703125,-0.24622520804405212,0.48102542757987976,0.27162685990333557
1783174257411517700,5.958517578125,-0.20813342928886414,0.3249245882034302,0.3392404019832611
1783174257421586700,5.968586669921875,-0.30107083916664124,-0.09995400160551071,0.2825446128845215
1783174257431655700,5.97865576171875,-0.43467894196510315,-0.6764031648635864,0.11064708232879639
1783174257441723600,5.9887236328125,-0.4268606901168823,-1.2280689477920532,-0.2186432033777237
1783174257451792600,5.998792724609375,-0.24114520847797394,-1.6864876747131348,-0.4617476165294647
1783174257461861600,6.008861572265625,0.11074092984199524,-2.0024771690368652,-0.31653183698654175
1783174257471929600,6.0189296875,0.4777010381221771,-2.2624154090881348,0.1039632186293602
1783174257481998600,6.02899853515625,0.6954941153526306,-2.423640489578247,0.37819769978523254
1783174257492067600,6.039067626953125,0.7235817313194275,-2.2871077060699463,0.35937461256980896
1783174257502135800,6.0491357421875,0.5355098247528076,-1.7367445230484009,0.13739614188671112
1783174257512204500,6.05920458984375,0.2646404206752777,-0.9379914999008179,-0.12486311793327332
1783174257522272500,6.0692724609375,0.059343449771404266,-0.14820072054862976,-0.4420868456363678
1783174257532341800,6.079341796875,-0.09964274615049362,0.44034668803215027,-0.7869775891304016
1783174257542410500,6.089410400390625,-0.1943570077419281,0.8227729201316833,-1.0455145835876465
1783174257552478500,6.099478515625,-0.23809932172298431,0.9295572638511658,-0.9885188341140747
1783174257562547700,6.109547607421875,-0.0863737016916275,0.8621659874916077,-0.4546669125556946
1783174257572616700,6.11961669921875,0.20392778515815735,0.6949284076690674,0.25008952617645264
1783174257582684700,6.1296845703125,0.3984184265136719,0.4902287721633911,0.8038504719734192
1783174257592753700,6.139753662109375,0.4321792423725128,0.3805530071258545,1.0189954042434692
1783174257602822700,6.14982275390625,0.35856786370277405,0.5518491268157959,0.8951453566551208
1783174257612890600,6.159890625,0.2875032424926758,0.9696049094200134,0.5869183540344238
1783174257622959600,6.169959716796875,0.27161774039268494,1.3260661363601685,0.26625004410743713
1783174257633027600,6.180027587890625,0.3326041102409363,1.4834198951721191,0.06821687519550323
1783174257643096600,6.1900966796875,0.4229840636253357,1.3867135047912598,0.05820179358124733
1783174257653165600,6.20016552734375,0.5276234745979309,1.207596778869629,0.21321044862270355
1783174257663233800,6.21023388671875,0.5653322339057922,0.9778608083724976,0.4103032648563385
1783174257673302500,6.220302490234375,0.4953315258026123,0.6560748219490051,0.6450178027153015
1783174257683371500,6.23037158203125,0.3061957061290741,0.3136599361896515,0.8161991238594055
1783174257693439700,6.240439697265625,0.02642141282558441,0.026118699461221695,0.8435394167900085
1783174257703508700,6.2505087890625,-0.284843772649765,-0.19067886471748352,0.7092511057853699
1783174257713577700,6.26057763671875,-0.5309139490127563,-0.31147363781929016,0.44287601113319397
1783174257723645700,6.270645751953125,-0.6280924081802368,-0.22582532465457916,0.15793295204639435
1783174257733714700,6.280714599609375,-0.6085833311080933,-0.061573535203933716,-0.0585925355553627
1783174257743782700,6.29078271484375,-0.5698828101158142,0.028569934889674187,-0.1618507355451584
1783174257753851600,6.3008515625,-0.5399519205093384,0.015832308679819107,-0.17662480473518372
1783174257763920600,6.310920654296875,-0.5751746296882629,-0.085453562438488,-0.1675167828798294
1783174257773988600,6.320988525390625,-0.6765581965446472,-0.23002666234970093,-0.16076840460300446
1783174257784057600,6.3310576171875,-0.7780690789222717,-0.3460068106651306,-0.13459965586662292
1783174257794126800,6.341126953125,-0.8628605008125305,-0.35632142424583435,-0.151170015335083
1783174257804194800,6.35119482421875,-0.9093579649925232,-0.27551552653312683,-0.22723495960235596
1783174257814263600,6.361263671875,-0.8773450255393982,-0.15976881980895996,-0.21539784967899323
1783174257824332800,6.371332763671875,-0.7647867798805237,-0.06795420497655869,-0.11229464411735535
1783174257834400800,6.38140087890625,-0.668759286403656,-0.027342703193426132,-0.0037652733735740185
1783174257844469500,6.391469482421875,-0.6227383017539978,-0.0016282852739095688,0.06144542247056961
1783174257854537700,6.401537841796875,-0.609712541103363,0.03889772295951843,0.09474226087331772
1783174257864606700,6.411606689453125,-0.6229074597358704,0.03941437602043152,0.06912744045257568
1783174257874675700,6.42167578125,-0.6656558513641357,-0.031961459666490555,-0.0020053652115166187
1783174257884743700,6.43174365234375,-0.6806440949440002,-0.18057143688201904,-0.06369216740131378
1783174257894812700,6.441812744140625,-0.6383269429206848,-0.2971062958240509,-0.05819984897971153
1783174257904881700,6.451881591796875,-0.5365249514579773,-0.20365595817565918,-0.013841439969837666
1783174257914949600,6.46194970703125,-0.3873736560344696,0.06626474857330322,-0.030642427504062653
1783174257925018600,6.4720185546875,-0.26695191860198975,0.3145613670349121,-0.08502630889415741
1783174257935087600,6.482087646484375,-0.2107093632221222,0.40677496790885925,-0.17701755464076996
1783174257945155600,6.492155517578125,-0.19167868793010712,0.3152024447917938,-0.2780003845691681
1783174257955224800,6.502224853515625,-0.20704761147499084,-0.017683299258351326,-0.3748171329498291
1783174257965292800,6.512292724609375,-0.23206721246242523,-0.5583673119544983,-0.5265907049179077
1783174257975361500,6.522361572265625,-0.26169145107269287,-1.0925191640853882,-0.7685394287109375
1783174257985430800,6.5324306640625,-0.2934531271457672,-1.4145561456680298,-1.048976182937622
1783174257995498800,6.542498779296875,-0.24831731617450714,-1.2838077545166016,-0.9789004921913147
1783174258005567500,6.5525673828125,-0.04142219200730324,-0.9115966558456421,-0.48160335421562195
1783174258015636700,6.56263671875,0.24193614721298218,-0.8124574422836304,0.12162899225950241
1783174258025704700,6.57270458984375,0.3635360896587372,-1.140210509300232,0.38162142038345337
1783174258035773700,6.582773681640625,0.2428877353668213,-1.5867972373962402,0.03340805694460869
1783174258045842700,6.5928427734375,-0.06538647413253784,-1.6992080211639404,-0.5593002438545227
1783174258055910700,6.60291064453125,-0.29143500328063965,-1.1199419498443604,-0.9246340990066528
1783174258065979600,6.612979736328125,-0.21821299195289612,-0.15401685237884521,-0.818898618221283
1783174258076047600,6.623047607421875,0.10199827700853348,0.38863691687583923,-0.3127647638320923
1783174258086116600,6.63311669921875,0.3776857852935791,0.2369118481874466,0.23857563734054565
1783174258096185600,6.643185546875,0.474088191986084,-0.2929511070251465,0.6299800872802734
1783174258106253600,6.653253662109375,0.2774654030799866,-0.8019727468490601,0.7211206555366516
1783174258116322800,6.66332275390625,-0.06143046170473099,-0.968634307384491,0.5448254346847534
1783174258126391600,6.6733916015625,-0.3812936842441559,-0.7436153292655945,0.18794876337051392
1783174258136459500,6.68345947265625,-0.5676692724227905,-0.3379858732223511,-0.2820887267589569
1783174258146528800,6.69352880859375,-0.556066632270813,0.0205586776137352,-0.6225048899650574
1783174258156597500,6.703597412109375,-0.3508724570274353,0.3155667781829834,-0.7044956684112549
1783174258166665500,6.71366552734375,-0.06963121145963669,0.5694044232368469,-0.5186142325401306
1783174258176734700,6.723734619140625,0.1592971235513687,0.7740839719772339,-0.1826661229133606
1783174258186803500,6.733803466796875,0.2249768078327179,0.9228809475898743,0.11125817894935608
1783174258196872400,6.74387255859375,0.08851087838411331,0.9085991978645325,0.24871490895748138
1783174258206941400,6.75394140625,-0.0516909621655941,0.7863470315933228,0.3012292683124542
1783174258217009400,6.764009521484375,-0.0733572319149971,0.6038244366645813,0.35164207220077515
1783174258227078400,6.774078369140625,0.041924357414245605,0.4164119064807892,0.46128731966018677
1783174258237147400,6.7841474609375,0.19523924589157104,0.35305163264274597,0.6424767374992371
1783174258247215600,6.794215576171875,0.26015833020210266,0.3874061405658722,0.8015702366828918
1783174258257284400,6.804284423828125,0.28212565183639526,0.47443887591362,0.8867514729499817
1783174258267353300,6.814353271484375,0.2695126533508301,0.5229728817939758,0.8395522832870483
1783174258277421600,6.824421630859375,0.18484075367450714,0.46813684701919556,0.6247011423110962
1783174258287490300,6.834490234375,0.061972349882125854,0.35710835456848145,0.31783977150917053
1783174258297558300,6.844558349609375,-0.03815196081995964,0.2509538531303406,0.06419484317302704
1783174258307627500,6.85462744140625,-0.09635880589485168,0.14088565111160278,-0.13960888981819153
1783174258317696300,6.8646962890625,-0.14038203656673431,0.04104897752404213,-0.24761144816875458
1783174258327764500,6.874764404296875,-0.12417030334472656,0.0018416522070765495,-0.3034249246120453
1783174258337833500,6.88483349609375,-0.08094225823879242,-0.021331287920475006,-0.38246381282806396
1783174258347902200,6.894902099609375,-0.07581407576799393,-0.05403011292219162,-0.47899487614631653
1783174258357970400,6.904970458984375,-0.08660832792520523,-0.06484793871641159,-0.5109032988548279
1783174258368039400,6.915039306640625,-0.10137102752923965,-0.026236627250909805,-0.4593639373779297
1783174258378108400,6.9251083984375,-0.10945601761341095,-0.0008454206399619579,-0.38745516538619995
1783174258388176400,6.93517626953125,-0.07852153480052948,-0.005249223206192255,-0.292601615190506
1783174258398245400,6.945245361328125,-0.029266953468322754,-0.034404754638671875,-0.2228230983018875
1783174258408313600,6.955313720703125,0.011129205115139484,-0.050897181034088135,-0.16603411734104156
1783174258418382300,6.96538232421875,0.029993386939167976,0.01741151511669159,-0.13402311503887177
1783174258428451300,6.975451416015625,0.002769754733890295,0.18709056079387665,-0.13840189576148987
1783174258438519600,6.98551953125,-0.04558581858873367,0.3716123104095459,-0.16010527312755585
1783174258448588300,6.99558837890625,-0.07739461213350296,0.4711575508117676,-0.1831381618976593
1783174258458657500,7.005657470703125,-0.08084756880998611,0.47545677423477173,-0.14412663877010345
1783174258468725500,7.0157255859375,-0.05357227101922035,0.3694765269756317,-0.0558021105825901
1783174258478794200,7.025794189453125,-0.011049682274460793,0.19665062427520752,0.08842863142490387
1783174258488863500,7.035863525390625,0.032566241919994354,0.057667165994644165,0.2174404114484787
1783174258498931500,7.045931396484375,0.11513600498437881,-0.024596774950623512,0.27676793932914734
1783174258509000200,7.056000244140625,0.19247233867645264,-0.043748632073402405,0.21882738173007965
1783174258519068400,7.066068359375,0.15845255553722382,-0.023614227771759033,0.07314319163560867
1783174258529137400,7.076137451171875,0.04514357075095177,-0.032603729516267776,-0.08518067002296448
1783174258539206400,7.086206298828125,-0.0708833709359169,-0.21507494151592255,-0.18582113087177277
1783174258549274400,7.0962744140625,-0.1281469315290451,-0.5251315832138062,-0.08850762993097305
1783174258559343400,7.10634326171875,-0.09539961069822311,-0.867464005947113,0.26582589745521545
1783174258569412400,7.116412353515625,0.06322971731424332,-1.187642216682434,0.43944165110588074
1783174258579480300,7.126480224609375,0.11043749004602432,-1.4459542036056519,0.031873077154159546
1783174258589549300,7.13654931640625,-0.08741860091686249,-1.4209034442901611,-0.7102071642875671
1783174258599618600,7.14661865234375,-0.3212902545928955,-1.0538437366485596,-1.3937809467315674
1783174258609686300,7.156686279296875,-0.2919992208480835,-0.3807697296142578,-1.5708529949188232
1783174258619755500,7.166755615234375,0.005491635296493769,0.26858142018318176,-1.0671814680099487
1783174258629823500,7.176823486328125,0.2878255844116211,0.5530735850334167,-0.21834474802017212
1783174258639892200,7.186892333984375,0.4995226263999939,0.4613494873046875,0.5260604619979858
1783174258649961500,7.19696142578125,0.6392384171485901,0.3026415705680847,0.8918161392211914
1783174258660029400,7.207029541015625,0.748924970626831,0.2766287624835968,0.9028165340423584
1783174258670098400,7.217098388671875,0.8009485006332397,0.32581546902656555,0.7641342878341675
1783174258680167400,7.22716748046875,0.7792882919311523,0.3160422146320343,0.6143603920936584
1783174258690235400,7.2372353515625,0.7273659706115723,0.20261390507221222,0.4694437086582184
1783174258700304400,7.247304443359375,0.6752347350120544,0.23934687674045563,0.3367186486721039
1783174258710373400,7.257373291015625,0.6294922828674316,0.43450838327407837,0.28409644961357117
1783174258720441300,7.26744140625,0.6235113739967346,0.6961019039154053,0.35374462604522705
1783174258730510600,7.277510498046875,0.6562445759773254,0.807229220867157,0.5364105701446533
1783174258740578300,7.287578369140625,0.6340687870979309,0.6984443068504333,0.7339661121368408
1783174258750647300,7.297647216796875,0.5455056428909302,0.5295532941818237,0.81487637758255
1783174258760716500,7.307716552734375,0.4579026699066162,0.41237667202949524,0.7141777276992798
1783174258770784300,7.3177841796875,0.38870176672935486,0.38112393021583557,0.5067448616027832
1783174258780853500,7.327853515625,0.2736787497997284,0.4149934947490692,0.27316755056381226
1783174258790922500,7.337922607421875,0.12337542325258255,0.4606056213378906,0.08599913120269775
1783174258800990500,7.347990478515625,0.01707763597369194,0.44732165336608887,0.0708506777882576
1783174258811059500,7.3580595703125,-0.008684186264872551,0.30739066004753113,0.19240987300872803
1783174258821128400,7.36812841796875,0.013078639283776283,0.08692885935306549,0.3657461702823639
1783174258831196400,7.378196533203125,0.021456144750118256,-0.11055305600166321,0.4487619698047638
1783174258841265400,7.388265380859375,-0.019976705312728882,-0.2467050850391388,0.4356844425201416
1783174258851333400,7.39833349609375,-0.10614115744829178,-0.3219737410545349,0.29220157861709595
1783174258861402600,7.408402587890625,-0.20397041738033295,-0.33097460865974426,0.09062687307596207
1783174258871471400,7.418471435546875,-0.2833544611930847,-0.2712300419807434,-0.06425032019615173
1783174258881539300,7.428539306640625,-0.2978493869304657,-0.13143926858901978,-0.16737231612205505
1783174258891608600,7.438608642578125,-0.25433358550071716,-0.033431489020586014,-0.23046553134918213
1783174258901677300,7.44867724609375,-0.16624821722507477,-0.022886421531438828,-0.23033110797405243
1783174258911745300,7.458745361328125,-0.07898974418640137,-0.036400098353624344,-0.1928420513868332
1783174258921814500,7.468814453125,-0.06686980277299881,-0.036148808896541595,-0.1426818072795868
1783174258931883300,7.47888330078125,-0.11757958680391312,0.014556978829205036,-0.11674342304468155
1783174258941951500,7.488951416015625,-0.22420836985111237,0.09341484308242798,-0.1439467966556549
1783174258952020500,7.4990205078125,-0.3348448574542999,0.15022218227386475,-0.1911981850862503
1783174258962088400,7.50908837890625,-0.39236214756965637,0.18776975572109222,-0.2154502272605896
1783174258972157400,7.519157470703125,-0.3920862674713135,0.27375683188438416,-0.14408017694950104
1783174258982226400,7.529226318359375,-0.30133914947509766,0.35745787620544434,-0.006956113502383232
1783174258992294400,7.53929443359375,-0.17710615694522858,0.39305076003074646,0.11985749006271362
1783174259002363400,7.54936328125,-0.0686464011669159,0.40958285331726074,0.1953977644443512
1783174259012432400,7.559432373046875,-0.040799591690301895,0.374935120344162,0.1717691272497177
1783174259022500600,7.56950048828125,-0.07758516818284988,0.3079979121685028,0.1238459125161171
1783174259032569300,7.5795693359375,-0.12487092614173889,0.19406308233737946,0.06063871830701828
1783174259042638300,7.589638427734375,-0.1242658793926239,0.07953555881977081,-0.0596453882753849
1783174259052706600,7.59970654296875,-0.05173841118812561,-0.006766573525965214,-0.16654573380947113
1783174259062775300,7.609775390625,0.051206763833761215,-0.13230545818805695,-0.22606691718101501
1783174259072843300,7.61984326171875,0.14959990978240967,-0.3040841221809387,-0.29649606347084045
1783174259082912500,7.62991259765625,0.21902039647102356,-0.5514976978302002,-0.3550148904323578
1783174259092981200,7.639981201171875,0.2128881961107254,-0.8015788793563843,-0.45990055799484253
1783174259103049500,7.650049560546875,0.11453250795602798,-1.004431128501892,-0.6916126608848572
1783174259113118500,7.660118408203125,0.009564017876982689,-1.1248966455459595,-1.0919172763824463
1783174259123187200,7.670187255859375,-0.10073322057723999,-1.1156542301177979,-1.7042466402053833
1783174259133255400,7.68025537109375,-0.23960456252098083,-0.8397365808486938,-2.3255748748779297
1783174259143324400,7.690324462890625,-0.3403490483760834,-0.24477781355381012,-2.657036542892456
1783174259153393400,7.700393310546875,-0.29279643297195435,0.362272173166275,-2.4101145267486572
1783174259163461400,7.71046142578125,-0.0489523783326149,0.6694653034210205,-1.5635783672332764
1783174259173530400,7.7205302734375,0.1716385930776596,0.5506839752197266,-0.4934549331665039
1783174259183598000,7.73059814453125,0.2794000208377838,0.09698117524385452,0.4124346375465393
1783174259193666800,7.740666748046875,0.35207316279411316,-0.3424403965473175,0.9611760377883911
1783174259203736000,7.750736083984375,0.5378528833389282,-0.45647767186164856,1.2590653896331787
1783174259213804000,7.760803955078125,0.8199844360351562,-0.3015488088130951,1.4248831272125244
1783174259223873000,7.770873046875,1.0271275043487549,-0.1473039835691452,1.5210312604904175
1783174259233942000,7.78094189453125,1.053100347518921,-0.16770964860916138,1.4283969402313232
1783174259244010000,7.791010009765625,0.8440172076225281,-0.25502756237983704,1.1113966703414917
1783174259254079000,7.801078857421875,0.5144132375717163,-0.1076088398694992,0.6253657341003418
1783174259264148000,7.81114794921875,0.18823806941509247,0.2329891324043274,0.15870173275470734
1783174259274216000,7.8212158203125,-0.02854376845061779,0.4897106885910034,-0.12552067637443542
1783174259284285200,7.83128515625,-0.08665727823972702,0.5479031205177307,-0.1726456731557846
1783174259294353000,7.841352783203125,-0.06620712578296661,0.47344887256622314,-0.04166875034570694
1783174259304422100,7.851422119140625,-0.02963169850409031,0.3655126690864563,0.1169939935207367
1783174259314491100,7.8614912109375,-0.015205088071525097,0.2798957824707031,0.2358330339193344
1783174259324558800,7.871558837890625,-0.048769231885671616,0.23695330321788788,0.29694581031799316
1783174259334628000,7.881628173828125,-0.1404312402009964,0.3497360348701477,0.24451586604118347
1783174259344697000,7.891697021484375,-0.3026264011859894,0.6165847778320312,0.05323202908039093
1783174259354765000,7.90176513671875,-0.4696795642375946,0.8214223384857178,-0.15506285429000854
1783174259364834000,7.911833984375,-0.5809213519096375,0.7314806580543518,-0.2301996350288391
1783174259374903000,7.921903076171875,-0.6008551120758057,0.3288082778453827,-0.1667836457490921
1783174259384971300,7.93197119140625,-0.5626329779624939,-0.19193804264068604,-0.06215757504105568
1783174259395040000,7.9420400390625,-0.5010396242141724,-0.5764340758323669,0.06484804302453995
1783174259405109000,7.95210888671875,-0.4386459290981293,-0.7469027042388916,0.17801590263843536
1783174259415177200,7.96217724609375,-0.3935908377170563,-0.7318731546401978,0.1665366142988205
1783174259425246000,7.972245849609375,-0.36506202816963196,-0.5191715955734253,0.03685937821865082
1783174259435314000,7.98231396484375,-0.36963096261024475,-0.13189631700515747,-0.17579509317874908
1783174259445383200,7.992383056640625,-0.3913255035877228,0.24949027597904205,-0.3605620861053467
1783174259455452000,8.002451904296874,-0.43781548738479614,0.4423430860042572,-0.45108774304389954
1783174259465519900,8.012519775390626,-0.46848034858703613,0.43557292222976685,-0.40290626883506775
1783174259475589000,8.022589111328125,-0.48303693532943726,0.34763216972351074,-0.2671404480934143
1783174259485657900,8.032657958984375,-0.4955989122390747,0.2400905191898346,-0.1404832899570465
1783174259495726000,8.04272607421875,-0.5189764499664307,0.16562239825725555,-0.07928783446550369
1783174259505795000,8.052795166015626,-0.5046445727348328,0.16205842792987823,-0.06069360673427582
1783174259515864000,8.062864013671875,-0.47005361318588257,0.1952776461839676,-0.06322573870420456
1783174259525932000,8.07293212890625,-0.4439125061035156,0.2608397901058197,-0.041610755026340485
1783174259536001000,8.0830009765625,-0.4496454894542694,0.3002617657184601,-0.039746809750795364
1783174259546069000,8.093069091796876,-0.44504618644714355,0.32354286313056946,0.02111566811800003
1783174259556138000,8.103137939453125,-0.3929654061794281,0.3311368525028229,0.12549346685409546
1783174259566207000,8.11320703125,-0.2884778678417206,0.24555152654647827,0.24175940454006195
1783174259576275200,8.123275146484374,-0.14364400506019592,0.128380686044693,0.4449753761291504
1783174259586344000,8.133343994140626,-0.007055288180708885,0.02111932262778282,0.6015163064002991
1783174259596413200,8.1434130859375,0.0488726906478405,-0.07830686867237091,0.5845839381217957
1783174259606481200,8.153481201171875,0.015264979563653469,-0.16286830604076385,0.42687174677848816
1783174259616550000,8.1635498046875,-0.04410913214087486,-0.18654941022396088,0.1351296752691269
1783174259626619100,8.173619140625,-0.03601580485701561,-0.0559297576546669,-0.14133098721504211
1783174259636687000,8.18368701171875,0.08338222652673721,0.0028555248863995075,-0.18732298910617828
1783174259646755800,8.193755859375,0.2431226223707199,-0.19370892643928528,-0.02662758156657219
1783174259656824000,8.203823974609374,0.42816516757011414,-0.5502060651779175,0.3348608613014221
1783174259666893000,8.21389306640625,0.5692532658576965,-0.8767616152763367,0.8235464096069336
1783174259676962000,8.223962158203125,0.5762270092964172,-1.2190768718719482,1.1277210712432861
1783174259687030000,8.234030029296875,0.4035089313983917,-1.448487639427185,0.9887943267822266
1783174259697099000,8.24409912109375,0.1290014535188675,-1.6715795993804932,0.1916133016347885
1783174259707168000,8.25416796875,-0.1914917230606079,-1.6414649486541748,-1.2036712169647217
1783174259717236000,8.264236083984375,-0.57307368516922,-1.006496787071228,-2.594409227371216
1783174259727305000,8.274304931640625,-0.8607856631278992,0.0921081155538559,-3.3088669776916504
1783174259737374000,8.2843740234375,-0.7453386783599854,1.1071498394012451,-2.9102983474731445
1783174259747442000,8.29444189453125,-0.23731493949890137,1.4972954988479614,-1.7695564031600952
1783174259757511200,8.30451123046875,0.29791465401649475,1.0930678844451904,-0.4503899812698364
1783174259767579100,8.3145791015625,0.5699914693832397,0.3662715554237366,0.6199758052825928
1783174259777647900,8.32464794921875,0.543163001537323,-0.31225794553756714,1.351896047592163
1783174259787717000,8.334717041015624,0.3353109359741211,-0.7832978367805481,1.6504952907562256
1783174259797785000,8.34478515625,0.20305487513542175,-0.8812262415885925,1.4057066440582275
1783174259807853800,8.354853759765625,0.20680509507656097,-0.6090797185897827,0.801033616065979
1783174259817923000,8.364923095703125,0.2494007647037506,-0.005273507907986641,-0.04366195946931839
1783174259827991000,8.374990966796876,0.3427140712738037,0.8087150454521179,-0.9891066551208496
1783174259838060000,8.38506005859375,0.44593071937561035,1.5501245260238647,-1.7520182132720947
1783174259848129000,8.39512890625,0.47692251205444336,1.8592686653137207,-2.14652419090271
1783174259858197000,8.405197021484375,0.4472176134586334,1.6536474227905273,-1.9661215543746948
1783174259868266000,8.415265869140624,0.4698364734649658,0.991790771484375,-1.3212668895721436
1783174259878334000,8.425333984375,0.44848084449768066,0.2094385325908661,-0.456946462392807
1783174259888403000,8.43540283203125,0.3572879731655121,-0.48258692026138306,0.37310662865638733
1783174259898472200,8.44547216796875,0.3839419484138489,-0.964816689491272,1.06020987033844
1783174259908540000,8.455539794921876,0.3117624521255493,-1.276950716972351,1.40681791305542
1783174259918609200,8.465609130859375,0.19283419847488403,-1.3733742237091064,1.2841132879257202
1783174259928678100,8.47567822265625,0.1931067258119583,-1.0906095504760742,0.9372650384902954
1783174259938745900,8.485745849609375,0.29948854446411133,-0.2503839135169983,0.41234108805656433
1783174259948815000,8.495815185546874,0.3654310405254364,0.2777983546257019,-0.2483951449394226
1783174259958884000,8.505884033203126,0.5756657719612122,0.3304958939552307,-0.4267273545265198
1783174259968952000,8.5159521484375,0.7775654196739197,0.12248396873474121,-0.1912185698747635
1783174259979021000,8.52602099609375,0.8976859450340271,0.08158580213785172,0.19141562283039093
1783174259989090000,8.536090087890624,0.9510408639907837,0.11677449196577072,0.5149016380310059
1783174259999158000,8.546157958984375,0.8899314403533936,0.07745318114757538,0.6811492443084717
1783174260009227000,8.55622705078125,0.6792589426040649,0.002210493665188551,0.6746171116828918
1783174260019295000,8.566294921875,0.42234188318252563,-0.04633733630180359,0.5562747716903687
1783174260029364200,8.5763642578125,0.21054118871688843,-0.09430409967899323,0.3693895936012268
1783174260039433000,8.586432861328126,0.02005220204591751,-0.1645476520061493,0.19631795585155487
1783174260049501000,8.5965009765625,-0.22591345012187958,-0.327955424785614,0.09732435643672943
1783174260059570200,8.606570068359375,-0.3426525592803955,-0.2994185984134674,0.05116964876651764
1783174260069639000,8.616638916015624,-0.21265412867069244,-0.42814862728118896,-0.1858086884021759
1783174260079707000,8.626706787109375,-0.12456075102090836,-0.25218719244003296,-0.521228015422821
1783174260089776000,8.636776123046875,-0.24048013985157013,0.09084876626729965,-0.7160351872444153
1783174260099844900,8.646844970703125,-0.4501982033252716,0.09819083660840988,-0.8888362646102905
1783174260109913000,8.6569130859375,-0.7144213914871216,-0.11840640753507614,-0.3876742720603943
1783174260119982000,8.666982177734376,-0.8686407804489136,0.4157502055168152,0.5822995901107788
1783174260130050000,8.677050048828125,-1.1818429231643677,0.8381307721138,1.4473323822021484
1783174260140119000,8.687119140625,-1.2777436971664429,0.7929534316062927,1.8105230331420898
1783174260150188000,8.69718798828125,-0.8362924456596375,0.4923877418041229,1.83663809299469
1783174260160256000,8.707256103515626,-0.22332146763801575,0.24103619158267975,1.562817931175232
1783174260170325000,8.717324951171875,0.29962724447250366,0.2535836696624756,1.092997431755066
1783174260180394000,8.72739404296875,0.6386145949363708,0.4284875690937042,0.6599107980728149
1783174260190462200,8.737462158203124,0.7291973829269409,0.4359874129295349,0.33724069595336914
1783174260200531000,8.747531005859376,0.6008005142211914,0.2661890387535095,0.23086021840572357
1783174260210600200,8.75760009765625,0.4389093518257141,0.004240789450705051,0.363638311624527
1783174260220668200,8.767668212890625,0.42405715584754944,-0.3048856556415558,0.6533404588699341
1783174260230737000,8.77773681640625,0.5279049873352051,-0.5432554483413696,1.07865309715271
1783174260240804900,8.787804931640625,0.5976065397262573,-0.8869438767433167,1.2749879360198975
1783174260250874000,8.7978740234375,0.5486462712287903,-1.3996810913085938,1.135538935661316
1783174260260942800,8.80794287109375,0.49106183648109436,-1.5918179750442505,0.7033799886703491
1783174260271011000,8.818010986328124,0.37388327717781067,-1.5575586557388306,-0.08817373216152191
1783174260281080000,8.828080078125,0.22790609300136566,-1.3394242525100708,-1.0514694452285767
1783174260291149000,8.838149169921875,0.06689844280481339,-0.6648275852203369,-1.783021330833435
1783174260301217000,8.848217041015625,-0.060135409235954285,0.19245779514312744,-2.1069796085357666
1783174260311286000,8.8582861328125,-0.12676724791526794,0.7245779037475586,-2.1020898818969727
1783174260321355000,8.86835498046875,-0.17263275384902954,0.8280350565910339,-1.79291832447052
1783174260331423000,8.878423095703125,-0.18522728979587555,0.5383470058441162,-1.2956407070159912
1783174260341492000,8.888491943359375,-0.12263421714305878,-0.05838935822248459,-0.7701683640480042
1783174260351560200,8.898560302734374,-0.024305464699864388,-0.8343119025230408,-0.3374803960323334
1783174260361629000,8.90862890625,0.017643051221966743,-1.5577045679092407,-0.23486852645874023
1783174260371698200,8.9186982421875,-0.08379797637462616,-1.8544262647628784,-0.4975231885910034
1783174260381766100,8.92876611328125,-0.29304414987564087,-1.6641123294830322,-0.9745733737945557
1783174260391835000,8.9388349609375,-0.34081265330314636,-1.0933282375335693,-1.4507604837417603
1783174260401904000,8.948904052734376,-0.1942751705646515,-0.45587098598480225,-1.7493245601654053
1783174260411972000,8.95897216796875,0.012269038707017899,0.03639644756913185,-1.8512581586837769
1783174260422040800,8.969040771484375,0.2020014077425003,0.26310494542121887,-1.805595874786377
1783174260432110000,8.979110107421874,0.3081020712852478,0.06888905167579651,-1.6519345045089722
1783174260442178000,8.989177978515626,0.33951324224472046,-0.4813820719718933,-1.3809443712234497
1783174260452246800,8.999246826171875,0.37496116757392883,-1.0589096546173096,-1.0297753810882568
1783174260462316000,9.00931591796875,0.391682893037796,-1.3568753004074097,-0.6262502670288086
1783174260472384000,9.019384033203124,0.3135526180267334,-1.0924434661865234,-0.3337259888648987
1783174260482453000,9.029452880859376,0.17736229300498962,-0.4904404282569885,-0.21689285337924957
1783174260492521000,9.03952099609375,0.06984768807888031,0.19731052219867706,-0.139594167470932
1783174260502590000,9.04958984375,-0.018255271017551422,0.7214267253875732,-0.04277627915143967
1783174260512659200,9.0596591796875,-0.0422060564160347,0.8108795881271362,0.0734577402472496
1783174260522727000,9.069726806640626,0.02650749310851097,0.6559156179428101,0.24494773149490356
1783174260532796000,9.0797958984375,0.15104566514492035,0.5434033274650574,0.5154473185539246
1783174260542865200,9.089865234375,0.26500287652015686,0.4605156183242798,0.7990934252738953
1783174260552932900,9.099932861328124,0.3025093674659729,0.4343627393245697,0.9847692251205444
1783174260563002000,9.110002197265626,0.2772738039493561,0.5540902018547058,1.0443062782287598
1783174260573071000,9.120071044921875,0.18212680518627167,0.666472315788269,1.0092039108276367
1783174260583138800,9.130138916015625,0.05709272623062134,0.7641645073890686,0.868314266204834
1783174260593208000,9.1402080078125,0.001280829543247819,0.8807457685470581,0.640276312828064
1783174260603276000,9.150276123046876,0.034561555832624435,1.0236952304840088,0.41458672285079956
1783174260613345000,9.160344970703125,0.11728314310312271,1.1703495979309082,0.32160741090774536
1783174260623414000,9.1704140625,0.2325492948293686,1.1884374618530273,0.5479119420051575
1783174260633482000,9.18048193359375,0.277368426322937,0.87978196144104,0.9137406945228577
1783174260643551200,9.19055126953125,0.2591846287250519,0.5429376363754272,1.0812921524047852
1783174260653620000,9.200619873046875,0.16574372351169586,0.46755242347717285,1.150678277015686
1783174260663688000,9.21068798828125,0.03288741782307625,0.4505833089351654,1.1268374919891357
1783174260673757200,9.220757080078124,-0.06057640537619591,0.49458906054496765,1.0737147331237793
1783174260683826000,9.230825927734376,-0.18912826478481293,0.49927353858947754,1.1127532720565796
