time,seconds_elapsed,z,y,x
1783174381909077800,0.082077880859375,0.006664718586206436,0.19068576306086032,-0.40475313236154614
1783174381919145700,0.092145751953125,0.09721241999566554,0.13955091136824338,-0.45206301893852646
1783174381929215000,0.102215087890625,0.14615093068778515,0.13481200974546373,-0.42669367294758553
1783174381939283000,0.112282958984375,0.14782441685795783,0.15436967378295957,-0.45447059153690933
1783174381949351700,0.1223515625,0.09745616562366485,0.15316829863656312,-0.5384149491585791
1783174381959421000,0.1324208984375,-0.07159224104881286,0.2028845887681469,-0.5992459230225533
1783174381969489000,0.142489013671875,-0.3550502862334251,0.2822343486085534,-0.542538093503192
1783174381979557600,0.1525576171875,-0.5692728826284408,0.4064843400683254,-0.45084662888608873
1783174381989625900,0.1626259765625,-0.5219254405200481,0.5389360504232347,-0.37373752411194144
1783174381999694800,0.17269482421875,-0.34513796402812,0.5973433408042416,-0.2996734861221164
1783174382009763800,0.182763916015625,-0.07267769819796085,0.6234484171912074,-0.24949717726334927
1783174382019831800,0.192831787109375,0.20192367131412028,0.6120485598418861,-0.23395569006465375
1783174382029900800,0.20290087890625,0.3858826468706131,0.5487822120571508,-0.25409371127337216
1783174382039968800,0.21296875,0.534767970958352,0.49571299476847047,-0.2583998840346932
1783174382050037800,0.223037841796875,0.7124754849046468,0.46586573617849497,-0.18809249516464768
1783174382060105700,0.233105712890625,0.7536725876897573,0.40474710447955875,-0.10323299545943737
1783174382070175000,0.243175048828125,0.6052770929455756,0.34692250935733315,-0.0899602569103241
1783174382080243700,0.25324365234375,0.39811026028096674,0.31844065736904736,-0.07151471883319317
1783174382090311700,0.263311767578125,0.3248749282002449,0.3191300278726965,0.05701945275180041
1783174382100381000,0.273380859375,0.2969061403006315,0.33258700041491535,0.18842691475078463
1783174382110449000,0.283448974609375,0.11692658976912498,0.27071590638086196,0.19773579117022452
1783174382120517600,0.293517578125,-0.0608504822820425,0.14082235607616603,0.09535575927831232
1783174382130587000,0.3035869140625,-0.2474848145276308,0.009334303121641277,-0.23261150891408322
1783174382140654800,0.31365478515625,-0.39449031621813774,-0.05513911889791488,-0.40774186584874983
1783174382150723800,0.323723876953125,-0.4934095401316881,-0.04282126992084086,-0.2753378670930862
1783174382160791800,0.333791748046875,-0.5918553013145923,0.08779157110173255,-0.017470117173716423
1783174382170860800,0.34386083984375,-0.6244850667625665,0.26885445989053697,0.19704013705626128
1783174382180929800,0.3539296875,-0.622680647689104,0.35391441407129165,0.2990555003542453
1783174382190997800,0.363997802734375,-0.45206689139604567,0.37201618021205063,0.28129027269147333
1783174382201066800,0.374066650390625,-0.35680034477114675,0.3044138855822384,0.2658278420783579
1783174382211135000,0.384135009765625,-0.38248891277909275,0.21443441251479087,0.22209427961818873
1783174382221203700,0.39420361328125,-0.5217290411651134,0.13295392425600439,0.10361045046970248
1783174382231271700,0.404271728515625,-0.6844079128056764,0.032263343288376926,-0.08150872797258198
1783174382241341000,0.4143408203125,-0.6778834794729948,-0.06613719051331281,-0.1763399884527549
1783174382251409700,0.42440966796875,-0.49233518889844413,-0.09486198441199958,-0.17816402554214
1783174382261478000,0.434477783203125,-0.24480361261963843,-0.12584639380574225,-0.15854063932467252
1783174382271547000,0.444546875,0.092412910759449,-0.10564224855825305,-0.0598992825044319
1783174382281614800,0.45461474609375,0.287880537801981,-0.042454628565534946,0.028099866933375597
1783174382291683800,0.464683837890625,0.3193932819187641,-0.000006502806022763252,0.15664006640035658
1783174382301752800,0.4747529296875,0.1846609863460064,0.01786919949389994,0.2679230607919395
1783174382311819800,0.48481982421875,-0.018334698113799095,0.034715120354667305,0.32165969248078763
1783174382321889000,0.494888916015625,-0.037159225571155544,0.11521386756710708,0.3343275239393115
1783174382331956700,0.504956787109375,0.1800900251686573,0.14523893040940164,0.43026393264979124
1783174382342025700,0.515025634765625,0.40623569906949997,0.0976947966851294,0.43779293991513546
1783174382352095000,0.525094970703125,0.4898965635746717,-0.010700111582130193,0.38898992870356885
1783174382362163000,0.535162841796875,0.45142157922983167,-0.11054098038524389,0.23613579231640322
1783174382372231700,0.545231689453125,0.32593525090813635,-0.22389015005901455,0.03517941339816898
1783174382382300000,0.5552998046875,0.14467968909144402,-0.28712190145440397,-0.07895356359705329
1783174382392369000,0.565368896484375,0.11980419103205203,-0.29759032317250966,0.01831352746160701
1783174382402438000,0.57543798828125,0.34176235011517997,-0.2087549786388874,0.14305311080291866
1783174382412505900,0.585505859375,1.0048983423113822,-0.15718787300884723,0.36182905965335665
1783174382422574800,0.595574951171875,0.5724614495366811,-0.17371756752729414,0.30847806628122926
1783174382432642800,0.605642822265625,0.26613398541808125,-0.18037943656928837,0.11534828933542593
1783174382442711800,0.6157119140625,0.21886837637424467,-0.16182459289878606,-0.04883128745798021
1783174382452779800,0.62577978515625,0.1674409714758396,-0.22803769819252193,-0.014670275588426738
1783174382462849000,0.63584912109375,0.23969547582566736,-0.35545214503258465,-0.04594884562315419
1783174382472917800,0.645917724609375,0.42430502424538136,-0.4293538320675492,-0.11112652518823742
1783174382482985700,0.65598583984375,0.7408727273494005,-0.5466688366323709,-0.011190927306376396
1783174382493055000,0.666054931640625,0.8742430869191884,-0.5962996404375881,0.23266382362321017
1783174382503122700,0.676122802734375,0.8211533017665147,-0.6022250849638134,0.42867706531714644
1783174382513192000,0.68619189453125,0.5706383257627486,-0.59038851669766,0.59900148327481
1783174382523261000,0.696260986328125,0.20167641855478285,-0.5480081954773515,0.7694486873619258
1783174382533329000,0.706328857421875,-0.04391337600648403,-0.5362524373624473,0.8271485235933214
1783174382543398000,0.71639794921875,-0.13342355106174944,-0.6063507135264575,0.7687362282436341
1783174382553465900,0.7264658203125,-0.20904080984294413,-0.7660539303570986,0.7089836242008953
1783174382563534800,0.736534912109375,-0.2045937673062086,-0.9470144547499716,0.6968509225323796
1783174382573603800,0.746603759765625,-0.18992051430940626,-1.0880529377948491,0.6501696892477572
1783174382583671800,0.756671875,-0.14284312131404875,-1.1287022705040872,0.6596339023593812
1783174382593741000,0.766740966796875,-0.173840901646018,-1.1639379076015204,0.7243519467897713
1783174382603808800,0.776808837890625,-0.22953648538291452,-1.1404633623812348,0.7498222689371555
1783174382613877800,0.786877685546875,-0.33184359816908837,-1.118596544618532,0.8149594886276871
1783174382623946000,0.796946044921875,-0.449220269793272,-1.0988223882861434,0.791276488288492
1783174382634014700,0.8070146484375,-0.5938005901634693,-1.0870607118871063,0.7288910515241325
1783174382644083700,0.817083740234375,-0.6052560501575469,-1.083176271669194,0.660652724013105
1783174382654152000,0.82715185546875,-0.49368134281039233,-1.0967002815656364,0.6326710035666823
1783174382664221000,0.837220947265625,-0.21164660842716693,-1.130969119457528,0.6534899197116494
1783174382674288600,0.84728857421875,0.11520634184777737,-1.1409398207865655,0.5640440055316314
1783174382684358000,0.85735791015625,0.35020869142115113,-1.101231933645904,0.4897163847021758
1783174382694427000,0.867427001953125,0.4551747942835092,-1.1068878405157476,0.4536197468612343
1783174382704494800,0.877494873046875,0.5171352836340666,-1.1549250184539706,0.33267665145974606
1783174382714563800,0.887563720703125,0.5166074603676796,-1.1982876287098974,0.26998432243699205
1783174382724631800,0.8976318359375,0.41135961795449255,-1.19507451188229,0.3204450194614008
1783174382734700800,0.90770068359375,0.17899463114738462,-1.1217292896863071,0.34858035956695677
1783174382744769800,0.917769775390625,-0.09664075758755207,-1.008692473897338,0.3721428753316402
1783174382754837800,0.927837646484375,-0.30310674850642677,-0.8720794791445136,0.3843482769101858
1783174382764907000,0.937906982421875,-0.34639293252527714,-0.7764446837291121,0.37445385568775236
1783174382774974700,0.947974609375,-0.1946504654407501,-0.7417013601932674,0.34327984200604256
1783174382785044000,0.9580439453125,-0.06236497849822044,-0.7248687372054904,0.2614718936248682
1783174382795112000,0.96811181640625,0.09277356076538562,-0.7476727627530694,0.19232324633589012
1783174382805180700,0.9781806640625,0.2197299616396427,-0.7937558109488337,0.1813687033349648
1783174382815250000,0.98825,0.2563163557589054,-0.8069334185604006,0.16393307295273987
1783174382825318000,0.99831787109375,0.11629939778149127,-0.7957499804407357,0.15279113588724286
1783174382835387000,1.008386962890625,-0.15908756915032862,-0.6670874332357197,0.15718873152537272
1783174382845454800,1.018454833984375,-0.26845336827635763,-0.5396298048410564,0.1845455432727933
1783174382855523800,1.02852392578125,-0.22821020521521568,-0.4737050149694085,0.1783231981592253
1783174382865592800,1.0385927734375,-0.050990182524919506,-0.4287306586679071,0.14153258670475333
1783174382875660800,1.048660888671875,0.12395605001449585,-0.4291453038834035,0.07869029128467664
1783174382885729800,1.058729736328125,0.2567921565771103,-0.4043668364576995,-0.05247578144017607
1783174382895797800,1.0687978515625,0.2574742936223745,-0.34535270275734364,-0.08135277022588998
1783174382905866800,1.07886669921875,0.03974164327979088,-0.30171507495231925,-0.07598221963606774
1783174382915935700,1.088935791015625,-0.0573386747688055,-0.20652320099882782,-0.06867739478172734
1783174382926004000,1.09900390625,-0.04978431386649608,-0.10985190214253962,-0.06401201505288481
1783174382936072700,1.10907275390625,-0.03630699265599251,-0.11175072150118648,-0.11198208257164806
1783174382946140700,1.119140625,-0.013676643174886703,-0.12590769553892314,-0.22161022242829204
1783174382956210000,1.1292099609375,0.14866379029154778,-0.1318705494660884,-0.28534079019129277
1783174382966279000,1.13927880859375,0.30835633959770203,-0.17758936745934187,-0.2975418443882838
1783174382976346600,1.1493466796875,0.5093880305081606,-0.1825251433610916,-0.29740550465751436
1783174382986415900,1.159415771484375,0.7241700143516063,-0.11097374577932059,-0.3133061074921861
1783174382996483800,1.16948388671875,0.7255512395769357,-0.14104798152558504,-0.36187983999252316
1783174383006552800,1.179552734375,0.4861497782617807,-0.23604659792929886,-0.4397155785407871
1783174383016620800,1.189620849609375,0.14139642963707447,-0.3511089281965047,-0.5059000057293102
1783174383026689800,1.199689697265625,-0.4107815258055925,-0.4558421721510589,-0.5784835593704134
1783174383036758800,1.2097587890625,-0.8269687100470066,-0.40856070795096455,-0.599931348003447
1783174383046826800,1.21982666015625,-1.02079207701385,-0.3280986394871026,-0.5140323491826653
1783174383056895700,1.229895751953125,-1.106830776566267,-0.15520283667147158,-0.3513260780785233
1783174383066964000,1.2399638671875,-1.2782827372491359,0.04140307368598878,-0.2229447589676827
1783174383077032700,1.25003271484375,-1.600788598230481,0.258850696542114,-0.1939043963138014
1783174383087102000,1.26010205078125,-1.7325041763305664,0.4139435700330883,-0.22662447039373218
1783174383097170000,1.270169921875,-1.5784318049937485,0.4526809316411614,-0.25259185534305867
1783174383107238700,1.28023876953125,-1.3730302284359932,0.4190936462726444,-0.2267196743965149
1783174383117307000,1.290306884765625,-1.133432952287793,0.4304945265352726,-0.14745594887174665
1783174383127376000,1.3003759765625,-0.7537772171080112,0.5370472410019487,-0.06680741792507469
1783174383137443800,1.31044384765625,-0.4349339702874422,0.6088681031748652,0.01586480086892843
1783174383147512800,1.320512939453125,-0.26119009927511216,0.7037029803842306,0.00498465654477477
1783174383157581800,1.330581787109375,-0.007288403442502022,0.8137286316584795,0.01742087120451033
1783174383167649800,1.34064990234375,0.25730361323058604,0.889755128827691,-0.0020454612877219914
1783174383177718800,1.35071875,0.5146317763805389,0.9016818595953285,-0.0782394239783287
1783174383187786800,1.360786865234375,0.6452648199409247,0.9005111353155225,-0.2086637201588601
1783174383197856000,1.37085595703125,0.7040437566459179,0.8975640490129589,-0.2276636772483587
1783174383207924700,1.3809248046875,0.6888409268170594,0.9304792072735726,-0.30181166719458996
1783174383217992700,1.39099267578125,0.7298731944292783,0.9667204412169754,-0.4202979805611074
1783174383228062000,1.40106201171875,0.8460510116577148,0.9670217622511088,-0.45905689641386266
1783174383238130000,1.4111298828125,0.919196327367425,0.9910071796029806,-0.3988555987555533
1783174383248198700,1.42119873046875,0.9123544986486435,1.005302685328573,-0.3996403193924576
1783174383258267000,1.431266845703125,0.9050567428559064,0.9682448743052781,-0.5042961872618645
1783174383268335900,1.4413359375,0.8578817347049713,0.927627032712847,-0.5086334127485752
1783174383278404900,1.45140478515625,0.6684457890421152,0.9134154058784246,-0.4736925208140164
1783174383288472800,1.461472900390625,0.438470327720046,0.9087336778029799,-0.36622846365608275
1783174383298541800,1.471541748046875,0.25246318746209145,0.9002125176951289,-0.22603607604652642
1783174383308610300,1.4816103515625,0.06466974830925465,0.8872118740856647,-0.07554192852266133
1783174383318679300,1.49167919921875,-0.09838029473125934,0.8251664098653941,-0.05056881530769169
1783174383328748300,1.501748291015625,-0.10674947914779186,0.7233407239206134,-0.13073460423871874
1783174383338816300,1.511816162109375,-0.05546119045913219,0.5603197608441114,-0.2351401506088674
1783174383348885200,1.52188525390625,0.032871757510304446,0.3943369522873312,-0.25849516110271215
1783174383358953200,1.531953125,0.09879764336049557,0.32369580141827464,-0.23853951072357593
1783174383369022200,1.542022216796875,0.07665770774483681,0.31432569633089,-0.17001396376900374
1783174383379091200,1.55209130859375,0.04689852929711342,0.33832185427248473,-0.10856171620152891
1783174383389159200,1.5621591796875,0.08462766371071338,0.32057701181061565,-0.050283422495052216
1783174383399228200,1.572228271484375,0.2531359721571207,0.2926354772441089,0.05290967934541404
1783174383409296400,1.58229638671875,0.5336643936306238,0.243258794330433,0.06812843739576638
1783174383419365000,1.592365234375,0.8093821999520063,0.16200747518502176,0.06157594701237976
1783174383429433000,1.60243310546875,0.9346090005546808,0.01368438808992505,-0.010154460398107766
1783174383439502300,1.61250244140625,0.9707201783776283,-0.169169110442698,-0.16900727094449103
1783174383449571000,1.622571044921875,0.9449813414871692,-0.3282572641149163,-0.2904360675036907
1783174383459639300,1.632639404296875,1.0162626168906688,-0.43000981175825,-0.3594876110937446
1783174383469708300,1.642708251953125,1.0547393548011779,-0.49583494064770633,-0.3707183224212378
1783174383479776300,1.6527763671875,0.9333493558824062,-0.5127711701404303,-0.3417506231447682
1783174383489845200,1.66284521484375,0.7494307123363018,-0.5025120072588324,-0.340372941583395
1783174383499914200,1.672914306640625,0.6488999615728854,-0.5905117046859115,-0.36953649222552776
1783174383509982200,1.682982177734375,0.6158709676742553,-0.7013911963105202,-0.42503111003022637
1783174383520051200,1.69305126953125,0.5508528443187475,-0.8417884588424116,-0.4906157081620767
1783174383530119200,1.703119140625,0.4063637093633413,-0.9907565658427774,-0.6155683314658701
1783174383540188400,1.7131884765625,0.2860661818563938,-1.1371333411756903,-0.708848672709614
1783174383550256000,1.723256103515625,0.13142039454579352,-1.255011167255044,-0.6488302573375403
1783174383560325000,1.7333251953125,0.0687760145843029,-1.299443744830042,-0.49460550845060497
1783174383570394400,1.743394287109375,0.11336860502660275,-1.2904466377735138,-0.29341818858701735
1783174383580462300,1.75346240234375,0.1252659635692835,-1.2683800596550105,-0.10542031290326268
1783174383590531000,1.763531005859375,0.08588555481731891,-1.278351710832119,0.0025492460913956166
1783174383600599300,1.773599365234375,-0.03655541445910931,-1.3132479599073528,0.03640972237810492
1783174383610668300,1.783668212890625,-0.29497955615222454,-1.3660029601477086,0.04441361714620143
1783174383620737300,1.7937373046875,-0.5425497108757495,-1.3108080194093286,0.17195972754191607
1783174383630805200,1.80380517578125,-0.8704477862894534,-1.2116174312084913,0.22651216912567615
1783174383640874200,1.813874267578125,-1.172581305849552,-1.0936015118326992,0.27324118707478046
1783174383650942200,1.823942138671875,-1.387517603471875,-1.040207263840735,0.23481658121030777
1783174383661011200,1.83401123046875,-1.4755249727487563,-1.0546591291718184,0.13796152328494934
1783174383671080200,1.844080078125,-1.3592542165398598,-1.0356211050942539,-0.015625731416046618
1783174383681148400,1.8541484375,-1.1898580193430184,-1.0502285993784666,-0.02695683437809348
1783174383691217200,1.864217041015625,-1.0091536616683006,-1.159033403620869,0.036585188542865216
1783174383701285000,1.87428515625,-0.693569708904624,-1.2936159154593945,0.0654060266945511
1783174383711354400,1.884354248046875,-0.4286164577037096,-1.4288085220202802,0.14738323069540782
1783174383721422000,1.894422119140625,-0.42679976367056366,-1.5894579336598516,0.2840819857692346
1783174383731491300,1.9044912109375,-0.6096545773774386,-1.6587725851655006,0.3996877752633765
1783174383741560300,1.914560302734375,-0.8596604348152875,-1.6270741092182694,0.5445039867486804
1783174383751628300,1.924628173828125,-1.245008828678727,-1.5356795817211268,0.561690318544954
1783174383761697300,1.934697265625,-1.7408324442148209,-1.430457019879669,0.39925121047701684
1783174383771765200,1.94476513671875,-2.1750439454466104,-1.2678592506512998,0.20888306199796497
1783174383781834200,1.954834228515625,-2.4713579650729893,-1.0191815730772913,0.041021700552431865
1783174383791903200,1.9649033203125,-2.5053584343522783,-0.6385504169940948,0.04248422911935486
1783174383801971200,1.97497119140625,-2.3511194742769,-0.25167024698611346,0.24377978599723427
1783174383812040400,1.98504052734375,-2.180507471549511,0.016744725508615374,0.3558683976832777
1783174383822108200,1.995108154296875,-1.960222214114666,0.2399354585940018,0.3327536256860941
1783174383832177200,2.00517724609375,-1.514761589115858,0.3399783162426203,0.4334508190575987
1783174383842245000,2.0152451171875,-1.2186948222488163,0.4937983202535659,0.5154106883311644
1783174383852314000,2.025314208984375,-1.0196353081941605,0.786131672745943,0.434726647679694
1783174383862383000,2.035383056640625,-0.856955267509818,1.064585479902476,0.5148160103736446
1783174383872451300,2.045451416015625,-0.607212444922328,1.2528050355128943,0.6025518327001482
1783174383882520300,2.055520263671875,-0.07100947272479534,1.432680687278509,0.5828281279133632
1783174383892588000,2.065588134765625,0.5066150586634874,1.517563933185488,0.5831682831205427
1783174383902657300,2.0756572265625,1.0128273817449807,1.5471674826800823,0.5939237416191027
1783174383912726300,2.085726318359375,1.54444887137115,1.6332679954223335,0.5767529361855238
1783174383922794000,2.0957939453125,1.9945693048745392,1.6392855021461843,0.5547539434105158
1783174383932863200,2.10586328125,2.19684602741003,1.63821173543483,0.44446175015456973
1783174383942931200,2.11593115234375,2.148347077178955,1.586116514277458,0.2247263086222112
1783174383953000200,2.126000244140625,1.9708201804965733,1.498480024139583,-0.07746723402943462
1783174383963068200,2.136068115234375,1.5127239458084105,1.358424633847922,-0.4370407698409632
1783174383973137200,2.14613720703125,0.9466407991319894,1.2110393390595913,-0.8125218131519854
1783174383983206400,2.156206298828125,0.5571586664646864,1.0961828335627912,-1.0007654802903532
1783174383993274000,2.166274169921875,0.3444686864644289,0.9770877406481653,-0.9871591258727014
1783174384003343000,2.176343017578125,0.29121991135776043,0.87318868249543,-0.8681549991771579
1783174384013411300,2.186411376953125,0.24531623831689356,0.787467013002932,-0.7589025242324918
1783174384023480000,2.19647998046875,0.03706277945935726,0.7152528406634926,-0.6284636880699545
1783174384033549300,2.20654931640625,-0.22528876481056212,0.6430189407102763,-0.4760796351462602
1783174384043617300,2.2166171875,-0.3846586580336094,0.6180322373613715,-0.3739321699012071
1783174384053686000,2.22668603515625,-0.6130518186002969,0.5833432012960315,-0.2379477919081226
1783174384063754200,2.236754150390625,-0.8751409125417471,0.5947682661518454,-0.1504704469878692
1783174384073823200,2.2468232421875,-0.9783651401728392,0.6048911623679101,-0.13326291713993996
1783174384083892200,2.256892333984375,-1.0357488231271506,0.564905481199175,-0.11554432336417958
1783174384093960200,2.266960205078125,-1.0358078598380087,0.5747983680516481,-0.10372240467788651
1783174384104029200,2.277029296875,-0.9223913240164517,0.6765922706186771,-0.05017102076229639
1783174384114097200,2.28709716796875,-0.7322855162680149,0.7468497559323907,0.005065073970379308
1783174384124166100,2.297166259765625,-0.41644671196043487,0.8192099126137793,0.10658617834486067
1783174384134234000,2.307234130859375,-0.13621931926012038,0.819658971555531,0.17081801016088574
1783174384144303400,2.317303466796875,0.18179566004276274,0.800381293503195,0.14813852430842817
1783174384154372000,2.3273720703125,0.5289776971191168,0.7327304835565388,0.07919106214735656
1783174384164440000,2.337440185546875,0.8216828785985708,0.6207892809845507,0.01897087712548673
1783174384174509300,2.34750927734375,1.0170675035327672,0.512501778614521,-0.08774802422095089
1783174384184577300,2.357577392578125,1.0718155772864817,0.4032400243848562,-0.09503598927203566
1783174384194646000,2.36764599609375,0.9724567929118871,0.35830768059417606,-0.13045531237330288
1783174384204715300,2.37771533203125,0.775976773956418,0.35869185760617256,-0.1286793522093445
1783174384214783200,2.387783203125,0.5007482124567032,0.42004678227901454,-0.03746051007267087
1783174384224852200,2.397852294921875,0.33639702368974683,0.5059392052285373,-0.030088958391360936
1783174384234920200,2.407920166015625,0.2682797652751207,0.4922418115265667,-0.05663260885868221
1783174384244989200,2.4179892578125,0.1818587884068489,0.45749520005509253,-0.07442012141849845
1783174384255057200,2.42805712890625,0.10765198094546795,0.43429508786201476,-0.16436700739059595
1783174384265126100,2.438126220703125,0.05197743999660015,0.39818975525796413,-0.2208458504596725
1783174384275195100,2.448195068359375,0.057117725494503974,0.36244931044355033,-0.2541116122562438
1783174384285263400,2.458263427734375,0.07508709742724895,0.3039797319486737,-0.27911446302235127
1783174384295332000,2.46833203125,0.10405600228011608,0.2650670868389308,-0.3701065471984446
1783174384305400300,2.478400390625,0.12109773797392845,0.2053558377198875,-0.5190133524656295
1783174384315469600,2.488469482421875,0.19037877947092055,0.16129676963239908,-0.6835529034115374
1783174384325538300,2.498538330078125,0.21799743875861166,0.05958309269472956,-0.9107607266511768
1783174384335606500,2.5086064453125,0.2601853061467409,-0.005037263514846563,-1.1845332441236822
1783174384345675500,2.518675537109375,0.3075596362620592,-0.028195728523284194,-1.388222829131782
1783174384355743500,2.528743408203125,0.3144055566340685,-0.02657879484593868,-1.622398372492194
1783174384365812500,2.5388125,0.15903788478970526,0.0352963543087244,-1.504488909165561
1783174384375880400,2.54888037109375,0.22398878812789916,0.08938537963181734,-1.125693955533579
1783174384385949400,2.558949462890625,0.12029226680994033,0.16677154778167605,-1.1250029775947332
1783174384396018400,2.569018310546875,0.07792202859222888,0.3642307870328426,-0.8575777833223343
1783174384406086400,2.57908642578125,0.1296124683409929,0.6073677816145122,-0.7739113658592105
1783174384416155600,2.58915576171875,0.16567688441276548,0.6980917163737118,-0.8104899419981986
1783174384426223600,2.5992236328125,0.10933189685642719,0.6776036396183073,-0.9255516877435147
1783174384436292400,2.609292236328125,-0.017716858476400376,0.501792022421211,-1.0601572881966828
1783174384446361600,2.619361572265625,-0.1559036784172058,0.2729511180870235,-1.2957511739224195
1783174384456429600,2.6294296875,-0.3040074967384338,0.10553301603011786,-1.4673630013421177
1783174384466498300,2.639498291015625,-0.4635065692991018,0.0062765960514545435,-1.578145681528747
1783174384476566500,2.64956640625,-0.7864315324753522,-0.04238770080916583,-1.6726675472661852
1783174384486635500,2.659635498046875,-1.1354016220122576,-0.03124846715740859,-1.6335945970281958
1783174384496703500,2.669703369140625,-1.4996727410554884,0.07039696684964,-1.7080287835046648
1783174384506772500,2.6797724609375,-1.7368442513614892,0.3194503458682447,-1.779348052830994
1783174384516841500,2.689841552734375,-1.6379256119698284,0.6403776324212551,-1.868155924835801
1783174384526909400,2.699909423828125,-1.2658920422315596,0.9477849276658147,-1.8295539531104266
1783174384536978400,2.709978515625,-0.717447428098321,1.0906997990418226,-1.7964936872906982
1783174384547046400,2.72004638671875,-0.2512052963554859,1.1770401849545538,-1.8434180816814303
1783174384557115600,2.73011572265625,0.20039748466014862,1.2758252610944212,-1.746472934319824
1783174384567184400,2.740184326171875,0.716958767798543,1.159044509536773,-1.6757099837020037
1783174384577252400,2.75025244140625,1.090571715682745,0.9483326977416873,-1.6966022573441266
1783174384587321600,2.760321533203125,1.350243811610341,0.8287335277624428,-1.7232888964787125
1783174384597389600,2.7703896484375,1.405858146804571,0.7835574383437633,-1.716630753763765
1783174384607458300,2.780458251953125,1.1124036082625388,0.65689695167616,-1.8746653067298233
1783174384617526500,2.790526611328125,0.6286690744489432,0.5177668595358729,-2.228470999729633
1783174384627595500,2.800595458984375,0.1435866331577301,0.5063792040809989,-2.3739415469378233
1783174384637664500,2.81066455078125,-0.19425415959954262,0.5160844594068825,-2.23633354979828
1783174384647732500,2.820732421875,-0.38374505032002926,0.6542889611348509,-1.9891404116936027
1783174384657801500,2.830801513671875,-0.5385644406318664,0.8996838176459073,-1.594817853257805
1783174384667869400,2.840869384765625,-0.6453869850158691,1.0599852926306426,-1.2337130892910062
1783174384677938400,2.8509384765625,-0.5879045178622007,1.127124645923823,-0.9041435735337435
1783174384688007400,2.86100732421875,-0.40006548600196834,1.0828661097414791,-0.5976071428395807
1783174384698075600,2.87107568359375,-0.15184183580577373,0.9974942035347223,-0.3302275412745774
1783174384708144400,2.881144287109375,-0.014749825364351273,0.88619480599761,-0.16581914242766796
1783174384718212400,2.89121240234375,-0.10271101741194724,0.7022014897800981,-0.12979703112766147
1783174384728281600,2.901281494140625,-0.25932138279378414,0.5930708145841955,-0.15033479224368929
1783174384738349300,2.911349365234375,-0.2278998240917921,0.5670619285807014,-0.030637532184831798
1783174384748418600,2.92141845703125,0.04948445413708687,0.46759851478785275,0.18514080575220285
1783174384758487600,2.931487548828125,0.3194318603634834,0.4162831919617951,0.5048309882583096
1783174384768555500,2.941555419921875,0.43381051921546454,0.4169488162636757,0.8841685608670115
1783174384778624500,2.95162451171875,0.5940215394377708,0.3200425396077335,1.1022843653082848
1783174384788692500,2.9616923828125,0.8018167331337929,0.12892404768541454,1.1552106304623186
1783174384798761500,2.971761474609375,0.9476146126002073,-0.1105140923783183,1.1732944225549697
1783174384808830500,2.98183056640625,1.0551035119384526,-0.3671108725138008,1.2089261462979017
1783174384818898400,2.9918984375,1.1253156968057154,-0.6156940036721528,1.19243086550571
1783174384828967700,3.0019677734375,1.1284557483971118,-0.8260881278201937,1.040246426807344
1783174384839035400,3.012035400390625,1.0611153195738792,-1.073494470284134,0.8370285509642214
1783174384849104400,3.0221044921875,0.9147492848306894,-1.351790602660924,0.692820790233463
1783174384859172600,3.032172607421875,0.7801338936358689,-1.5854647723704576,0.7022306428093463
1783174384869241600,3.04224169921875,0.6773883894324302,-1.6800154258109627,0.7980823689110577
1783174384879310300,3.052310302734375,0.5814467200249434,-1.6053025685235858,0.9172834794834256
1783174384889378600,3.062378662109375,0.5286854361742734,-1.5196452695041893,1.0443247821621595
1783174384899447600,3.072447509765625,0.41097032637596126,-1.4532548348821699,1.1192289242379367
1783174384909515300,3.082515380859375,0.16942600781321523,-1.509073314346373,1.0438023657232522
1783174384919584500,3.09258447265625,-0.09499065229296684,-1.7373565847977994,0.8248460918698459
1783174384929653500,3.102653564453125,-0.2968506107211113,-1.9464016324244438,0.6643593965113163
1783174384939721500,3.112721435546875,-0.4894681090295315,-2.0372583997830747,0.44525406957603986
1783174384949790500,3.12279052734375,-0.6421873121917248,-2.0572734521992504,0.35748825397007167
1783174384959858400,3.1328583984375,-0.7175830371767282,-1.9518530296981333,0.45888837144654243
1783174384969927400,3.142927490234375,-0.6743932992696762,-1.7909487665146588,0.5995658026266842
1783174384979995400,3.152995361328125,-0.6766209121912717,-1.586769425228238,0.8146427508287132
1783174384990064400,3.163064453125,-0.7098229245692491,-1.279334292128682,1.01037618920058
1783174385000133600,3.173133544921875,-0.6715285574883222,-0.9814648597538471,1.2652186730146406
1783174385010201300,3.183201416015625,-0.6746551650762558,-0.7805541648745536,1.4732203490681945
1783174385020270300,3.193270263671875,-0.6409089628189801,-0.5911489066109061,1.6089575838997958
1783174385030338600,3.203338623046875,-0.5880033020615577,-0.4486493380375206,1.5895415202900767
1783174385040407300,3.2134072265625,-0.6558867517203092,-0.45641529586389656,1.3253500472418964
1783174385050476500,3.2234765625,-0.859234318357706,-0.7091933944940566,0.7414386906690895
1783174385060544500,3.23354443359375,-0.7795318360894918,-1.060740933303535,0.2988795957980677
1783174385070613500,3.243613525390625,-0.5158522580862045,-1.2925352806158363,0.15372900125924496
1783174385080681500,3.253681396484375,-0.4640244556933641,-1.2578456600286065,0.1719438358530402
1783174385090750500,3.26375048828125,-0.5643722511053085,-0.8993155688554048,0.2936164511054754
1783174385100818400,3.273818359375,-0.7287900753676891,-0.48025326756909487,0.3379143329175189
1783174385110887400,3.283887451171875,-0.9396914183855056,-0.08981134995892644,0.3947883858492598
1783174385120956400,3.293956298828125,-1.1465391020983458,0.23816636656224727,0.3843654472406953
1783174385131024400,3.3040244140625,-1.4139526059329508,0.44239217733889813,0.2187390143735334
1783174385141093400,3.31409326171875,-1.639181749510765,0.33824221316501496,0.1611019046474248
1783174385151161300,3.324161376953125,-1.8051760293096304,0.09797872819304465,0.32671076532527804
1783174385161230600,3.334230712890625,-1.8406605996668337,-0.004273731796443462,0.41494091050736603
1783174385171299600,3.344299560546875,-1.8366572092443703,-0.04717310845479369,0.5627630988756195
1783174385181367300,3.3543671875,-1.8338444899111985,-0.06594765929058194,0.7413555424302816
1783174385191436500,3.3644365234375,-1.8094962305963038,0.02399886135533452,0.9106644266698509
1783174385201504500,3.37450439453125,-1.52766374078691,0.2765305840089917,1.1627929753500967
1783174385211573200,3.3845732421875,-1.0547568904578686,0.6454864998675882,1.5651431382231413
1783174385221641500,3.394641357421875,-0.5874813240140676,1.1514620915837586,2.018761935236305
1783174385231710500,3.40471044921875,-0.232817991271615,1.5215559254311024,2.3596439953856168
1783174385241779500,3.414779541015625,-0.0015776245802640915,1.7288121899448334,2.427717560788989
1783174385251847400,3.424847412109375,0.2900169653087854,1.8069043144069612,2.3760952178403736
1783174385261916400,3.43491650390625,0.5841057101011276,1.7496547792263328,2.2255030898347496
1783174385271984600,3.444984619140625,0.8478273736804723,1.5483534775942562,2.08165941317603
1783174385282053400,3.455053466796875,1.021803299883008,1.3453366042159498,1.9490248205348848
1783174385292122400,3.465122314453125,1.0860784959167242,1.223133535348624,1.8386407842770218
1783174385302190600,3.475190673828125,0.9780518364399671,1.1408180941030381,1.702309382944554
1783174385312259300,3.48525927734375,0.8651151930898427,1.0923377024419605,1.5719383513212204
1783174385322327300,3.495327392578125,0.7015010864257812,1.0663169798702001,1.4751312972560524
1783174385332396300,3.505396240234375,0.4552075275093317,1.0155272883534432,1.3440508021891115
1783174385342464500,3.515464599609375,0.2860287724554539,1.028013552699983,1.2012513008210808
1783174385352533200,3.525533203125,0.12683715840876103,1.0544114380210639,1.1337350039742886
1783174385362602500,3.5356025390625,-0.06591302636861801,1.075756131605804,1.149216504614055
1783174385372670500,3.54567041015625,-0.09440028518438338,1.0891408060967922,1.2527705487214027
1783174385382739200,3.5557392578125,-0.06679273181259632,1.083542986089736,1.3880593091331421
1783174385392807400,3.565807373046875,-0.003889408653974533,1.1285776212111114,1.5141130620792507
1783174385402876400,3.57587646484375,0.14842822797000407,1.1755037691675125,1.5390060957953333
1783174385412945200,3.585945068359375,0.40087271073162556,1.1843548918820916,1.4959952215865253
1783174385423013400,3.596013427734375,0.6686573859661817,1.1009161456950007,1.5133324330955742
1783174385433082400,3.606082275390625,0.9052075495034456,0.9840696354247629,1.5151295456454157
1783174385443150300,3.616150390625,0.9121680361658334,0.8800928358606994,1.5083128513678907
1783174385453219300,3.62621923828125,0.7662234417051076,0.8524703771807253,1.54946582275033
1783174385463287300,3.636287353515625,0.7885328886687755,0.9071427553497254,1.6008273228056729
1783174385473356500,3.6463564453125,0.8692039237082004,0.9877907017745077,1.6557829018302261
1783174385483425300,3.65642529296875,0.908906988543272,1.0769223989062011,1.6775395372167228
1783174385493493200,3.6664931640625,0.9654027827471494,1.061625022661686,1.7327036444254218
1783174385503562500,3.6765625,1.033319550153613,0.9774274209313094,1.7347465484298765
1783174385513630500,3.68663037109375,0.9844628725260496,0.8606647895522415,1.712080981504917
1783174385523699200,3.69669921875,0.7750637507647276,0.7512064898371696,1.6268568132057786
1783174385533768400,3.7067685546875,0.6222054313927888,0.7142503856226802,1.5880740780860185
1783174385543836400,3.71683642578125,0.5161392583340406,0.6426413395695388,1.5974980322524903
1783174385553905400,3.726905517578125,0.3299491627246141,0.5703590704299509,1.6693384028434752
1783174385563973400,3.736973388671875,0.155703771930933,0.5544429777652025,1.7031306361995637
1783174385574042400,3.74704248046875,-0.053014381828904146,0.5230617510735989,1.7381369215205311
1783174385584110600,3.757110595703125,-0.39034371793270106,0.4459874253518879,1.7834402905806899
1783174385594179300,3.767179443359375,-0.8522913673520087,0.44019525181651115,1.7265344542711971
1783174385604248300,3.777248291015625,-1.2885147929280996,0.5617012783303856,1.6388041483700275
1783174385614316500,3.787316650390625,-1.4598381587952374,0.7653979506663978,1.5961816889569163
1783174385624385300,3.79738525390625,-1.408973063954711,0.8194007590107619,1.5428329606071114
1783174385634453200,3.807453369140625,-1.248569151508808,0.7940716719649732,1.4020792127877473
1783174385644522500,3.8175224609375,-1.039015131446719,0.6608551877826452,1.2569289835751056
1783174385654591200,3.82759130859375,-0.8747925374954938,0.48303106171935795,1.1387383652195333
1783174385664659200,3.8376591796875,-0.7715320695072412,0.37502018433362244,0.9981918304100632
1783174385674728400,3.847728515625,-0.6985860757619142,0.36771161488592624,0.965008961123973
1783174385684796400,3.85779638671875,-0.6060200202673673,0.3411426107816398,1.0446397663954645
1783174385694865400,3.867865478515625,-0.6667530136495828,0.32567923032045365,1.186795197706297
1783174385704933400,3.877933349609375,-0.9492746547669172,0.36563305504620075,1.3158593114495276
1783174385715002400,3.88800244140625,-1.3835241499215363,0.49200361885651944,1.3795762890785932
1783174385725071400,3.8980712890625,-1.7674094854950904,0.7055678974732756,1.392304399356991
1783174385735139300,3.908139404296875,-1.9018635486483573,0.9232827198982239,1.3143731645449994
1783174385745208300,3.918208251953125,-1.7929226969361305,1.0393290197014808,1.218007789832726
1783174385755276500,3.928276611328125,-1.6222113254874944,1.136962733849138,1.1924725857555865
1783174385765345300,3.93834521484375,-1.4289981993734835,1.2839547915361822,1.1823524660184979
1783174385775414500,3.94841455078125,-1.2999527172654866,1.462005127570778,1.2240651171103119
1783174385785482500,3.958482421875,-1.2464736405342816,1.6270670949555932,1.2058848789058625
1783174385795551200,3.96855126953125,-1.1195143170505761,1.7683888519212603,1.1790297513365744
1783174385805619500,3.978619384765625,-0.9043336892783641,1.8907294295631347,1.1338073385581373
1783174385815688400,3.9886884765625,-0.5263759901881218,1.9713189237989484,1.0214325668744741
1783174385825756400,3.99875634765625,-0.08075286810398101,2.0804311865553258,0.9171114108521491
1783174385835825400,4.008825439453125,0.15758184076249598,2.1499675179876387,0.8625334329683333
1783174385845894400,4.018894287109375,0.28041677779257296,2.178426135230809,0.798781530156359
1783174385855962400,4.02896240234375,0.3814467102497816,2.1307227192915974,0.7205652678579092
1783174385866031400,4.03903125,0.45686172445714474,2.02998913943246,0.6457739385068416
1783174385876099300,4.049099365234375,0.4553671019852161,1.824408845306933,0.6468430290430783
1783174385886168600,4.05916845703125,0.44973172644674775,1.6498758697435258,0.6489416087575256
1783174385896237300,4.0692373046875,0.45339667869508266,1.511985256270319,0.6718118314091116
1783174385906305300,4.07930517578125,0.38454292269945145,1.4353691957101224,0.7399173263207077
1783174385916374500,4.08937451171875,0.20553777015805244,1.3662746166959405,0.8493691962949931
1783174385926442500,4.0994423828125,0.009344166928529738,1.3574166258491576,0.9862089855410158
1783174385936511200,4.10951123046875,-0.05854454342722892,1.4137990228064357,1.142429255626723
1783174385946579500,4.119579345703125,-0.07015490172207355,1.4788001950271428,1.299396252426505
1783174385956648400,4.1296484375,-0.12505787377655506,1.4752229210622607,1.3267214817255735
1783174385966717400,4.139717529296875,-0.12089315531253814,1.4178028516203165,1.2331973948538302
1783174385976785400,4.149785400390625,-0.05835282024741172,1.3167184124968945,1.1373188538104295
1783174385986854400,4.1598544921875,-0.01667348690330982,1.2194323427431284,1.036735349946469
1783174385996922400,4.16992236328125,-0.08936053745150566,1.2057198976024985,0.9975551399417221
1783174386006991400,4.179991455078125,-0.2585328627645969,1.2225623113319277,1.0673453000046311
1783174386017060400,4.190060302734375,-0.37869068953990936,1.3184402678534388,1.043788044936955
1783174386027128600,4.200128662109375,-0.4401666102439165,1.352243168734014,0.9761322665542363
1783174386037197300,4.210197265625,-0.4544511561840772,1.272611121353507,0.846078118860349
1783174386047265300,4.220265380859375,-0.38104339014589783,1.2081240361347794,0.6726814538504928
1783174386057334500,4.23033447265625,-0.3601449790239334,1.178952594447136,0.5254259959869086
1783174386067402200,4.24040234375,-0.3961345762938261,1.2007820028088987,0.4464415257949382
1783174386077471500,4.250471435546875,-0.4916273328900337,1.2115128017902375,0.5457577862020582
1783174386087540500,4.26054052734375,-0.6874994490802288,1.3052866256393492,0.6466619003225118
1783174386097608400,4.2706083984375,-0.8113117067098617,1.3926638803191482,0.6659297145679592
1783174386107677400,4.280677490234375,-0.7385755563229321,1.3676383062645792,0.6148688048943877
1783174386117745400,4.290745361328125,-0.5163087696820498,1.3579866808220744,0.5290886101476848
1783174386127814400,4.300814453125,-0.18973697443604468,1.3284919985294341,0.45043775582425294
1783174386137883400,4.31088330078125,0.04771276828944683,1.3159184942908584,0.4225318770930171
1783174386147951400,4.320951416015625,0.13635668190419672,1.2317315600849688,0.43699616351425646
1783174386158020600,4.3310205078125,0.08451602002978324,1.1928273905426263,0.5185107367057353
1783174386168088300,4.34108837890625,0.13616086707115171,1.2179068867415188,0.5448198477648198
1783174386178157300,4.3511572265625,0.2750041050940752,1.1952763911299407,0.5495956838645041
1783174386188225300,4.361225341796875,0.449132591509819,1.1464337420277297,0.5653409500069916
1783174386198294500,4.37129443359375,0.6208329739958047,1.114125755880028,0.490046712635085
1783174386208363300,4.38136328125,0.7187012275516986,1.1051036605127156,0.5313266713980584
1783174386218431500,4.391431396484375,0.626757687869668,1.1064124050237238,0.655731415028125
1783174386228500500,4.40150048828125,0.46460605497360224,1.0962499074496328,0.7353182350274174
1783174386238568200,4.411568115234375,0.44615562152564525,1.0684981233015656,0.8084275295756757
1783174386248637400,4.421637451171875,0.50633039650321,1.022040761900693,0.836682587070763
1783174386258706400,4.43170654296875,0.4988303961366415,0.9357929496422409,0.8808570982314645
1783174386268774100,4.441774169921875,0.4177268148988485,0.9349519687734543,0.8930163225807249
1783174386278843400,4.451843505859375,0.2224871513932943,0.9909739349205047,0.8991783523418009
1783174386288911400,4.461911376953125,-0.03397533483803272,1.0054976233787833,0.9822710615701973
1783174386298980400,4.47198046875,-0.2710591668605804,0.9864164908118546,1.0016047075934706
1783174386309048600,4.482048583984375,-0.4859148004621267,0.9747586401134729,1.0612387998230755
1783174386319117800,4.492117919921875,-0.620144407209754,0.9663367756616323,1.0750516365982592
1783174386329186600,4.5021865234375,-0.6075327629178762,0.9864424289707094,1.1539452867016196
1783174386339254500,4.512254638671875,-0.5083756385952234,1.034620257488638,1.2754574506953358
1783174386349323800,4.52232373046875,-0.4304793289661407,1.1240330365840345,1.4483717390157282
1783174386359391700,4.532391845703125,-0.27862580272257326,1.231069735175371,1.5983534800380468
1783174386369460700,4.542460693359375,-0.0651683454811573,1.1967428834859282,1.645409245723486
1783174386379528700,4.55252880859375,0.01818330694437027,0.9713900404632091,1.5673822954520582
1783174386389597700,4.56259765625,0.08668459624052047,0.7491978534284979,1.4512548932366072
1783174386399666700,4.572666748046875,0.23260230269432067,0.5176742128163576,1.3732342265754938
1783174386409734700,4.582734619140625,0.3530547285020351,0.3253468565609306,1.357245214805007
1783174386419803600,4.5928037109375,0.43576282232701774,0.1669149748403579,1.3394194891266524
1783174386429871900,4.602871826171875,0.43748307024836536,0.03603416706398129,1.200436258111149
1783174386439940600,4.612940673828125,0.3183066557258367,-0.10659151210710406,1.0337539229828863
1783174386450009900,4.623009765625,0.07937339644432068,-0.25980770500600336,0.8304340480700134
1783174386460077800,4.633077880859375,-0.17086685427129267,-0.3480644459340721,0.685104370637238
1783174386470146600,4.643146484375,-0.25801672993600366,-0.38717926255241036,0.7138003037676215
1783174386480214500,4.653214599609375,-0.40228374657332894,-0.46419192121475933,0.8139234966434538
1783174386490283800,4.66328369140625,-0.578482025000453,-0.4744896625410765,0.8922903463937342
1783174386500352500,4.6733525390625,-0.7667161936581134,-0.5066096518360078,0.9086643388938158
1783174386510420700,4.683420654296875,-0.8644213656067847,-0.602964212893322,0.8993647417593746
1783174386520489700,4.69348974609375,-0.8148685224086045,-0.6704824094362557,0.9022025224685668
1783174386530557700,4.7035576171875,-0.7535118441700935,-0.6464480383761226,0.9495876662388444
1783174386540626700,4.713626708984375,-0.8026298030823469,-0.5495460725691169,1.0658344570502638
1783174386550694700,4.723694580078125,-0.8603829038709402,-0.3735812375716865,1.2219665373958646
1783174386560763600,4.733763671875,-1.000230935022235,-0.16545440076850354,1.4224902787841855
1783174386570832600,4.74383251953125,-1.2352502357304096,-0.03478877011276781,1.423677442742139
1783174386580900600,4.753900634765625,-1.271195409336686,-0.0015888766266405582,1.285272742266953
1783174386590969900,4.763969970703125,-0.9734031338512897,-0.015210355548188089,1.0788034634124486
1783174386601037800,4.774037841796875,-0.39245851812958715,-0.13491050168387592,0.8425824587643146
1783174386611106600,4.7841064453125,0.2538976041793823,-0.30441826949641104,0.6606520664259791
1783174386621175800,4.79417578125,0.6984060430198907,-0.413550113736093,0.5465842636214568
1783174386631243800,4.804243896484375,0.8693126447796821,-0.44353177582807835,0.4683398712070658
1783174386641312500,4.8143125,0.8634943138897418,-0.3629401627004146,0.5075316985843703
1783174386651380700,4.824380615234375,0.7702186488211155,-0.21544468553587792,0.5907390837009996
1783174386661449700,4.83444970703125,0.7689893992871045,-0.1343365742534399,0.6851960675086826
1783174386671517700,4.844517578125,0.6878039849847555,-0.07360518830642104,0.7472242152679711
1783174386681586700,4.854586669921875,0.582004938429594,-0.011585223853588103,0.7387238787524402
1783174386691655700,4.86465576171875,0.5382628273367881,-0.05805347197465598,0.608827844229713
1783174386701724000,4.874723876953125,0.5347054271161555,-0.16573869760259985,0.4193061199795454
1783174386711792600,4.884792724609375,0.4990782334178686,-0.28333149619549514,0.19017945750653742
1783174386721860600,4.894860595703125,0.34509763201773164,-0.3621127719655633,0.010716715657059103
1783174386731929900,4.904929931640625,0.18440087410509584,-0.355380541101098,-0.10959829270765185
1783174386741998600,4.91499853515625,0.04166062864363193,-0.37215047411620616,-0.16851956049278377
1783174386752066600,4.925066650390625,-0.06035246963202953,-0.34180984251871704,-0.19045772645864634
1783174386762135800,4.9351357421875,-0.16031623416244983,-0.30706849174425005,-0.167044629102014
1783174386772203800,4.945203857421875,-0.2953735239058733,-0.2591673612758517,-0.07286357615888119
1783174386782272800,4.955272705078125,-0.3298889569699764,-0.22303601744771,0.02822890014052391
1783174386792340700,4.9653408203125,-0.377693495196104,-0.2300236843779683,0.06921327349040657
1783174386802409700,4.97540966796875,-0.39445758299231526,-0.21184446908682583,0.1354146883463487
1783174386812478700,4.985478759765625,-0.2471358549594879,-0.21432181898579,0.17183653955366462
1783174386822546700,4.995546630859375,-0.013616437420248985,-0.23916969838589427,0.21258388927727936
1783174386832615700,5.00561572265625,0.17053367679417133,-0.2808671519085765,0.3193649691397324
1783174386842684000,5.015683837890625,0.2973193972766399,-0.21225217310488223,0.44862836831472813
1783174386852752600,5.025752685546875,0.3701443949908018,-0.11518632197305559,0.5708909122843295
1783174386862822000,5.03582177734375,0.4119651826322078,-0.07813289486393332,0.6554789746370167
1783174386872889900,5.045889892578125,0.4959621472239494,-0.09890300343111157,0.6102007400181144
1783174386882958600,5.05595849609375,0.6940735667735338,-0.21586751405782997,0.48588864310756325
1783174386893026800,5.06602685546875,0.8181991281360387,-0.38613362595699724,0.3959887380823493
1783174386903095800,5.076095703125,0.635661125293374,-0.533818707409501,0.29586455882582813
1783174386913163800,5.086163818359375,0.21177228063344955,-0.5315986932724714,0.2850931903720833
1783174386923232800,5.096232666015625,-0.2877466822892427,-0.4590118882283568,0.26796779498280954
1783174386933301800,5.1063017578125,-0.5938853458374739,-0.3960647259280085,0.2822316817274317
1783174386943369700,5.11636962890625,-0.7741454668760299,-0.3606939181435853,0.22448164967875928
1783174386953438700,5.126438720703125,-0.9127601568400859,-0.37723603375218806,0.08058532951734959
1783174386963506700,5.136506591796875,-1.1077946531623601,-0.4545420493379235,-0.09288779826220124
1783174386973576000,5.146575927734375,-1.2648849110156297,-0.5305431928701698,-0.24459055439084768
1783174386983644700,5.156644775390625,-1.3444500306397675,-0.5264391185522079,-0.25060320227649063
1783174386993712600,5.166712646484375,-1.4199848718345165,-0.4452610838387161,-0.22784224868565797
1783174387003782000,5.176781982421875,-1.4473954413294792,-0.3447204692684114,-0.27066118051894006
1783174387013849900,5.186849853515625,-1.470254923391342,-0.23381482028923928,-0.22612090478576718
1783174387023918600,5.196918701171875,-1.3812836775183677,-0.05011332662515342,-0.18193276695851235
1783174387033986800,5.20698681640625,-1.186277822768688,0.19453860256411135,-0.11916308011692017
1783174387044055800,5.217055908203125,-0.9699883569717407,0.3768629626560956,-0.11171886505819857
1783174387054124800,5.227124755859375,-0.7949567842364311,0.48110908068083225,-0.20124237451907245
1783174387064192800,5.23719287109375,-0.5998404548496008,0.4974826347894966,-0.2844290091086179
1783174387074261800,5.24726171875,-0.33763036487698556,0.503030989631638,-0.3913832535808906
1783174387084329700,5.257329833984375,-0.025416765329241753,0.5641473563082516,-0.4150481337415054
1783174387094398700,5.267398681640625,0.2722977687448263,0.6592910072058439,-0.4738946923226118
1783174387104467700,5.2774677734375,0.6015437516361475,0.7320917472615838,-0.5374535567805171
1783174387114536000,5.287535888671875,0.8264210130363703,0.7906214584458618,-0.5260314875993878
1783174387124604700,5.297604736328125,0.869389217147231,0.8318112547073513,-0.565056214781478
1783174387134672600,5.307672607421875,0.8468576518654822,0.8512937346167861,-0.5906508208956569
1783174387144742000,5.317741943359375,0.8169330537229776,0.801419623574987,-0.6130183547221124
1783174387154809600,5.3278095703125,0.7800719343155622,0.7324930215388537,-0.5963707694450393
1783174387164878600,5.337878662109375,0.6799351513057946,0.6775169842481613,-0.6281548413164914
1783174387174947800,5.34794775390625,0.5148094710350036,0.6278317468419671,-0.637826486633718
1783174387185015600,5.358015625,0.33010873720049855,0.6398651528544723,-0.5850078465726226
1783174387195084800,5.368084716796875,0.13462708163261414,0.6573806435398757,-0.5374518397474661
1783174387205152800,5.37815283203125,0.046833062845468516,0.655434039516747,-0.4971313006011769
1783174387215221800,5.3882216796875,-0.013280337333679199,0.5691768749080598,-0.5405344255305826
1783174387225290800,5.398290771484375,-0.049203299108147615,0.4506624314256012,-0.6589073416505008
1783174387235358700,5.408358642578125,0.006119944185018539,0.3591992226064205,-0.8200937097109854
1783174387245427700,5.418427734375,0.05478665219843387,0.21971549472287297,-0.9183889565072954
1783174387255495700,5.42849560546875,-0.012374328404664993,0.05663096489086747,-0.947442617034167
1783174387265564700,5.438564697265625,0.08586334298551082,0.04886866032630205,-0.9749320969842373
1783174387275632600,5.448632568359375,0.24926877533495426,0.06439838402196764,-0.8893421641126275
1783174387285701600,5.45870166015625,0.40625381924808024,0.06474515163302422,-0.7710515194486827
1783174387295770600,5.4687705078125,0.5746621744513511,0.048880643025040624,-0.7808905572220682
1783174387305838800,5.4788388671875,0.6455161643534898,-0.008616583306342364,-0.7876967301055788
1783174387315907600,5.488907470703125,0.6871288622021675,-0.0655247577033937,-0.7694128853961825
1783174387325975300,5.498975341796875,0.6513929474323987,-0.12351590503156185,-0.7410514449171721
1783174387336044500,5.50904443359375,0.5315647910028696,-0.1675239735841751,-0.7205569384209811
1783174387346113500,5.519113525390625,0.42721477421224113,-0.17938816050961612,-0.6702037386253475
1783174387356181500,5.529181396484375,0.4273562285095453,-0.17896788927093146,-0.5519480922095478
1783174387366250500,5.53925048828125,0.3891623991936445,-0.19020064642503856,-0.5387301160549745
1783174387376318500,5.549318359375,0.32974341101944443,-0.223380154710263,-0.6295103475786745
1783174387386387500,5.559387451171875,0.41878830665051936,-0.35207258559688925,-0.7563300433959812
1783174387396455400,5.569455322265625,0.6196534088224173,-0.6013825697250664,-0.8740339742131531
1783174387406524400,5.5795244140625,0.8170201474845409,-0.8150904945962131,-0.8807270421110093
1783174387416593700,5.58959375,0.8995154753416776,-0.9046950699366628,-0.7670138614304364
1783174387426661400,5.599661376953125,0.9314303705185651,-0.86073288635239,-0.6128637486822903
1783174387436730400,5.60973046875,0.8604524619758128,-0.8327851412408054,-0.49637036269865925
1783174387446798600,5.619798583984375,0.6875561477035284,-0.8210266066469252,-0.37972346665374934
1783174387456867600,5.62986767578125,0.5499877519220113,-0.8523349142327904,-0.2782501743432134
1783174387466936300,5.639936279296875,0.5903419741421938,-0.9096795803509652,-0.182145441594813
1783174387477004500,5.650004638671875,0.664646981281042,-0.9453197796612978,-0.04809115488147363
1783174387487073500,5.660073486328125,0.572418779438734,-0.9219861042164266,0.06547061636336148
1783174387497141200,5.670141357421875,0.37125849371254444,-0.8964790302552282,0.019932032041531055
1783174387507210500,5.68021044921875,0.15857202084362507,-0.9858414674028754,-0.04512446882929653
1783174387517278500,5.690278564453125,0.05221592492759228,-1.1532755707465112,-0.13356215581484138
1783174387527347500,5.700347412109375,0.049258828687667844,-1.3061416350334882,-0.21619703827314077
1783174387537416400,5.71041650390625,0.015607903498411178,-1.357906455192715,-0.2680218815239146
1783174387547484400,5.720484375,-0.08440320730507374,-1.3628158545441924,-0.2767157130512409
1783174387557553400,5.730553466796875,-0.2853933971613645,-1.3638091033652424,-0.2663036428965628
1783174387567621400,5.740621337890625,-0.6110182669460773,-1.3436850376166403,-0.20413963033054022
1783174387577690400,5.7506904296875,-0.8973767097473144,-1.3214363809294998,-0.14091812633452935
1783174387587759600,5.760759521484375,-0.9477771096855402,-1.337682728461921,-0.0838139544413425
1783174387597827300,5.770827392578125,-0.771730222427845,-1.3262841132216154,-0.05794186482634395
1783174387607896600,5.780896484375,-0.489894225487113,-1.293729458836466,-0.04378779513174668
1783174387617964500,5.790964599609375,-0.4045025916665792,-1.2522680060267448,-0.007486337167397141
1783174387628033300,5.801033203125,-0.44726738215982914,-1.17760658666566,0.06914439123896882
1783174387638102500,5.8111025390625,-0.5607499689549207,-1.0889988403428346,0.1639221314336173
1783174387648170500,5.82117041015625,-0.807094381275773,-0.9725367262803017,0.23085432651583104
1783174387658239500,5.831239501953125,-1.2154764447242021,-0.8206413336563855,0.24996989107532425
1783174387668307500,5.841307373046875,-1.6319629041731356,-0.6675500823114067,0.33661369864773005
1783174387678376400,5.85137646484375,-2.005096544107795,-0.42016142163462933,0.4696723984524607
1783174387688444400,5.8614443359375,-2.222753206604719,-0.08832754114195704,0.6478685726985335
1783174387698513400,5.871513427734375,-2.3143653223752976,0.2866888437993824,0.7770113777011632
1783174387708582400,5.88158251953125,-2.3343004414230584,0.5581558608084917,0.7347543175343424
1783174387718650600,5.891650634765625,-2.101986892542243,0.6559360707547516,0.6330621217761189
1783174387728719400,5.90171923828125,-1.68643157646358,0.5363751869592815,0.5628061342997476
1783174387738787300,5.911787353515625,-1.2376777551382778,0.3903470789335668,0.5272109431749209
1783174387748856600,5.921856689453125,-1.0119996987491846,0.44761005811765786,0.6122541288839652
1783174387758925300,5.93192529296875,-0.8260106786698103,0.7212249008104205,0.67993909682855
1783174387768993300,5.9419931640625,-0.4534551308840513,0.9026331689707935,0.7762268031947315
1783174387779062500,5.9520625,-0.10367547852993012,0.9065661975707858,0.8307727054398506
1783174387789130500,5.962130615234375,0.2171019512236118,0.8919201248418539,0.7604719655063003
1783174387799199500,5.972199462890625,0.5803174237340688,0.8100676979981363,0.6655734484761953
1783174387809267500,5.982267333984375,0.8645119664996862,0.7356360688049346,0.5668831379476934
1783174387819336400,5.99233642578125,1.0031459456861018,0.6788219293668866,0.4719011438852176
1783174387829405400,6.002405517578125,1.112319437110424,0.6647166855163872,0.43923093682900066
1783174387839473400,6.012473388671875,1.1625935803204774,0.6724720488835125,0.44305436757467687
1783174387849542400,6.02254248046875,1.0689590188115834,0.6982897231638431,0.4851620458660647
1783174387859610600,6.032610595703125,0.9011889615118504,0.690472765802592,0.41640871803760526
1783174387869679400,6.042679443359375,0.6927665758281946,0.5710374080829322,0.3127371484978124
1783174387879748400,6.052748291015625,0.5504150374233723,0.4193216828748584,0.2506309670662507
1783174387889816600,6.062816650390625,0.4577057740658521,0.27294220412820575,0.1961072035877034
1783174387899885300,6.07288525390625,0.3562631691545248,0.17310776506587863,0.14725202379748226
1783174387909953300,6.082953369140625,0.3026584202170372,0.08781228509619832,0.2076661970214918
1783174387920022500,6.0930224609375,0.2258598426967859,0.027841362127661702,0.34183585374280806
1783174387930090500,6.103090576171875,0.11306056199073791,0.11225114530399441,0.6210374835919589
1783174387940159500,6.113159423828125,0.08964812222123146,0.311014891282469,0.8963250087372958
1783174387950228500,6.123228515625,0.21706804895401,0.44704891710355876,1.1052283828709273
1783174387960296400,6.13329638671875,0.4064584019094705,0.42985184471756216,1.2240338451892137
1783174387970365400,6.143365478515625,0.5959767651587724,0.33866073083803055,1.1933844399034976
1783174387980433400,6.153433349609375,0.7434796949774026,0.18573592210114,1.1032617589730769
1783174387990502400,6.16350244140625,0.8666115691274404,0.0031141864977777003,0.9870440481256693
1783174388000571400,6.1735712890625,0.9672919574946165,-0.1655244703300297,0.8414622956279665
1783174388010639400,6.183639404296875,0.9475888936370611,-0.17345029489323496,0.7660559031184763
1783174388020708600,6.19370849609375,0.8196493269443511,-0.10075184616819023,0.7856579908195882
1783174388030776600,6.203776611328125,0.7628267850041389,-0.00830824800953269,0.8201028428655117
1783174388040845300,6.21384521484375,0.8381348317056894,-0.04952843940928578,0.8149399802096188
1783174388050913500,6.22391357421875,0.8968985708415508,-0.15328472809046506,0.7203690146334469
1783174388060982500,6.233982421875,0.9478039976924657,-0.18511925150752068,0.6649145461760461
1783174388071051300,6.24405126953125,1.0259119042456148,-0.12777663121595978,0.6851149650964885
1783174388081119500,6.254119384765625,1.0919698920428753,-0.029734190136939287,0.7569226755268871
1783174388091188500,6.2641884765625,1.0846563541591168,0.011345862139761447,0.8121396089013665
1783174388101256400,6.27425634765625,0.9988614002346992,0.07992021667212247,0.8196008116275072
1783174388111325400,6.284325439453125,0.9826537772774696,0.13642346353009344,0.7769597205791622
1783174388121394400,6.29439453125,0.9700573305547237,0.10560630046203733,0.7240131432894616
1783174388131462700,6.304462646484375,0.9646586863815784,0.08236731756329536,0.694393884769082
1783174388141531400,6.314531494140625,0.9750590843647717,0.037165655311942096,0.6214531517207622
1783174388151599400,6.324599365234375,0.9134592450201511,0.004818652328103781,0.5008406034478917
1783174388161668600,6.334668701171875,0.7645762590199708,-0.07360533443689346,0.4009118006329983
1783174388171736600,6.344736572265625,0.5983183598488568,-0.15889058527350425,0.3742285224992782
1783174388181805300,6.354805419921875,0.43962826558351514,-0.16903861593082548,0.35394188660010695
1783174388191874600,6.36487451171875,0.23118775972127914,-0.12953224271163344,0.2882798393178731
1783174388201942500,6.374942626953125,0.09327215793728828,-0.03990077936425805,0.22857823481000958
1783174388212011500,6.385011474609375,-0.008662614405155181,0.027933716586232185,0.1804768325291574
1783174388222079500,6.39507958984375,-0.11205284625291824,-0.0032297757014632224,0.15485584986470638
1783174388232148500,6.4051484375,-0.28728724808394906,-0.08204860700294375,0.13297734166420996
1783174388242217500,6.415217529296875,-0.5392863251656294,-0.09946414444521069,0.19660233016088605
1783174388252285400,6.425285400390625,-0.7394716283798217,-0.09817439689561724,0.24062924954444168
1783174388262354400,6.4353544921875,-0.8767565310448407,-0.05273877975791692,0.32550723475441334
1783174388272422700,6.445422607421875,-0.9702204121619462,-0.07812653818838299,0.3984937797058373
1783174388282491400,6.455491455078125,-1.024651090529561,-0.17467954442724584,0.4161629996482283
1783174388292559400,6.465559326171875,-0.956000163629651,-0.22871830086782574,0.3851717221222818
1783174388302628600,6.475628662109375,-0.8167606197655201,-0.23735081239566205,0.39936208697296677
1783174388312697600,6.485697509765625,-0.7556734061181545,-0.26694464421384034,0.3603429858140647
1783174388322765800,6.495765869140625,-0.8184896355152129,-0.3399728363499045,0.2992802490208298
1783174388332834800,6.505834716796875,-0.9596271219551563,-0.35078444548249244,0.3176656544085592
1783174388342902800,6.51590283203125,-1.2062351536482572,-0.29137999729029834,0.36530323856994507
1783174388352971800,6.5259716796875,-1.6351760210007429,-0.11634667098931968,0.35331681350432337
1783174388363040800,6.536040771484375,-2.225713225454092,0.09267733384929597,0.2514083446469158
1783174388373108700,6.546108642578125,-2.627882990258932,0.24979484503567218,0.21696977621130645
1783174388383177700,6.556177734375,-2.767477923431992,0.3458027115471661,0.22643735032379625
1783174388393245700,6.56624560546875,-2.6354934652626514,0.4276213822517544,0.23987346274107693
1783174388403315000,6.57631494140625,-2.3252958817124365,0.40108284635096786,0.29307386866137386
1783174388413382700,6.586382568359375,-2.1273200712412597,0.35335531888380645,0.2743619347330183
1783174388423451600,6.59645166015625,-1.8800462691158055,0.4651990524306893,0.1499582140162587
1783174388433521000,6.60652099609375,-1.614287546750903,0.5605822111725807,0.021328107776120302
1783174388443588600,6.616588623046875,-1.2988304352372884,0.6234606190856545,-0.09435184293277561
1783174388453657600,6.62665771484375,-0.8803226990938187,0.6668545743279158,-0.2718174744145945
1783174388463725800,6.636725830078125,-0.3736994571238756,0.6302510829433798,-0.4769962020019069
1783174388473794800,6.646794921875,0.18674129975140094,0.5887642764966935,-0.6087753833901137
1783174388483863800,6.65686376953125,0.6050403615802527,0.5677355900585651,-0.7231747927691787
1783174388493931800,6.666931884765625,0.9406821829885244,0.6108640992976725,-0.874719472259283
1783174388504000800,6.677000732421875,1.2343301982760428,0.6582979045152664,-0.9718042472872882
1783174388514068500,6.687068359375,1.4279004672646523,0.6784096222389489,-1.0101150540463626
1783174388524137700,6.6971376953125,1.519901290091872,0.6877974821787327,-1.0510205534737556
1783174388534205700,6.707205810546875,1.4939286444455384,0.638131460929662,-1.1073481515038759
1783174388544274700,6.717274658203125,1.3556103070795535,0.56801316489093,-1.2296085765816271
1783174388554343700,6.72734375,1.1516776340305805,0.44255423603281374,-1.3536039356932044
1783174388564411600,6.73741162109375,0.9015537031710147,0.3226282452519983,-1.3329307116292417
1783174388574481000,6.74748095703125,0.6360369728684425,0.2893161966282874,-1.2177025963410735
1783174388584548600,6.757548583984375,0.3977051866114139,0.3731244337148964,-1.0188302754215897
1783174388594617600,6.76761767578125,0.12207681213915347,0.4741952827043831,-0.7327144092045724
1783174388604686800,6.777686767578125,-0.08965805909335613,0.5405485271211713,-0.49344636501073835
1783174388614754600,6.787754638671875,-0.2082400148540735,0.5399908201731741,-0.3401764691632241
1783174388624823800,6.79782373046875,-0.18535422930717468,0.49414640303887425,-0.27303872330524026
1783174388634891800,6.807891845703125,0.023469722914695738,0.37831140789873896,-0.29122944637108594
1783174388644960800,6.817960693359375,0.3824059106707573,0.1901063922703266,-0.2688072597479448
1783174388655029800,6.82802978515625,0.6990332350075245,-0.011944777880981564,-0.26313149740016084
1783174388665097700,6.83809765625,0.8754092080891132,-0.15704773388579488,-0.2828046958424151
1783174388675166700,6.848166748046875,0.9982231023311614,-0.25327939921580256,-0.32112185927703973
1783174388685234700,6.858234619140625,1.0426754075199365,-0.34578488362953064,-0.3763876367619261
1783174388695303700,6.8683037109375,1.0870312665969133,-0.5283392530851065,-0.4760426276041195
1783174388705371600,6.87837158203125,1.2119821728676556,-0.6893843860439955,-0.5849402612291276
1783174388715440600,6.888440673828125,1.3051847727000712,-0.8590951290827245,-0.693209643420577
1783174388725509600,6.898509521484375,1.3113520631581543,-1.0054239005554466,-0.7284212420552969
1783174388735577900,6.908577880859375,1.220864567503333,-1.1494515554789453,-0.7761691547233611
1783174388745646600,6.918646484375,1.0893377899736165,-1.2779238408088682,-0.8409072920937091
1783174388755714600,6.928714599609375,0.9820289233773947,-1.3878158557660878,-0.9058250238146632
1783174388765783800,6.93878369140625,0.8453022391170263,-1.5013031187362968,-0.9461192594759166
1783174388775852800,6.948852783203125,0.601363718894124,-1.5974151762746274,-0.9452689993221313
1783174388785920500,6.95892041015625,0.29985563775599,-1.621355147049576,-0.8655943549089133
1783174388795989800,6.96898974609375,-0.009233692291378975,-1.550744318253547,-0.6871150528725236
1783174388806057700,6.9790576171875,-0.360123351714015,-1.4319260695189238,-0.4830179830420762
1783174388816126700,6.989126708984375,-0.4606149395108223,-1.3209069502279163,-0.3284384659007191
1783174388826194700,6.999194580078125,-0.2943728224307299,-1.2900028395287693,-0.22530211748247964
1783174388836263700,7.009263671875,-0.023008535143733022,-1.328190385234356,-0.18927467242022974
1783174388846332700,7.019332763671875,0.27804361892044543,-1.4419254854857921,-0.2131699820695445
1783174388856400600,7.029400634765625,0.5168523750394582,-1.5629092416912316,-0.16473828838840127
1783174388866469600,7.0394697265625,0.5312099862158298,-1.5729127493113277,-0.03276400455320254
1783174388876537900,7.049537841796875,0.3680336864471435,-1.4214168043337763,0.08257715178853832
1783174388886606600,7.059606689453125,0.2599824770510197,-1.2212924375265837,0.20158444768870248
1783174388896675800,7.06967578125,0.25198738664388654,-1.096013322214782,0.27092640732638534
1783174388906743800,7.079743896484375,0.2363175238251686,-1.0539833488021044,0.3512354041203856
1783174388916812500,7.0898125,0.148504800337553,-0.9115992963671684,0.36566827249005435
1783174388926880500,7.099880615234375,-0.05076163446605205,-0.7604897203586996,0.31224311790317294
1783174388936949800,7.10994970703125,-0.27642916946113105,-0.6110766460698097,0.289203073376324
1783174388947017700,7.120017822265625,-0.4837479778170585,-0.4994146257653832,0.2898296443094499
1783174388957086700,7.130086669921875,-0.6713689830124377,-0.45559711134880776,0.3136484546564519
1783174388967155700,7.14015576171875,-0.7277987262427806,-0.4035148227382451,0.36471835135407743
1783174388977223700,7.1502236328125,-0.4565881682127714,-0.3105381406161934,0.37727990942653267
1783174388987292700,7.160292724609375,-0.18115093239843844,-0.1754246637061238,0.32325046880356967
1783174388997360600,7.170360595703125,-0.23344050708413122,-0.10056238801069557,0.22170714346412568
1783174389007429600,7.1804296875,-0.6014350305646657,-0.06167794608213007,0.16504687941353768
1783174389017498600,7.19049853515625,-1.3284943366169928,0.0826551215287298,0.198143166394718
1783174389027566600,7.200566650390625,-2.0012638340771196,0.4926446932390332,0.37107480770871043
1783174389037635800,7.2106357421875,-2.2937328687131404,0.8622223211925476,0.5956905320959165
1783174389047703800,7.220703857421875,-2.457788873925805,1.0790743893083183,0.8844861023835837
1783174389057772500,7.2307724609375,-2.592147075489163,1.3309556121639907,1.041724609601125
1783174389067840800,7.2408408203125,-2.682305485320091,1.588281875617802,1.0283752986844628
1783174389077909800,7.25090966796875,-2.4686574739426375,1.7633317146621643,1.0870566932991146
1783174389087978500,7.260978515625,-2.013768510863185,1.7334302051343022,1.2959364673614502
1783174389098046700,7.271046630859375,-1.6067168192356824,1.5885395036406813,1.5075345604717731
1783174389108115700,7.28111572265625,-1.4124328490197657,1.583321038340032,1.5800567758470774
1783174389118183700,7.29118359375,-1.1695745252490044,1.659423596420139,1.570118734678626
1783174389128252700,7.301252685546875,-0.758134243273735,1.6774471827581523,1.5791763397507368
1783174389138321700,7.31132177734375,-0.31475802333354946,1.5855737857028842,1.5790195417538284
1783174389148390000,7.321389892578125,0.059657473105192184,1.496418999956548,1.4878332501798868
1783174389158458600,7.331458740234375,0.5416244127243757,1.4272601235345006,1.4202441072925924
1783174389168526600,7.341526611328125,1.0248568422347306,1.3416007786884903,1.4139248411431908
1783174389178595800,7.351595947265625,1.3489707229346035,1.2240056420080363,1.4610945885971187
1783174389188663800,7.361663818359375,1.5553408522635697,1.1009336813516915,1.4294614329710602
1783174389198732500,7.371732666015625,1.6374129862725735,0.9867692497722804,1.3693988861963151
1783174389208801800,7.3818017578125,1.4732885919988155,0.7947984518695622,1.3177584230691193
1783174389218869800,7.391869873046875,0.9928636211246251,0.610192264450714,1.2037677406214178
1783174389228938800,7.401938720703125,0.5213648840278386,0.5055623347401619,1.1038926772877573
1783174389239006700,7.4120068359375,0.22611469424068925,0.4997047678183764,1.169876284674555
1783174389249075700,7.42207568359375,0.06076689565181732,0.5689893895119428,1.3483403160765766
1783174389259144700,7.432144775390625,-0.012399462845921515,0.648179611409083,1.5292251448847352
1783174389269212700,7.442212646484375,-0.04171265109181404,0.6630529900878668,1.706769431093335
1783174389279281700,7.45228173828125,-0.060652329361438745,0.6127240479506552,1.8132783794835208
1783174389289350000,7.462349853515625,-0.04908697925209999,0.5693878142450004,1.902482118938118
1783174389299418600,7.472418701171875,-0.004541150560975074,0.5492128220267594,2.0066674466863272
1783174389309486000,7.482486083984375,0.11304887155294417,0.5529491590108722,2.0821504115633664
1783174389319555000,7.49255517578125,0.26285306405127046,0.5668966550163924,2.125682240906358
1783174389329624000,7.5026240234375,0.43904841986894605,0.5206357660356908,2.089100815223157
1783174389339692000,7.512692138671875,0.5778203462213277,0.37721981326974924,1.9745584902420639
1783174389349761300,7.52276123046875,0.5774643723905086,0.22107217002883553,1.832015813179314
1783174389359829200,7.532829345703125,0.4814063831269741,0.11849464280344545,1.6979660930432379
1783174389369898000,7.54289794921875,0.3868465234667062,0.03701389881633222,1.6072985646463929
1783174389379966000,7.552966064453125,0.3548153084337711,-0.0263007816221565,1.661247596976906
1783174389390035200,7.56303515625,0.4033703727662563,0.011021379425749182,1.8099968735948204
1783174389400104000,7.57310400390625,0.5757423709034919,0.13492723362296818,1.9269507897622882
1783174389410172200,7.583172119140625,0.6480845535367727,0.14926592090316115,2.0114235551722346
1783174389420241200,7.5932412109375,0.5609592277914285,0.056928632663190364,2.0146954164497552
1783174389430309000,7.60330908203125,0.49679684448242184,-0.009160334794223308,1.984213330554962
1783174389440378000,7.613378173828125,0.46115503773689265,-0.040480698144063354,2.008144095110148
1783174389450447000,7.623447021484375,0.5434978053808212,-0.07153261981606483,2.0420389120578766
1783174389460515000,7.63351513671875,0.6363146207660436,-0.09957878380082547,2.0968561055250463
1783174389470584000,7.643583984375,0.6471651006042957,-0.15218020091466605,2.09647134399116
1783174389480652000,7.653652099609375,0.6084200671464205,-0.19799531888924538,2.0883346531562506
1783174389490721300,7.66372119140625,0.3601911562532186,-0.2464345748223364,2.0806685024425384
1783174389500790000,7.6737900390625,0.1916530371904373,-0.26431941027678546,2.0610174610331655
1783174389510858000,7.68385791015625,0.18905951356589792,-0.32317389643602074,2.03646520357877
1783174389520927200,7.69392724609375,0.11488368576467037,-0.3458514460597187,2.003170836742222
1783174389530995200,7.7039951171875,-0.05095335764586925,-0.3416323670599609,1.9717092382907866
1783174389541064000,7.71406396484375,-0.1783820522069931,-0.35040735579840837,1.9464277897790072
1783174389551132200,7.724132080078125,-0.21750877845883368,-0.37397717808671294,1.9830518855601549
1783174389561201200,7.734201171875,-0.3203133193731308,-0.4179798398118466,1.9849615185737608
1783174389571270100,7.744270263671875,-0.49080724867880343,-0.4672095154702663,1.971024909288436
1783174389581338000,7.754338134765625,-0.5798083051681518,-0.599367795836553,1.9864163935571908
1783174389591407000,7.764406982421875,-0.6279337459117174,-0.7411974292591214,2.0432459497600792
1783174389601475300,7.774475341796875,-0.6240437527358531,-0.8345615032635628,2.1481382567338643
1783174389611544000,7.7845439453125,-0.7530681920558214,-0.883561900210753,2.284093518230319
1783174389621612000,7.794612060546875,-1.0391636000066995,-0.8904631309665739,2.393398234818876
1783174389631681300,7.804681396484375,-1.2768565038383006,-0.7670974480606615,2.474193188498914
1783174389641750000,7.81475,-1.3197668402820826,-0.6289774097457528,2.596668352305889
1783174389651818000,7.82481787109375,-1.2903297333955763,-0.4912696054935455,2.672997558748722
1783174389661887200,7.83488720703125,-1.334130296677351,-0.2888356465697288,2.6501483058199287
1783174389671955200,7.844955078125,-1.4699708457529543,-0.1468799025494605,2.442566754874587
1783174389682024200,7.855024169921875,-1.5665204179257153,-0.04941489603221416,2.2080165329828856
1783174389692093200,7.86509326171875,-1.642736227121949,-0.09211758107468486,2.048412538743019
1783174389702161200,7.8751611328125,-1.8167203366309403,-0.04112491433173418,1.9480232422769068
1783174389712230100,7.885230224609375,-1.9938626179099082,0.2200925113417208,1.8893541956871747
1783174389722298000,7.895298095703125,-2.050373025161028,0.4683705951388925,1.8765845843546092
1783174389732367000,7.9053671875,-2.0340122574687003,0.707301224071905,1.8295732423327862
1783174389742435300,7.915435302734375,-1.8187433668911457,0.9546076863579451,1.6826584876656532
1783174389752504000,7.925504150390625,-1.3412199626773595,1.1838092406980694,1.4601231132164596
1783174389762573300,7.9355732421875,-0.8657359553366899,1.2710045629397033,1.1545520934883504
1783174389772641300,7.945641357421875,-0.4059194727271795,1.2315870370477437,0.7667323410753161
1783174389782710000,7.9557099609375,0.05800269163548946,1.1016794582176952,0.45090698077119884
1783174389792778000,7.965778076171875,0.2880582324564457,0.8551464645221829,0.19273020143527536
1783174389802847200,7.97584716796875,0.32924773645699024,0.6822078454781323,0.019958244195021686
1783174389812916000,7.985916015625,0.30132454126477237,0.6403208607327192,-0.022093393060192465
1783174389822984200,7.995984130859375,0.36174539995789523,0.7288460433386266,0.031060872163437305
1783174389833053200,8.00605322265625,0.3649503334790468,0.9358584160938859,0.2587400757744908
1783174389843121200,8.01612109375,0.25563363419175145,1.2152575412765145,0.3934208603557199
1783174389853190100,8.026190185546875,0.18163491652309893,1.527587168419361,0.43944136470928785
1783174389863258000,8.036258056640625,0.08612696235775948,1.8264818521887063,0.5108737390212714
1783174389873327000,8.0463271484375,0.01043430025279522,2.074000276724994,0.5266289420358836
1783174389883396000,8.05639599609375,-0.1866080287605524,2.1560294483751057,0.516651262976788
1783174389893464000,8.066464111328125,-0.5364829581826925,2.1120880153179167,0.4606125283580273
1783174389903533300,8.076533203125,-0.7967746473133563,2.044506763476133,0.42303726933188734
1783174389913601300,8.086601318359374,-0.957508814626932,1.8911011854849755,0.3923610491044819
1783174389923670000,8.096669921875,-1.206515139633417,1.858624857033044,0.3570472322043031
1783174389933739300,8.1067392578125,-1.4553215581536292,1.9865309598475693,0.33326223279535766
1783174389943807200,8.11680712890625,-1.6100889260172844,2.1443115380525586,0.3025207105130888
1783174389953876000,8.1268759765625,-1.5299509749412536,2.28290240874961,0.27088594745183364
1783174389963944200,8.136944091796876,-1.1843816337585449,2.3244953789845106,0.2592025787197053
1783174389974013200,8.14701318359375,-0.6561971328437328,2.190871336914599,0.2359244145880453
1783174389984081200,8.1570810546875,-0.2730266675412655,2.014752553464472,0.13825877093216404
1783174389994150100,8.167150146484374,-0.05669160903692245,1.8902474912650882,0.14375515812505035
1783174390004219100,8.17721923828125,0.14786241078078746,1.9139860942490399,0.2320556651296094
1783174390014287400,8.187287353515625,0.42482817133665085,1.976018625922501,0.3344388022940606
1783174390024356000,8.197356201171875,0.7483534384936094,2.028492325003445,0.40953152574449775
1783174390034424000,8.207424072265624,1.042301313510537,1.9545837698362767,0.4375886129820719
1783174390044493300,8.217493408203126,1.1940472877264021,1.8145133281059562,0.4387835583876818
1783174390054562000,8.22756201171875,1.2028659694761037,1.6894444945439695,0.42324466500487173
1783174390064630000,8.237630126953125,1.1209387968957423,1.6111100857585667,0.5096444529546424
1783174390074699300,8.24769921875,0.9031225599229336,1.56522993972376,0.6174343445334584
1783174390084767000,8.25776708984375,0.6164011290282011,1.5450991519734263,0.7079514316089451
1783174390094836200,8.267836181640625,0.5012918178141117,1.570706179177761,0.7879943248126655
1783174390104904200,8.277904296875,0.5144932446926832,1.5699148826695977,0.8140394511733203
1783174390114973200,8.28797314453125,0.5417910014629364,1.585548505131155,0.8826952734440564
1783174390125042200,8.298042236328126,0.5382032061040402,1.5306465559899807,0.8765026293490081
1783174390135110100,8.308110107421875,0.43925241800844667,1.4229656412109732,0.8591592072948813
1783174390145179100,8.31817919921875,0.27383272322714325,1.3369741418011485,0.8467871439125388
1783174390155247000,8.3282470703125,0.03977145389616489,1.3148508650593458,0.9061763945356011
1783174390165316000,8.338316162109376,-0.17534370742440222,1.4360973638541996,0.9752957426648586
1783174390175385300,8.34838525390625,-0.35679683763980863,1.5368110699690878,1.0673235265642405
1783174390185453000,8.358453125,-0.45726621360480785,1.5413833463206887,1.133479421778023
1783174390195522000,8.36852197265625,-0.38967034871578216,1.651878733998537,1.1703392260111867
1783174390205590300,8.37859033203125,-0.18270985227823255,1.652922982354462,1.2383029012992977
1783174390215659300,8.3886591796875,-0.008184475499391556,1.639681515726447,1.2658660310074685
1783174390225727000,8.39872705078125,0.1329500883311033,1.609347167739272,1.2573292349390686
1783174390235796200,8.408796142578124,0.2365969252884388,1.5519624618716537,1.256745443701744
1783174390245865200,8.418865234375,0.3302203808814287,1.5796762520968912,1.2729824388839304
1783174390255933000,8.428932861328125,0.3259083629012108,1.5888941622972488,1.3326821436956524
1783174390266002200,8.439002197265625,0.2658709505677223,1.619988681001961,1.3372403915219009
1783174390276070100,8.449070068359376,0.15764555364847183,1.669716150114685,1.4199100530326365
1783174390286139100,8.45913916015625,0.027554946401715276,1.7421584321215748,1.5503168866217136
1783174390296208100,8.4692080078125,0.09312778103053569,1.8778775467745958,1.7013576351776718
1783174390306276000,8.479276123046875,0.26800387094318867,1.9727562631256876,1.8846010098107158
1783174390316345300,8.489345458984374,0.36658348763883114,2.073617999409139,2.014155318223685
1783174390326413300,8.499413330078125,0.22777941258251666,2.1114880035981534,2.011254189954698
1783174390336482300,8.509482421875,-0.07657587468028068,2.087069455526024,1.841368747936189
1783174390346550300,8.51955029296875,-0.4799140987426042,2.001541189713776,1.6509408686265348
1783174390356619300,8.529619384765626,-0.7989046450793743,1.8896632616363465,1.4683818229958414
1783174390366688300,8.539688232421875,-1.0298808078765869,1.820528350611776,1.3841288378164172
1783174390376756500,8.549756591796875,-1.1977841361671686,1.8410326478496193,1.3241440324530005
1783174390386825200,8.5598251953125,-1.2952455624878405,1.8635336718626319,1.357786628205329
1783174390396893200,8.56989306640625,-1.4521031806290148,1.8566791297927498,1.3193933307945727
1783174390406962400,8.57996240234375,-1.3859014004468917,1.768264348758757,1.351592011348903
1783174390417031200,8.59003125,-1.0495996538251637,1.7255020424835383,1.4374948095619677
1783174390427099100,8.60009912109375,-0.6119634388417006,1.6329928317427633,1.499591784773767
1783174390437168400,8.61016845703125,-0.26446108376979827,1.5071031833171844,1.6239143300130963
1783174390447236400,8.620236328125,-0.14882044215798376,1.45906892798841,1.6143559358119963
1783174390457305300,8.630305419921875,-0.22362638455629347,1.376293468015641,1.5388281088799238
1783174390467373300,8.640373291015624,-0.3518085278332233,1.2484404105626046,1.5660428635418415
1783174390477442300,8.6504423828125,-0.5590554399967194,1.227216566878557,1.626482719196379
1783174390487511300,8.66051123046875,-0.8219716324120759,1.290415511982888,1.6395507289536297
1783174390497579300,8.670579345703125,-0.9703601128935814,1.3490836817897855,1.6632038456112146
1783174390507648300,8.680648193359374,-0.8929115470319986,1.3309846921280026,1.6637407289668917
1783174390517716500,8.690716552734376,-0.7138707386553287,1.2522720976799726,1.531267025975883
1783174390527785200,8.70078515625,-0.49757542763948437,1.1666617065422236,1.4219713694766163
1783174390537853200,8.710853271484375,-0.25389058991670604,1.1133635393358767,1.3945833040744064
1783174390547922400,8.72092236328125,-0.11789455801844596,1.089113041307032,1.4569856919735669
1783174390557991200,8.7309912109375,-0.05999065058231354,1.1603123375155031,1.5604302843570708
1783174390568059400,8.741059326171875,-0.027331659039855002,1.2496370730012654,1.6273156628891825
1783174390578128400,8.75112841796875,0.03173077078163623,1.2693804688692092,1.6532745722711086
1783174390588196400,8.7611962890625,0.08568389476537704,1.2426577355079351,1.62487703756541
1783174390598265300,8.771265380859376,0.1685913105547428,1.2254102481089533,1.610129404158145
1783174390608334300,8.781334228515625,0.3147761435121298,1.1715331119708716,1.5471135605357587
1783174390618402300,8.79140234375,0.44358489425480363,1.1014647194884717,1.4913938652709127
1783174390628471300,8.80147119140625,0.5416407793372869,1.0040972550615668,1.5175786923632024
1783174390638539300,8.811539306640626,0.6378080741941928,0.9622527942836284,1.547089449007809
1783174390648608500,8.8216083984375,0.6825023714452981,0.9381897816509008,1.5489382917448877
1783174390658676500,8.831676513671875,0.7967781544446945,0.9260394712604582,1.493902487090975
1783174390668745200,8.8417451171875,0.894714212539792,0.8727562093622983,1.4875801522016525
1783174390678814500,8.851814453125,0.8521013977378606,0.7726170882649719,1.462788386902958
1783174390688882400,8.86188232421875,0.6350999842792749,0.7378888892330229,1.3793649844154714
1783174390698951200,8.871951171875,0.4284411011368036,0.6579623889505862,1.2694928432025014
1783174390709019400,8.882019287109374,0.2999678659588098,0.544406444658339,1.1617337486207484
1783174390719088400,8.89208837890625,0.3013338936150074,0.4334988229177892,0.9928117448069155
1783174390729157400,8.902157470703125,0.4382324273109436,0.29348493368029593,0.8471523239631206
1783174390739225300,8.912225341796875,0.5236772526234388,0.1797173924639821,0.7685675206132233
1783174390749294300,8.92229443359375,0.45884266914129257,0.10443243437707424,0.7757087706699967
1783174390759362300,8.9323623046875,0.4008107514113188,0.15937369261533021,0.8184427276335656
1783174390769431300,8.942431396484375,0.38801030654907226,0.25837168085351586,0.8923657497175037
1783174390779499300,8.952499267578125,0.37760873952209945,0.2488626787520945,0.8681444047179072
1783174390789568500,8.962568603515624,0.4112760313242674,0.10404489636421203,0.8249827969267964
1783174390799637200,8.97263720703125,0.46380525998473165,-0.09034048839956521,0.7156463700257242
1783174390809705200,8.982705322265625,0.42596389736831186,-0.2678261762887239,0.6290154036685824
1783174390819774500,8.9927744140625,0.24017186116576195,-0.43149025957435366,0.642795653348416
1783174390829842400,9.002842529296874,-0.09046879095435142,-0.5422050621565431,0.6146021898474544
1783174390839911200,9.0129111328125,-0.31007132682204247,-0.5523094728678465,0.6060344871841371
1783174390849981200,9.022981201171875,-0.3427683122873306,-0.568990120164305,0.6626640638355166
1783174390860049200,9.033049072265625,-0.46200025638937947,-0.5667717865277081,0.7523572673074901
1783174390870118400,9.043118408203124,-0.7819184389650822,-0.5854559556663036,0.7993313460588455
1783174390880186400,9.053186279296876,-1.0753197860151529,-0.6342828957427292,0.8040538445360959
1783174390890255400,9.06325537109375,-1.214180559694767,-0.6654993603266776,0.6568620995584875
1783174390900324400,9.073324462890625,-0.9333961176335811,-0.7545509779594838,0.41778577854447063
1783174390910392300,9.083392333984374,-0.3240332166790962,-0.9577673194326459,0.24295170114263892
1783174390920461300,9.09346142578125,0.30206688406467436,-1.2304349444031715,0.2180925514298491
1783174390930529300,9.103529296875,0.7152414424866438,-1.4295898816563188,0.3482492279164493
1783174390940598300,9.113598388671875,0.8938327535301447,-1.513277926429361,0.21067535224221645
1783174390950667300,9.123667236328124,1.0344909320205449,-1.6842878424331544,0.1796502272455953
1783174390960735200,9.1337353515625,0.49642508856058115,-1.772600332136452,0.1211528291620314
1783174390970804500,9.143804443359375,-0.6337263578385114,-1.6217653352856636,-0.1987678741643205
1783174390980872400,9.15387255859375,-1.7875638002514838,-1.2117759827710688,-0.30108138015866276
1783174390990941200,9.163941162109374,-2.399744096714258,-0.8833432159587741,-0.18871873730421065
1783174391001009200,9.174009033203125,-2.862053565183282,-0.528875551918894,0.03632672026976943
1783174391011078400,9.184078369140625,-2.9835932017058133,-0.04287771281581372,0.31449988385401667
1783174391021147100,9.194147216796875,-2.6835031706720587,0.307117007061094,0.5330596326705068
1783174391031215400,9.20421533203125,-2.193254724919796,0.4781558934310451,0.5977721241429448
1783174391041284400,9.214284423828126,-1.9119898058652878,0.4667457338834181,0.39130079946182666
1783174391051352300,9.224352294921875,-1.822002660948038,0.2947335089692846,0.08963811228387057
1783174391061421300,9.23442138671875,-2.18658883728981,0.15926082509169354,-0.36724640852697193
1783174391071490300,9.244490234375,-2.7110230457603928,0.17700022419346495,-0.7289274380117654
1783174391081558300,9.254558349609376,-2.799573435872793,0.3957742916140705,-0.8262873767193406
1783174391091627300,9.264627197265625,-2.489934070727229,0.5873603279829025,-0.70126084792912
1783174391101695200,9.2746953125,-1.7568465904265642,0.637481326457858,-0.6048633245129138
1783174391111764500,9.284764404296874,-0.8243103044927119,0.6504680876724421,-0.7230961015097797
1783174391121832400,9.29483251953125,0.0047702831417322155,0.6300136209256947,-0.7911370067525655
1783174391131901200,9.304901123046875,0.5427127924829721,0.570781935484521,-0.895587926634401
1783174391141970400,9.314970458984375,0.8998276100307703,0.6022672436051071,-0.9307121392466128
1783174391152038400,9.325038330078126,0.9025240095078945,0.8955486175373196,-0.7278958299417049
1783174391162107100,9.335107177734375,0.8347048572570085,1.2164905171375722,-0.6897746274705976
1783174391172175400,9.34517529296875,0.9572411036014556,1.3552199925877153,-0.8077130976960063
1783174391182244400,9.355244384765625,0.9519172782301902,1.3068335628204046,-0.8863496312331408
1783174391192313300,9.365313232421874,0.7736305030912161,1.2133922588612884,-1.0298097154017538
1783174391202381300,9.37538134765625,0.5577127932161092,1.1275497394680976,-1.2863340878881513
1783174391212450300,9.3854501953125,0.33451837033629417,1.1199885104335845,-1.4437389646485448
1783174391222518500,9.3955185546875,0.417809817007184,1.0527547568552196,-1.4653858560502528
1783174391232587300,9.405587158203126,0.6266238323569298,1.1142539123043418,-1.3677613481223583
1783174391242655200,9.4156552734375,0.7374930217832326,1.3516402344048022,-1.1987450170885772
1783174391252724500,9.425724365234375,0.926134017676115,0.8859330863215029,-0.9262649505794047
1783174391262793200,9.435793212890625,0.613816373232007,1.0898673668056726,-1.2092618810582905
1783174391272861200,9.445861083984376,-0.08078560132980346,1.3053463930025695,-1.4016148101463912
1783174391282930400,9.455930419921875,-0.5992156009495258,1.3780907266959548,-1.2782539495460687
1783174391292998400,9.465998291015625,-0.6225304255634546,1.4900781064972282,-1.4736448580905794
1783174391303067400,9.4760673828125,-0.4350158033519983,1.424827343429625,-1.544741424576938
1783174391313135900,9.486135986328126,-0.2122615254551172,1.259216509990394,-1.5567513035833835
