time,seconds_elapsed,z,y,x
1783174381909077800,0.082077880859375,0.4781971871852875,0.05236406624317169,0.30378538370132446
1783174381919145700,0.092145751953125,0.4527873396873474,0.056311994791030884,0.24632209539413452
1783174381929215000,0.102215087890625,0.42282357811927795,0.048022907227277756,0.18948198854923248
1783174381939283000,0.112282958984375,0.3803115785121918,0.04842548817396164,0.13451527059078217
1783174381949351700,0.1223515625,0.3278408944606781,0.07035821676254272,0.09164556115865707
1783174381959421000,0.1324208984375,0.27960115671157837,0.08614299446344376,0.09053794294595718
1783174381969489000,0.142489013671875,0.2352755069732666,0.08484390377998352,0.14017926156520844
1783174381979557600,0.1525576171875,0.21168337762355804,0.08280754834413528,0.21741116046905518
1783174381989625900,0.1626259765625,0.20195111632347107,0.1033349260687828,0.26444923877716064
1783174381999694800,0.17269482421875,0.20207202434539795,0.15751861035823822,0.2671119272708893
1783174382009763800,0.182763916015625,0.20694534480571747,0.21549935638904572,0.2332298755645752
1783174382019831800,0.192831787109375,0.20388631522655487,0.26113253831863403,0.17136022448539734
1783174382029900800,0.20290087890625,0.18374508619308472,0.29716989398002625,0.1054786816239357
1783174382039968800,0.21296875,0.16051556169986725,0.31865403056144714,0.04432369023561478
1783174382050037800,0.223037841796875,0.14726634323596954,0.302899569272995,-0.0008576354011893272
1783174382060105700,0.233105712890625,0.1294918954372406,0.2464529573917389,-0.007180282846093178
1783174382070175000,0.243175048828125,0.09971988946199417,0.17666588723659515,0.022137392312288284
1783174382080243700,0.25324365234375,0.07066155225038528,0.08704647421836853,0.0725574940443039
1783174382090311700,0.263311767578125,0.06898562610149384,0.006349497940391302,0.10430584102869034
1783174382100381000,0.273380859375,0.07117724418640137,-0.05783203989267349,0.11764439940452576
1783174382110449000,0.283448974609375,0.07572032511234283,-0.07228634506464005,0.09211613237857819
1783174382120517600,0.293517578125,0.07115737348794937,-0.015422403812408447,0.028267938643693924
1783174382130587000,0.3035869140625,0.05481807887554169,0.0784124806523323,-0.02861744724214077
1783174382140654800,0.31365478515625,0.018112853169441223,0.10851343721151352,-0.0586477592587471
1783174382150723800,0.323723876953125,-0.018574321642518044,0.08651146292686462,-0.047174327075481415
1783174382160791800,0.333791748046875,-0.025768660008907318,0.03229725733399391,-0.014549333602190018
1783174382170860800,0.34386083984375,-0.009808600880205631,-0.013548793271183968,0.030168604105710983
1783174382180929800,0.3539296875,0.018943069502711296,0.004545585252344608,0.036402009427547455
1783174382190997800,0.363997802734375,0.05741163343191147,0.0528675802052021,0.014798978343605995
1783174382201066800,0.374066650390625,0.0988253802061081,0.10267987847328186,-0.014193791896104813
1783174382211135000,0.384135009765625,0.1289720982313156,0.15068867802619934,-0.01796216331422329
1783174382221203700,0.39420361328125,0.14619126915931702,0.23172718286514282,0.021159878000617027
1783174382231271700,0.404271728515625,0.14273715019226074,0.2819751799106598,0.0905248373746872
1783174382241341000,0.4143408203125,0.1253066062927246,0.29821258783340454,0.1683165282011032
1783174382251409700,0.42440966796875,0.09252814948558807,0.28626272082328796,0.22410628199577332
1783174382261478000,0.434477783203125,0.06810523569583893,0.2831534743309021,0.23551279306411743
1783174382271547000,0.444546875,0.06740056723356247,0.30737465620040894,0.19386069476604462
1783174382281614800,0.45461474609375,0.08290422707796097,0.34561386704444885,0.13729305565357208
1783174382291683800,0.464683837890625,0.10998697578907013,0.3539000153541565,0.09509288519620895
1783174382301752800,0.4747529296875,0.13976746797561646,0.32887423038482666,0.09431292116641998
1783174382311819800,0.48481982421875,0.17952606081962585,0.3125227093696594,0.12466470152139664
1783174382321889000,0.494888916015625,0.23544573783874512,0.28990626335144043,0.17067140340805054
1783174382331956700,0.504956787109375,0.29476577043533325,0.2452983409166336,0.19522255659103394
1783174382342025700,0.515025634765625,0.33686259388923645,0.17113801836967468,0.19648267328739166
1783174382352095000,0.525094970703125,0.36352962255477905,0.12644432485103607,0.17989011108875275
1783174382362163000,0.535162841796875,0.38326722383499146,0.12038138508796692,0.17203883826732635
1783174382372231700,0.545231689453125,0.37694621086120605,0.131507009267807,0.19687920808792114
1783174382382300000,0.5552998046875,0.3550589084625244,0.12388956546783447,0.2523237466812134
1783174382392369000,0.565368896484375,0.3231313228607178,0.09250793606042862,0.29852133989334106
1783174382402438000,0.57543798828125,0.28079694509506226,0.025391899049282074,0.32051989436149597
1783174382412505900,0.585505859375,0.23874589800834656,-0.1916317492723465,0.20891480147838593
1783174382422574800,0.595574951171875,0.21721963584423065,-0.08999883383512497,0.09184067696332932
1783174382432642800,0.605642822265625,0.23517492413520813,0.11538893729448318,-0.04627938196063042
1783174382442711800,0.6157119140625,0.25242894887924194,0.24993020296096802,-0.11562013626098633
1783174382452779800,0.62577978515625,0.2385150045156479,0.3244372010231018,-0.13424521684646606
1783174382462849000,0.63584912109375,0.2171684354543686,0.3544291853904724,-0.13127978146076202
1783174382472917800,0.645917724609375,0.18400461971759796,0.34641706943511963,-0.12059038877487183
1783174382482985700,0.65598583984375,0.1484389752149582,0.24325920641422272,-0.10671233385801315
1783174382493055000,0.666054931640625,0.12880216538906097,0.09151602536439896,-0.08019710332155228
1783174382503122700,0.676122802734375,0.10806599259376526,-0.07207556813955307,-0.05650722235441208
1783174382513192000,0.68619189453125,0.10451573133468628,-0.2092728465795517,-0.022100243717432022
1783174382523261000,0.696260986328125,0.13452433049678802,-0.26547369360923767,0.015675581991672516
1783174382533329000,0.706328857421875,0.18008090555667877,-0.24333803355693817,0.03981340676546097
1783174382543398000,0.71639794921875,0.222447469830513,-0.18394185602664948,0.05837561562657356
1783174382553465900,0.7264658203125,0.24309895932674408,-0.12950871884822845,0.06351791322231293
1783174382563534800,0.736534912109375,0.24009539186954498,-0.08369254320859909,0.04844342917203903
1783174382573603800,0.746603759765625,0.21067333221435547,-0.03531382605433464,0.011288871057331562
1783174382583671800,0.756671875,0.19320200383663177,0.003331240266561508,-0.03878655657172203
1783174382593741000,0.766740966796875,0.18768152594566345,0.0294475294649601,-0.0791771188378334
1783174382603808800,0.776808837890625,0.19721895456314087,0.033730801194906235,-0.09381560236215591
1783174382613877800,0.786877685546875,0.21813862025737762,0.018154773861169815,-0.06650648266077042
1783174382623946000,0.796946044921875,0.24155376851558685,0.011044497601687908,-0.012662473134696484
1783174382634014700,0.8070146484375,0.2613773047924042,0.030736176297068596,0.06481527537107468
1783174382644083700,0.817083740234375,0.2793334424495697,0.08658236265182495,0.12345627695322037
1783174382654152000,0.82715185546875,0.29479682445526123,0.15020209550857544,0.15804781019687653
1783174382664221000,0.837220947265625,0.3167603313922882,0.1969487965106964,0.14165714383125305
1783174382674288600,0.84728857421875,0.33536863327026367,0.22431036829948425,0.09329279512166977
1783174382684358000,0.85735791015625,0.3603343665599823,0.2294105589389801,0.0373874269425869
1783174382694427000,0.867427001953125,0.3838322162628174,0.22051773965358734,-0.009214164689183235
1783174382704494800,0.877494873046875,0.3852754235267639,0.17316342890262604,-0.038994200527668
1783174382714563800,0.887563720703125,0.36877715587615967,0.09728250652551651,-0.05097043514251709
1783174382724631800,0.8976318359375,0.3483613133430481,0.019574876874685287,-0.046005167067050934
1783174382734700800,0.90770068359375,0.3417082130908966,-0.009604314342141151,-0.021560009568929672
1783174382744769800,0.917769775390625,0.3611125946044922,0.007516033016145229,0.0212070532143116
1783174382754837800,0.927837646484375,0.4020856022834778,0.03344350308179855,0.07477147877216339
1783174382764907000,0.937906982421875,0.4443749785423279,0.06723964214324951,0.11629801988601685
1783174382774974700,0.947974609375,0.48948466777801514,0.10482829809188843,0.1397031992673874
1783174382785044000,0.9580439453125,0.5256347060203552,0.12080068141222,0.1519588977098465
1783174382795112000,0.96811181640625,0.5438459515571594,0.11037120968103409,0.1413336843252182
1783174382805180700,0.9781806640625,0.5452757477760315,0.06375724077224731,0.11983104050159454
1783174382815250000,0.98825,0.5339969992637634,0.01804274506866932,0.09470491856336594
1783174382825318000,0.99831787109375,0.5298789739608765,-0.00764624634757638,0.1135297566652298
1783174382835387000,1.008386962890625,0.5484724044799805,-0.03409569710493088,0.1586351841688156
1783174382845454800,1.018454833984375,0.5774009823799133,-0.04427115619182587,0.21034425497055054
1783174382855523800,1.02852392578125,0.6070635318756104,-0.043599240481853485,0.23443174362182617
1783174382865592800,1.0385927734375,0.6261386871337891,-0.0353117510676384,0.22018836438655853
1783174382875660800,1.048660888671875,0.6366733312606812,-0.01403123140335083,0.17826887965202332
1783174382885729800,1.058729736328125,0.6372503042221069,-0.01825154945254326,0.12201644480228424
1783174382895797800,1.0687978515625,0.6347211003303528,-0.048444341868162155,0.09809432923793793
1783174382905866800,1.07886669921875,0.638828694820404,-0.07247836142778397,0.09698865562677383
1783174382915935700,1.088935791015625,0.6555091142654419,-0.0896080732345581,0.097406767308712
1783174382926004000,1.09900390625,0.6842939853668213,-0.09980565309524536,0.10766339302062988
1783174382936072700,1.10907275390625,0.7075843811035156,-0.10620363056659698,0.12656065821647644
1783174382946140700,1.119140625,0.7180144786834717,-0.1084018349647522,0.14850541949272156
1783174382956210000,1.1292099609375,0.7194222211837769,-0.11335557699203491,0.1533382683992386
1783174382966279000,1.13927880859375,0.7201727032661438,-0.12984232604503632,0.14554493129253387
1783174382976346600,1.1493466796875,0.7206113338470459,-0.18950910866260529,0.09404604882001877
1783174382986415900,1.159415771484375,0.7075573205947876,-0.27922096848487854,0.014478285796940327
1783174382996483800,1.16948388671875,0.6778574585914612,-0.3730444014072418,-0.05558602139353752
1783174383006552800,1.179552734375,0.626997709274292,-0.4728034436702728,-0.11009486019611359
1783174383016620800,1.189620849609375,0.5609989762306213,-0.5609205365180969,-0.12400507926940918
1783174383026689800,1.199689697265625,0.48700329661369324,-0.6368954181671143,-0.09398966282606125
1783174383036758800,1.2097587890625,0.40714094042778015,-0.7067589163780212,-0.07648550719022751
1783174383046826800,1.21982666015625,0.34351322054862976,-0.7328964471817017,-0.09231236577033997
1783174383056895700,1.229895751953125,0.3051415979862213,-0.7139158248901367,-0.13102246820926666
1783174383066964000,1.2399638671875,0.29062971472740173,-0.6314300298690796,-0.13684673607349396
1783174383077032700,1.25003271484375,0.28171080350875854,-0.5011788606643677,-0.10230766981840134
1783174383087102000,1.26010205078125,0.26847293972969055,-0.35152727365493774,-0.04632062464952469
1783174383097170000,1.270169921875,0.24943426251411438,-0.22112798690795898,0.0098526356741786
1783174383107238700,1.28023876953125,0.2194029837846756,-0.1255766749382019,0.07783300429582596
1783174383117307000,1.290306884765625,0.1928858757019043,-0.0470413863658905,0.12834037840366364
1783174383127376000,1.3003759765625,0.1882108449935913,0.028137248009443283,0.14967647194862366
1783174383137443800,1.31044384765625,0.18756236135959625,0.08314909785985947,0.18529678881168365
1783174383147512800,1.320512939453125,0.18767467141151428,0.12392135709524155,0.23064030706882477
1783174383157581800,1.330581787109375,0.19191043078899384,0.15591071546077728,0.27721473574638367
1783174383167649800,1.34064990234375,0.20013155043125153,0.17889215052127838,0.3017297387123108
1783174383177718800,1.35071875,0.19367924332618713,0.19641734659671783,0.31368201971054077
1783174383187786800,1.360786865234375,0.16759879887104034,0.1822018027305603,0.30455151200294495
1783174383197856000,1.37085595703125,0.137099489569664,0.16239534318447113,0.29225248098373413
1783174383207924700,1.3809248046875,0.10216362774372101,0.14399412274360657,0.27037593722343445
1783174383217992700,1.39099267578125,0.05682597681879997,0.11571375280618668,0.2422388345003128
1783174383228062000,1.40106201171875,0.012684238143265247,0.08830733597278595,0.18937593698501587
1783174383238130000,1.4111298828125,-0.030242986977100372,0.06416524946689606,0.11824209243059158
1783174383248198700,1.42119873046875,-0.07289201766252518,0.06664159148931503,0.029395561665296555
1783174383258267000,1.431266845703125,-0.12175116688013077,0.06924190372228622,-0.07300911098718643
1783174383268335900,1.4413359375,-0.16430267691612244,0.06177302449941635,-0.16723842918872833
1783174383278404900,1.45140478515625,-0.19657859206199646,0.0409361869096756,-0.23199105262756348
1783174383288472800,1.461472900390625,-0.22041577100753784,0.008255607448518276,-0.2593911588191986
1783174383298541800,1.471541748046875,-0.22687608003616333,-0.03746793791651726,-0.2669723927974701
1783174383308610300,1.4816103515625,-0.2242114245891571,-0.07825864851474762,-0.22763954102993011
1783174383318679300,1.49167919921875,-0.22374537587165833,-0.07625888288021088,-0.1972278505563736
1783174383328748300,1.501748291015625,-0.24571524560451508,-0.011407709680497646,-0.20293091237545013
1783174383338816300,1.511816162109375,-0.28539687395095825,0.10716713964939117,-0.2482624351978302
1783174383348885200,1.52188525390625,-0.32448628544807434,0.21954397857189178,-0.31705644726753235
1783174383358953200,1.531953125,-0.3501570224761963,0.31612908840179443,-0.37217482924461365
1783174383369022200,1.542022216796875,-0.3522534966468811,0.3914165198802948,-0.3938646614551544
1783174383379091200,1.55209130859375,-0.33625856041908264,0.4413129687309265,-0.3663525879383087
1783174383389159200,1.5621591796875,-0.30566754937171936,0.4556261897087097,-0.3226648271083832
1783174383399228200,1.572228271484375,-0.2643105387687683,0.4418483078479767,-0.2875734269618988
1783174383409296400,1.58229638671875,-0.2211257815361023,0.42454469203948975,-0.2698374092578888
1783174383419365000,1.592365234375,-0.17182853817939758,0.3920237720012665,-0.27145659923553467
1783174383429433000,1.60243310546875,-0.1392415314912796,0.34572353959083557,-0.28211185336112976
1783174383439502300,1.61250244140625,-0.13321080803871155,0.3067377805709839,-0.28564080595970154
1783174383449571000,1.622571044921875,-0.13335129618644714,0.26049569249153137,-0.29434823989868164
1783174383459639300,1.632639404296875,-0.13278217613697052,0.21831709146499634,-0.31506073474884033
1783174383469708300,1.642708251953125,-0.1256980299949646,0.17061030864715576,-0.3327374756336212
1783174383479776300,1.6527763671875,-0.10255622863769531,0.11980146169662476,-0.3160322904586792
1783174383489845200,1.66284521484375,-0.0718691274523735,0.07131023705005646,-0.27391910552978516
1783174383499914200,1.672914306640625,-0.047315310686826706,0.025870313867926598,-0.23880693316459656
1783174383509982200,1.682982177734375,-0.03796674311161041,0.00395111832767725,-0.2228267341852188
1783174383520051200,1.69305126953125,-0.036891091614961624,0.018917284905910492,-0.22094415128231049
1783174383530119200,1.703119140625,-0.05335354804992676,0.07166677713394165,-0.23256519436836243
1783174383540188400,1.7131884765625,-0.07886050641536713,0.12202794849872589,-0.2402513474225998
1783174383550256000,1.723256103515625,-0.11023363471031189,0.1536134034395218,-0.2298881560564041
1783174383560325000,1.7333251953125,-0.1210458055138588,0.17118440568447113,-0.22163395583629608
1783174383570394400,1.743394287109375,-0.10240907967090607,0.16561447083950043,-0.2295977622270584
1783174383580462300,1.75346240234375,-0.0678526982665062,0.152125284075737,-0.2377944439649582
1783174383590531000,1.763531005859375,-0.0237446092069149,0.12539690732955933,-0.24309612810611725
1783174383600599300,1.773599365234375,0.010348379611968994,0.0966387689113617,-0.23935145139694214
1783174383610668300,1.783668212890625,0.03716748207807541,0.0466456264257431,-0.21578770875930786
1783174383620737300,1.7937373046875,0.06912754476070404,-0.004070546478033066,-0.17357712984085083
1783174383630805200,1.80380517578125,0.10044584423303604,-0.03337087109684944,-0.10060063749551773
1783174383640874200,1.813874267578125,0.1231711283326149,-0.04087885469198227,-0.015660978853702545
1783174383650942200,1.823942138671875,0.12401966005563736,-0.006759428419172764,0.06587871164083481
1783174383661011200,1.83401123046875,0.1037287712097168,0.0706368237733841,0.11182969063520432
1783174383671080200,1.844080078125,0.07327619194984436,0.18899062275886536,0.12384259700775146
1783174383681148400,1.8541484375,0.0628666952252388,0.3151019513607025,0.11534551531076431
1783174383691217200,1.864217041015625,0.05488692224025726,0.44877827167510986,0.07227819412946701
1783174383701285000,1.87428515625,0.06258665770292282,0.5225475430488586,-0.004492488689720631
1783174383711354400,1.884354248046875,0.08491846174001694,0.5321046113967896,-0.09773702919483185
1783174383721422000,1.894422119140625,0.10726664215326309,0.4883432686328888,-0.16638880968093872
1783174383731491300,1.9044912109375,0.13716208934783936,0.39660799503326416,-0.21998542547225952
1783174383741560300,1.914560302734375,0.1910378485918045,0.25678378343582153,-0.227101132273674
1783174383751628300,1.924628173828125,0.24663536250591278,0.0927148386836052,-0.18071876466274261
1783174383761697300,1.934697265625,0.28226497769355774,-0.08953512459993362,-0.0811556801199913
1783174383771765200,1.94476513671875,0.2890665531158447,-0.2450990378856659,0.05534875765442848
1783174383781834200,1.954834228515625,0.28459057211875916,-0.33885055780410767,0.2056301236152649
1783174383791903200,1.9649033203125,0.29847651720046997,-0.38910454511642456,0.3303943872451782
1783174383801971200,1.97497119140625,0.32268065214157104,-0.3637893497943878,0.43671923875808716
1783174383812040400,1.98504052734375,0.3260769248008728,-0.2703324258327484,0.5152284502983093
1783174383822108200,1.995108154296875,0.2983259856700897,-0.11090680956840515,0.5035457015037537
1783174383832177200,2.00517724609375,0.28979700803756714,0.1259201616048813,0.4098133146762848
1783174383842245000,2.0152451171875,0.304857462644577,0.4371792674064636,0.2884458601474762
1783174383852314000,2.025314208984375,0.3462575674057007,0.7177160382270813,0.20746596157550812
1783174383862383000,2.035383056640625,0.41482117772102356,0.9203863143920898,0.2139454334974289
1783174383872451300,2.045451416015625,0.49538326263427734,1.0335623025894165,0.27195069193840027
1783174383882520300,2.055520263671875,0.5851320624351501,1.038063883781433,0.3539808690547943
1783174383892588000,2.065588134765625,0.6740949749946594,0.9619178175926208,0.4403175711631775
1783174383902657300,2.0756572265625,0.763713002204895,0.8248276114463806,0.5049974918365479
1783174383912726300,2.085726318359375,0.8493432998657227,0.633500337600708,0.5175305604934692
1783174383922794000,2.0957939453125,0.930910050868988,0.3959980309009552,0.48791569471359253
1783174383932863200,2.10586328125,0.9870319366455078,0.12747976183891296,0.43875211477279663
1783174383942931200,2.11593115234375,1.0093449354171753,-0.10916313529014587,0.3819306492805481
1783174383953000200,2.126000244140625,0.996778130531311,-0.29813098907470703,0.31764405965805054
1783174383963068200,2.136068115234375,0.9427247643470764,-0.4040888249874115,0.28850269317626953
1783174383973137200,2.14613720703125,0.8544003963470459,-0.4568648934364319,0.28069740533828735
1783174383983206400,2.156206298828125,0.747025191783905,-0.4695862829685211,0.2950369119644165
1783174383993274000,2.166274169921875,0.6432995200157166,-0.4449555575847626,0.2845785915851593
1783174384003343000,2.176343017578125,0.5397582054138184,-0.3930513560771942,0.24009236693382263
1783174384013411300,2.186411376953125,0.4336926341056824,-0.3563750088214874,0.18329870700836182
1783174384023480000,2.19647998046875,0.33713865280151367,-0.3249361217021942,0.13213805854320526
1783174384033549300,2.20654931640625,0.2473553717136383,-0.2771948575973511,0.07417856156826019
1783174384043617300,2.2166171875,0.16298696398735046,-0.21951824426651,0.015839090570807457
1783174384053686000,2.22668603515625,0.0953478291630745,-0.1354980766773224,-0.0204950962215662
1783174384063754200,2.236754150390625,0.03245941177010536,-0.03777843341231346,-0.036770470440387726
1783174384073823200,2.2468232421875,-0.024049274623394012,0.07038905471563339,-0.03799144923686981
1783174384083892200,2.256892333984375,-0.07859480381011963,0.18595001101493835,-0.023856453597545624
1783174384093960200,2.266960205078125,-0.12098763883113861,0.2899830639362335,0.0016978881321847439
1783174384104029200,2.277029296875,-0.14026252925395966,0.37937048077583313,0.038663893938064575
1783174384114097200,2.28709716796875,-0.13898061215877533,0.4439292252063751,0.0749058723449707
1783174384124166100,2.297166259765625,-0.11972969770431519,0.4688985049724579,0.1107000857591629
1783174384134234000,2.307234130859375,-0.10405836999416351,0.47650468349456787,0.14861223101615906
1783174384144303400,2.317303466796875,-0.09393303096294403,0.46880361437797546,0.17104430496692657
1783174384154372000,2.3273720703125,-0.08599396795034409,0.4664960503578186,0.1590084284543991
1783174384164440000,2.337440185546875,-0.08989283442497253,0.45109793543815613,0.1189344972372055
1783174384174509300,2.34750927734375,-0.11294976621866226,0.40256214141845703,0.06871474534273148
1783174384184577300,2.357577392578125,-0.14328449964523315,0.3420657813549042,0.03505105897784233
1783174384194646000,2.36764599609375,-0.17912478744983673,0.2728155851364136,0.02327626198530197
1783174384204715300,2.37771533203125,-0.21458716690540314,0.20719769597053528,0.03236855939030647
1783174384214783200,2.387783203125,-0.23988458514213562,0.1567213088274002,0.056778229773044586
1783174384224852200,2.397852294921875,-0.2637089490890503,0.13030008971691132,0.057494886219501495
1783174384234920200,2.407920166015625,-0.2817573845386505,0.13134482502937317,0.040984414517879486
1783174384244989200,2.4179892578125,-0.2979331612586975,0.1490444540977478,0.02962549775838852
1783174384255057200,2.42805712890625,-0.31215915083885193,0.17286556959152222,0.02772745117545128
1783174384265126100,2.438126220703125,-0.32975491881370544,0.17654365301132202,0.035523321479558945
1783174384275195100,2.448195068359375,-0.34122297167778015,0.1424574851989746,0.05346883088350296
1783174384285263400,2.458263427734375,-0.36132025718688965,0.08107934147119522,0.07753767818212509
1783174384295332000,2.46833203125,-0.3786765933036804,0.019078342244029045,0.09678240865468979
1783174384305400300,2.478400390625,-0.40906643867492676,-0.03168816864490509,0.107704296708107
1783174384315469600,2.488469482421875,-0.4576834440231323,-0.06580772995948792,0.1082317978143692
1783174384325538300,2.498538330078125,-0.5252017974853516,-0.06585220992565155,0.09249810874462128
1783174384335606500,2.5086064453125,-0.6270827651023865,-0.03743074834346771,0.060272254049777985
1783174384345675500,2.518675537109375,-0.7404716610908508,-0.0007534255273640156,0.010763022117316723
1783174384355743500,2.528743408203125,-0.897358775138855,0.026764854788780212,-0.029779573902487755
1783174384365812500,2.5388125,-0.9724820256233215,0.08859200030565262,-0.05195305496454239
1783174384375880400,2.54888037109375,-1.0764700174331665,0.07530875504016876,-0.07423917204141617
1783174384385949400,2.558949462890625,-1.1685460805892944,0.08216533064842224,-0.07213634252548218
1783174384396018400,2.569018310546875,-1.223921775817871,0.06802548468112946,-0.07324866950511932
1783174384406086400,2.57908642578125,-1.2450186014175415,0.04536411166191101,-0.09060821682214737
1783174384416155600,2.58915576171875,-1.2551077604293823,0.01810949295759201,-0.10583000630140305
1783174384426223600,2.5992236328125,-1.26058828830719,-0.013096097856760025,-0.11131904274225235
1783174384436292400,2.609292236328125,-1.2714147567749023,-0.0708947479724884,-0.11524650454521179
1783174384446361600,2.619361572265625,-1.29254150390625,-0.1550210863351822,-0.12380988895893097
1783174384456429600,2.6294296875,-1.3285653591156006,-0.24970246851444244,-0.13792283833026886
1783174384466498300,2.639498291015625,-1.3905179500579834,-0.35222429037094116,-0.158960223197937
1783174384476566500,2.64956640625,-1.444244623184204,-0.42754992842674255,-0.15012750029563904
1783174384486635500,2.659635498046875,-1.5035910606384277,-0.46610504388809204,-0.0924098789691925
1783174384496703500,2.669703369140625,-1.556166410446167,-0.4322822391986847,0.020093563944101334
1783174384506772500,2.6797724609375,-1.603361964225769,-0.3222673237323761,0.17017972469329834
1783174384516841500,2.689841552734375,-1.623846411705017,-0.1762741655111313,0.3110247552394867
1783174384526909400,2.699909423828125,-1.6066474914550781,-0.02013995498418808,0.42344075441360474
1783174384536978400,2.709978515625,-1.5652271509170532,0.10442664474248886,0.5008386373519897
1783174384547046400,2.72004638671875,-1.516768455505371,0.1534397304058075,0.5568790435791016
1783174384557115600,2.73011572265625,-1.4660663604736328,0.1148388460278511,0.5891067385673523
1783174384567184400,2.740184326171875,-1.441983938217163,0.0013442416675388813,0.5864347815513611
1783174384577252400,2.75025244140625,-1.442164659500122,-0.16758543252944946,0.5523792505264282
1783174384587321600,2.760321533203125,-1.4519797563552856,-0.3629631996154785,0.4702199399471283
1783174384597389600,2.7703896484375,-1.4593335390090942,-0.5295365452766418,0.37232157588005066
1783174384607458300,2.780458251953125,-1.5025478601455688,-0.6294745802879333,0.27632632851600647
1783174384617526500,2.790526611328125,-1.5916732549667358,-0.6586835980415344,0.18471066653728485
1783174384627595500,2.800595458984375,-1.6924408674240112,-0.6325617432594299,0.10038353502750397
1783174384637664500,2.81066455078125,-1.7750049829483032,-0.5795934796333313,0.010531555861234665
1783174384647732500,2.820732421875,-1.8038510084152222,-0.5173996090888977,-0.06928177922964096
1783174384657801500,2.830801513671875,-1.7835811376571655,-0.48087459802627563,-0.10836154222488403
1783174384667869400,2.840869384765625,-1.723456859588623,-0.4893868565559387,-0.09727213531732559
1783174384677938400,2.8509384765625,-1.6396722793579102,-0.5486593842506409,-0.059664636850357056
1783174384688007400,2.86100732421875,-1.5558016300201416,-0.638968825340271,-0.01992068812251091
1783174384698075600,2.87107568359375,-1.4876811504364014,-0.6958680748939514,-0.006541665643453598
1783174384708144400,2.881144287109375,-1.4335638284683228,-0.6606472134590149,-0.025585930794477463
1783174384718212400,2.89121240234375,-1.401782512664795,-0.5409501791000366,-0.048376575112342834
1783174384728281600,2.901281494140625,-1.3856195211410522,-0.3633793294429779,-0.06346764415502548
1783174384738349300,2.911349365234375,-1.3585917949676514,-0.18620631098747253,-0.09532257169485092
1783174384748418600,2.92141845703125,-1.3041868209838867,-0.05439021810889244,-0.12649700045585632
1783174384758487600,2.931487548828125,-1.2038787603378296,0.02119683101773262,-0.1330576390028
1783174384768555500,2.941555419921875,-1.0762810707092285,0.06223001703619957,-0.11043142527341843
1783174384778624500,2.95162451171875,-0.9350610971450806,0.06209957227110863,-0.06628036499023438
1783174384788692500,2.9616923828125,-0.7969144582748413,-0.0006807218305766582,-0.020741641521453857
1783174384798761500,2.971761474609375,-0.6792626976966858,-0.09967472404241562,0.023691309615969658
1783174384808830500,2.98183056640625,-0.5619518160820007,-0.21207955479621887,0.05898138880729675
1783174384818898400,2.9918984375,-0.4620623290538788,-0.2991393804550171,0.06850743293762207
1783174384828967700,3.0019677734375,-0.3772731423377991,-0.3336275815963745,0.0464298315346241
1783174384839035400,3.012035400390625,-0.3264981508255005,-0.3371288776397705,0.02127181924879551
1783174384849104400,3.0221044921875,-0.3070509731769562,-0.3474169373512268,0.011707608588039875
1783174384859172600,3.032172607421875,-0.304799884557724,-0.37546971440315247,0.008717190474271774
1783174384869241600,3.04224169921875,-0.29014691710472107,-0.36938172578811646,-0.005278519354760647
1783174384879310300,3.052310302734375,-0.24491125345230103,-0.35119205713272095,-0.030217589810490608
1783174384889378600,3.062378662109375,-0.17788934707641602,-0.33154991269111633,-0.06369005888700485
1783174384899447600,3.072447509765625,-0.07995112985372543,-0.30575859546661377,-0.09675253182649612
1783174384909515300,3.082515380859375,0.010271972976624966,-0.2928105592727661,-0.09808091819286346
1783174384919584500,3.09258447265625,0.05572260543704033,-0.30985820293426514,-0.06893099844455719
1783174384929653500,3.102653564453125,0.05511194095015526,-0.325967401266098,-0.015637416392564774
1783174384939721500,3.112721435546875,0.023465409874916077,-0.29546600580215454,0.03653939068317413
1783174384949790500,3.12279052734375,-0.013085411861538887,-0.22782810032367706,0.07129763811826706
1783174384959858400,3.1328583984375,-0.03969332203269005,-0.14090625941753387,0.07449236512184143
1783174384969927400,3.142927490234375,-0.04083794727921486,-0.04911774769425392,0.05609098821878433
1783174384979995400,3.152995361328125,-0.00008556636748835444,0.06105313450098038,0.037205763161182404
1783174384990064400,3.163064453125,0.10106342285871506,0.15322673320770264,0.031241878867149353
1783174385000133600,3.173133544921875,0.25398674607276917,0.18849694728851318,0.03457530960440636
1783174385010201300,3.183201416015625,0.43683725595474243,0.18426305055618286,0.06801635771989822
1783174385020270300,3.193270263671875,0.6442179679870605,0.14946596324443817,0.11505952477455139
1783174385030338600,3.203338623046875,0.8641939759254456,0.11998981982469559,0.16512908041477203
1783174385040407300,3.2134072265625,1.0599018335342407,0.10598991811275482,0.23167243599891663
1783174385050476500,3.2234765625,1.1689932346343994,0.07025216519832611,0.2953946888446808
1783174385060544500,3.23354443359375,1.1920684576034546,-0.042369354516267776,0.32011231780052185
1783174385070613500,3.243613525390625,1.1859383583068848,-0.1782643347978592,0.27928367257118225
1783174385080681500,3.253681396484375,1.1708537340164185,-0.2857964038848877,0.21632814407348633
1783174385090750500,3.26375048828125,1.168890118598938,-0.34995102882385254,0.13194042444229126
1783174385100818400,3.273818359375,1.1817535161972046,-0.3680931329727173,0.04225532338023186
1783174385110887400,3.283887451171875,1.2046905755996704,-0.3473348617553711,-0.02451198734343052
1783174385120956400,3.293956298828125,1.2461003065109253,-0.3088712990283966,-0.05463132634758949
1783174385131024400,3.3040244140625,1.2837185859680176,-0.31861981749534607,-0.027373339980840683
1783174385141093400,3.31409326171875,1.309841513633728,-0.39051440358161926,0.054019536823034286
1783174385151161300,3.324161376953125,1.3088322877883911,-0.48698848485946655,0.17839261889457703
1783174385161230600,3.334230712890625,1.2499604225158691,-0.5685902237892151,0.29757970571517944
1783174385171299600,3.344299560546875,1.1718871593475342,-0.5607885122299194,0.37984126806259155
1783174385181367300,3.3543671875,1.0681833028793335,-0.43864214420318604,0.436939537525177
1783174385191436500,3.3644365234375,0.9664154648780823,-0.23218190670013428,0.4600432515144348
1783174385201504500,3.37450439453125,0.9049698114395142,0.004211729392409325,0.44157111644744873
1783174385211573200,3.3845732421875,0.926582396030426,0.22567753493785858,0.3971567749977112
1783174385221641500,3.394641357421875,1.0299750566482544,0.414499431848526,0.34977737069129944
1783174385231710500,3.40471044921875,1.1898772716522217,0.5722209215164185,0.32651734352111816
1783174385241779500,3.414779541015625,1.3631386756896973,0.6508925557136536,0.31771281361579895
1783174385251847400,3.424847412109375,1.5324254035949707,0.6350062489509583,0.3369682729244232
1783174385261916400,3.43491650390625,1.6726692914962769,0.5208624601364136,0.36596134305000305
1783174385271984600,3.444984619140625,1.7723246812820435,0.34753626585006714,0.39553603529930115
1783174385282053400,3.455053466796875,1.8382792472839355,0.13889779150485992,0.40110984444618225
1783174385292122400,3.465122314453125,1.885288119316101,-0.059178274124860764,0.39820513129234314
1783174385302190600,3.475190673828125,1.918533205986023,-0.17755717039108276,0.37868672609329224
1783174385312259300,3.48525927734375,1.9446593523025513,-0.2512452304363251,0.3522902727127075
1783174385322327300,3.495327392578125,1.9565036296844482,-0.2592356204986572,0.31794965267181396
1783174385332396300,3.505396240234375,1.9457674026489258,-0.21223348379135132,0.2902969717979431
1783174385342464500,3.515464599609375,1.9192649126052856,-0.12055641412734985,0.26326489448547363
1783174385352533200,3.525533203125,1.8900247812271118,0.0010395264253020287,0.2562653124332428
1783174385362602500,3.5356025390625,1.8616652488708496,0.12211652100086212,0.2655709683895111
1783174385372670500,3.54567041015625,1.8362642526626587,0.21408478915691376,0.285304993391037
1783174385382739200,3.5557392578125,1.8143693208694458,0.30047741532325745,0.30481448769569397
1783174385392807400,3.565807373046875,1.8027443885803223,0.3866061866283417,0.3143366277217865
1783174385402876400,3.57587646484375,1.8029611110687256,0.4894929826259613,0.2974072992801666
1783174385412945200,3.585945068359375,1.799790620803833,0.5791341662406921,0.26491302251815796
1783174385423013400,3.596013427734375,1.7946969270706177,0.6262904405593872,0.215956911444664
1783174385433082400,3.606082275390625,1.7737141847610474,0.621677577495575,0.18204821646213531
1783174385443150300,3.616150390625,1.7475122213363647,0.5874501466751099,0.18491029739379883
1783174385453219300,3.62621923828125,1.7227709293365479,0.5526202321052551,0.20206397771835327
1783174385463287300,3.636287353515625,1.7046713829040527,0.5231759548187256,0.19853268563747406
1783174385473356500,3.6463564453125,1.702717900276184,0.521726667881012,0.16571322083473206
1783174385483425300,3.65642529296875,1.7010884284973145,0.5259541273117065,0.11252374947071075
1783174385493493200,3.6664931640625,1.6981544494628906,0.5311232805252075,0.033390045166015625
1783174385503562500,3.6765625,1.6877546310424805,0.5169029831886292,-0.05148155242204666
1783174385513630500,3.68663037109375,1.6785856485366821,0.47542107105255127,-0.10357378423213959
1783174385523699200,3.69669921875,1.661040186882019,0.42150217294692993,-0.12797880172729492
1783174385533768400,3.7067685546875,1.6464931964874268,0.34561777114868164,-0.14788566529750824
1783174385543836400,3.71683642578125,1.6423181295394897,0.23928186297416687,-0.16083721816539764
1783174385553905400,3.726905517578125,1.6465322971343994,0.13365477323532104,-0.16514141857624054
1783174385563973400,3.736973388671875,1.6582472324371338,0.009417249821126461,-0.16781575977802277
1783174385574042400,3.74704248046875,1.6802923679351807,-0.1352376788854599,-0.15952295064926147
1783174385584110600,3.757110595703125,1.6962391138076782,-0.2609558701515198,-0.12497977912425995
1783174385594179300,3.767179443359375,1.6962438821792603,-0.3228600025177002,-0.06052275374531746
1783174385604248300,3.777248291015625,1.6989105939865112,-0.287119060754776,0.0030165966600179672
1783174385614316500,3.787316650390625,1.713788628578186,-0.18404355645179749,0.04491211473941803
1783174385624385300,3.79738525390625,1.728940725326538,-0.03923215717077255,0.061552323400974274
1783174385634453200,3.807453369140625,1.7253366708755493,0.09225156903266907,0.06311240047216415
1783174385644522500,3.8175224609375,1.7047024965286255,0.17542241513729095,0.0763782486319542
1783174385654591200,3.82759130859375,1.6670339107513428,0.21687664091587067,0.08874170482158661
1783174385664659200,3.8376591796875,1.6221843957901,0.23898722231388092,0.08982133120298386
1783174385674728400,3.847728515625,1.5898232460021973,0.23578104376792908,0.062486905604600906
1783174385684796400,3.85779638671875,1.566983938217163,0.20080110430717468,0.008382275700569153
1783174385694865400,3.867865478515625,1.5542465448379517,0.15359658002853394,-0.016517747193574905
1783174385704933400,3.877933349609375,1.5543018579483032,0.12682202458381653,0.0032841963693499565
1783174385715002400,3.88800244140625,1.5643876791000366,0.14889217913150787,0.06359361112117767
1783174385725071400,3.8980712890625,1.5901631116867065,0.23250003159046173,0.14134150743484497
1783174385735139300,3.908139404296875,1.6196959018707275,0.3516160249710083,0.19889108836650848
1783174385745208300,3.918208251953125,1.6565496921539307,0.4533873200416565,0.23477163910865784
1783174385755276500,3.928276611328125,1.6993423700332642,0.523597240447998,0.26643264293670654
1783174385765345300,3.93834521484375,1.749638319015503,0.5629357695579529,0.3086531162261963
1783174385775414500,3.94841455078125,1.8124945163726807,0.575170636177063,0.36723920702934265
1783174385785482500,3.958482421875,1.8761416673660278,0.5872886776924133,0.4427596628665924
1783174385795551200,3.96855126953125,1.937698483467102,0.6025264859199524,0.5099086165428162
1783174385805619500,3.978619384765625,1.9974582195281982,0.6157207489013672,0.5544188022613525
1783174385815688400,3.9886884765625,2.0609123706817627,0.6283630728721619,0.5413733124732971
1783174385825756400,3.99875634765625,2.113100290298462,0.6311261653900146,0.48719608783721924
1783174385835825400,4.008825439453125,2.1646995544433594,0.6353528499603271,0.43657952547073364
1783174385845894400,4.018894287109375,2.212747573852539,0.6274091601371765,0.3747405409812927
1783174385855962400,4.02896240234375,2.243833541870117,0.6128288507461548,0.3150186240673065
1783174385866031400,4.03903125,2.2591233253479004,0.5862668752670288,0.2625114619731903
1783174385876099300,4.049099365234375,2.2539875507354736,0.5503759980201721,0.20484282076358795
1783174385886168600,4.05916845703125,2.2419257164001465,0.5318846702575684,0.1445225030183792
1783174385896237300,4.0692373046875,2.23054838180542,0.5339001417160034,0.07833149284124374
1783174385906305300,4.07930517578125,2.2202000617980957,0.5432701706886292,0.024569887667894363
1783174385916374500,4.08937451171875,2.2193408012390137,0.5588318109512329,0.0003289957530796528
1783174385926442500,4.0994423828125,2.2371327877044678,0.5601983070373535,-0.008589554578065872
1783174385936511200,4.10951123046875,2.281489133834839,0.5425474047660828,-0.0063375853933393955
1783174385946579500,4.119579345703125,2.3416783809661865,0.5126450657844543,0.007818254642188549
1783174385956648400,4.1296484375,2.3927829265594482,0.49646270275115967,0.019908741116523743
1783174385966717400,4.139717529296875,2.433563709259033,0.4918706715106964,0.01210126094520092
1783174385976785400,4.149785400390625,2.464487314224243,0.48149392008781433,-0.018392466008663177
1783174385986854400,4.1598544921875,2.485856294631958,0.4630799889564514,-0.047155529260635376
1783174385996922400,4.16992236328125,2.5135858058929443,0.40928518772125244,-0.04706551879644394
1783174386006991400,4.179991455078125,2.5503787994384766,0.36359092593193054,-0.026985982432961464
1783174386017060400,4.190060302734375,2.5911033153533936,0.3553159534931183,-0.012120483443140984
1783174386027128600,4.200128662109375,2.6228420734405518,0.37803053855895996,-0.016372229903936386
1783174386037197300,4.210197265625,2.6330037117004395,0.3962273597717285,-0.0345296636223793
1783174386047265300,4.220265380859375,2.6252551078796387,0.4154980480670929,-0.056616559624671936
1783174386057334500,4.23033447265625,2.6161692142486572,0.4429328739643097,-0.07072118669748306
1783174386067402200,4.24040234375,2.6068429946899414,0.4390396773815155,-0.06072954088449478
1783174386077471500,4.250471435546875,2.606227397918701,0.4077906608581543,-0.006321955472230911
1783174386087540500,4.26054052734375,2.6205365657806396,0.38904616236686707,0.07146060466766357
1783174386097608400,4.2706083984375,2.637183666229248,0.39705613255500793,0.13519378006458282
1783174386107677400,4.280677490234375,2.6384940147399902,0.45363810658454895,0.1566372513771057
1783174386117745400,4.290745361328125,2.636746406555176,0.5375326871871948,0.13382488489151
1783174386127814400,4.300814453125,2.6316933631896973,0.6272151470184326,0.0800190344452858
1783174386137883400,4.31088330078125,2.6220459938049316,0.680246114730835,0.035670205950737
1783174386147951400,4.320951416015625,2.6061909198760986,0.6676427721977234,0.03932889550924301
1783174386158020600,4.3310205078125,2.601872682571411,0.6244196891784668,0.08071574568748474
1783174386168088300,4.34108837890625,2.600982666015625,0.5879971981048584,0.11081655323505402
1783174386178157300,4.3511572265625,2.5940229892730713,0.571290910243988,0.11054091155529022
1783174386188225300,4.361225341796875,2.5797135829925537,0.575123131275177,0.0707215890288353
1783174386198294500,4.37129443359375,2.5605807304382324,0.6032852530479431,0.0071889497339725494
1783174386208363300,4.38136328125,2.542496681213379,0.6030951738357544,-0.03979257866740227
1783174386218431500,4.391431396484375,2.5342817306518555,0.574717104434967,-0.03948924317955971
1783174386228500500,4.40150048828125,2.5329575538635254,0.5263611078262329,-0.0229547917842865
1783174386238568200,4.411568115234375,2.52803111076355,0.4833398461341858,-0.031133094802498817
1783174386248637400,4.421637451171875,2.52032470703125,0.457180380821228,-0.06768978387117386
1783174386258706400,4.43170654296875,2.4993960857391357,0.4476071298122406,-0.12411630153656006
1783174386268774100,4.441774169921875,2.4774045944213867,0.4378911256790161,-0.15615777671337128
1783174386278843400,4.451843505859375,2.4657437801361084,0.41667690873146057,-0.15154890716075897
1783174386288911400,4.461911376953125,2.448610544204712,0.37879469990730286,-0.11814683675765991
1783174386298980400,4.47198046875,2.4295828342437744,0.3545229136943817,-0.06578589230775833
1783174386309048600,4.482048583984375,2.397629737854004,0.3528587818145752,-0.023198185488581657
1783174386319117800,4.492117919921875,2.3726000785827637,0.3978148102760315,-0.0019735905807465315
1783174386329186600,4.5021865234375,2.352912425994873,0.45963984727859497,-0.0010604120325297117
1783174386339254500,4.512254638671875,2.340951442718506,0.5343931913375854,-0.014366896823048592
1783174386349323800,4.52232373046875,2.3521885871887207,0.6199366450309753,-0.02742789126932621
1783174386359391700,4.532391845703125,2.3791167736053467,0.6801520586013794,-0.05203257128596306
1783174386369460700,4.542460693359375,2.404456377029419,0.6784741878509521,-0.05187414214015007
1783174386379528700,4.55252880859375,2.4073877334594727,0.6065078377723694,-0.01906559430062771
1783174386389597700,4.56259765625,2.391388416290283,0.47792601585388184,0.02209804207086563
1783174386399666700,4.572666748046875,2.3735766410827637,0.31815552711486816,0.04762204363942146
1783174386409734700,4.582734619140625,2.333134889602661,0.16396144032478333,0.06593766808509827
1783174386419803600,4.5928037109375,2.283839464187622,-0.0021974481642246246,0.06890123337507248
1783174386429871900,4.602871826171875,2.221906900405884,-0.11344757676124573,0.06113942340016365
1783174386439940600,4.612940673828125,2.131448745727539,-0.17544624209403992,0.03400393947958946
1783174386450009900,4.623009765625,2.0168545246124268,-0.18257956206798553,0.017699694260954857
1783174386460077800,4.633077880859375,1.898669719696045,-0.17287127673625946,0.008526967838406563
1783174386470146600,4.643146484375,1.790278673171997,-0.1855124682188034,0.012841049581766129
1783174386480214500,4.653214599609375,1.6821708679199219,-0.20157772302627563,0.031007802113890648
1783174386490283800,4.66328369140625,1.5752135515213013,-0.19797658920288086,0.06176704913377762
1783174386500352500,4.6733525390625,1.462041974067688,-0.16333845257759094,0.07214059680700302
1783174386510420700,4.683420654296875,1.3452260494232178,-0.09923233091831207,0.06192979961633682
1783174386520489700,4.69348974609375,1.2307053804397583,-0.011423647403717041,0.02022789604961872
1783174386530557700,4.7035576171875,1.136707067489624,0.06340502202510834,-0.0221882127225399
1783174386540626700,4.713626708984375,1.0778101682662964,0.12803061306476593,-0.04979241266846657
1783174386550694700,4.723694580078125,1.0576964616775513,0.1504380702972412,-0.03780244663357735
1783174386560763600,4.733763671875,1.0691800117492676,0.1587974727153778,0.03402220830321312
1783174386570832600,4.74383251953125,1.095105767250061,0.17921625077724457,0.14674948155879974
1783174386580900600,4.753900634765625,1.1138757467269897,0.24095764756202698,0.24666383862495422
1783174386590969900,4.763969970703125,1.1190990209579468,0.34403708577156067,0.28524288535118103
1783174386601037800,4.774037841796875,1.1011533737182617,0.44361692667007446,0.252028226852417
1783174386611106600,4.7841064453125,1.0661112070083618,0.5057351589202881,0.1823498159646988
1783174386621175800,4.79417578125,1.0207860469818115,0.5184243321418762,0.12582927942276
1783174386631243800,4.804243896484375,0.9865681529045105,0.4927900731563568,0.09888075292110443
1783174386641312500,4.8143125,0.9762654900550842,0.44160306453704834,0.10177107900381088
1783174386651380700,4.824380615234375,0.9948095083236694,0.36378955841064453,0.1283094882965088
1783174386661449700,4.83444970703125,1.0324420928955078,0.2517772614955902,0.16470958292484283
1783174386671517700,4.844517578125,1.087363839149475,0.13878941535949707,0.2054155319929123
1783174386681586700,4.854586669921875,1.1342003345489502,0.05212349072098732,0.2310391366481781
1783174386691655700,4.86465576171875,1.1566386222839355,-0.009496941231191158,0.22912025451660156
1783174386701724000,4.874723876953125,1.1555293798446655,-0.05455150082707405,0.21182169020175934
1783174386711792600,4.884792724609375,1.1221119165420532,-0.0823245570063591,0.19024665653705597
1783174386721860600,4.894860595703125,1.072887897491455,-0.10294115543365479,0.17005670070648193
1783174386731929900,4.904929931640625,1.0094401836395264,-0.10840073227882385,0.1476828008890152
1783174386741998600,4.91499853515625,0.9427866339683533,-0.0972713828086853,0.11764367669820786
1783174386752066600,4.925066650390625,0.8788111209869385,-0.07914116978645325,0.07830379903316498
1783174386762135800,4.9351357421875,0.8229734301567078,-0.045618098229169846,0.04363743215799332
1783174386772203800,4.945203857421875,0.7815349698066711,-0.006691104732453823,0.020219944417476654
1783174386782272800,4.955272705078125,0.7420672178268433,0.040923021733760834,0.003153076395392418
1783174386792340700,4.9653408203125,0.6972661018371582,0.100130096077919,0.00651113037019968
1783174386802409700,4.97540966796875,0.6550827026367188,0.16839702427387238,0.007220862433314323
1783174386812478700,4.985478759765625,0.6192228198051453,0.24266524612903595,-0.014503490179777145
1783174386822546700,4.995546630859375,0.5839141011238098,0.30491557717323303,-0.05443519353866577
1783174386832615700,5.00561572265625,0.5747958421707153,0.3588124215602875,-0.10244212299585342
1783174386842684000,5.015683837890625,0.5924230813980103,0.39565300941467285,-0.13426582515239716
1783174386852752600,5.025752685546875,0.6284786462783813,0.4070988595485687,-0.14289915561676025
1783174386862822000,5.03582177734375,0.6710754036903381,0.4034103751182556,-0.13319112360477448
1783174386872889900,5.045889892578125,0.7024598717689514,0.35060861706733704,-0.12642838060855865
1783174386882958600,5.05595849609375,0.7147887349128723,0.23886503279209137,-0.14812062680721283
1783174386893026800,5.06602685546875,0.7065687775611877,0.11117768287658691,-0.18850815296173096
1783174386903095800,5.076095703125,0.6871439814567566,-0.016478808596730232,-0.21050933003425598
1783174386913163800,5.086163818359375,0.6889902353286743,-0.112020343542099,-0.20999610424041748
1783174386923232800,5.096232666015625,0.7124625444412231,-0.18155334889888763,-0.1943178027868271
1783174386933301800,5.1063017578125,0.7392734885215759,-0.24552655220031738,-0.18331867456436157
1783174386943369700,5.11636962890625,0.7512707710266113,-0.30028778314590454,-0.1683831363916397
1783174386953438700,5.126438720703125,0.7448038458824158,-0.33387550711631775,-0.15465675294399261
1783174386963506700,5.136506591796875,0.7095086574554443,-0.34246766567230225,-0.12553216516971588
1783174386973576000,5.146575927734375,0.6586703658103943,-0.3489706218242645,-0.09401668608188629
1783174386983644700,5.156644775390625,0.5983548164367676,-0.3263087272644043,-0.05876655876636505
1783174386993712600,5.166712646484375,0.5369589924812317,-0.2772738039493561,-0.02670803852379322
1783174387003782000,5.176781982421875,0.4808826744556427,-0.1948883980512619,-0.0019792565144598484
1783174387013849900,5.186849853515625,0.44285354018211365,-0.08837243914604187,0.02103947289288044
1783174387023918600,5.196918701171875,0.4277350604534149,0.03173265978693962,0.04548196494579315
1783174387033986800,5.20698681640625,0.42502784729003906,0.1430092751979828,0.07381149381399155
1783174387044055800,5.217055908203125,0.4278457462787628,0.23488886654376984,0.11387582123279572
1783174387054124800,5.227124755859375,0.4124649465084076,0.3042259216308594,0.17118073999881744
1783174387064192800,5.23719287109375,0.38195258378982544,0.3566364049911499,0.23329950869083405
1783174387074261800,5.24726171875,0.340678334236145,0.37383052706718445,0.2717612385749817
1783174387084329700,5.257329833984375,0.2980895936489105,0.3903873860836029,0.290566086769104
1783174387094398700,5.267398681640625,0.2642655074596405,0.40245234966278076,0.27025026082992554
1783174387104467700,5.2774677734375,0.23975564539432526,0.383531391620636,0.2347404658794403
1783174387114536000,5.287535888671875,0.22671888768672943,0.3257279694080353,0.20599080622196198
1783174387124604700,5.297604736328125,0.21680259704589844,0.23569609224796295,0.21331024169921875
1783174387134672600,5.307672607421875,0.21032580733299255,0.12189964205026627,0.2327107936143875
1783174387144742000,5.317741943359375,0.2016305923461914,0.006972257513552904,0.23066842555999756
1783174387154809600,5.3278095703125,0.17806848883628845,-0.07684201002120972,0.21196378767490387
1783174387164878600,5.337878662109375,0.15215912461280823,-0.13393725454807281,0.16654837131500244
1783174387174947800,5.34794775390625,0.13292557001113892,-0.16785548627376556,0.12225310504436493
1783174387185015600,5.358015625,0.12172431498765945,-0.17793609201908112,0.08180687576532364
1783174387195084800,5.368084716796875,0.12707304954528809,-0.15778017044067383,0.048984408378601074
1783174387205152800,5.37815283203125,0.14169754087924957,-0.12314707785844803,0.029314031824469566
1783174387215221800,5.3882216796875,0.152869313955307,-0.06994330137968063,0.023988666012883186
1783174387225290800,5.398290771484375,0.1500852406024933,-0.007122263312339783,0.022461077198386192
1783174387235358700,5.408358642578125,0.14319561421871185,0.05687972903251648,0.020143898203969002
1783174387245427700,5.418427734375,0.1264006495475769,0.09944503009319305,0.04394723102450371
1783174387255495700,5.42849560546875,0.10633739084005356,0.11925181746482849,0.08014945685863495
1783174387265564700,5.438564697265625,0.0866561010479927,0.10776907205581665,0.10119801014661789
1783174387275632600,5.448632568359375,0.08380483835935593,0.1005503386259079,0.10131753236055374
1783174387285701600,5.45870166015625,0.09529291838407516,0.08938103914260864,0.07415329664945602
1783174387295770600,5.4687705078125,0.09875811636447906,0.06857020407915115,0.03992852196097374
1783174387305838800,5.4788388671875,0.09617085754871368,0.050767239183187485,-0.0042618438601493835
1783174387315907600,5.488907470703125,0.09803533554077148,0.0438358299434185,-0.0438888818025589
1783174387325975300,5.498975341796875,0.09990300983190536,0.03787088394165039,-0.07135778665542603
1783174387336044500,5.50904443359375,0.10593827068805695,0.0348961167037487,-0.07483363896608353
1783174387346113500,5.519113525390625,0.11649025231599808,0.011925553902983665,-0.06444518268108368
1783174387356181500,5.529181396484375,0.12847073376178741,-0.0003926018252968788,-0.029387803748250008
1783174387366250500,5.53925048828125,0.15748374164104462,-0.0022498909384012222,0.029827849939465523
1783174387376318500,5.549318359375,0.18397532403469086,0.021701304242014885,0.08312242478132248
1783174387386387500,5.559387451171875,0.18200086057186127,0.05285549536347389,0.1019323319196701
1783174387396455400,5.569455322265625,0.15448656678199768,0.07493218034505844,0.07049023360013962
1783174387406524400,5.5795244140625,0.11019127815961838,0.07989630848169327,0.022557858377695084
1783174387416593700,5.58959375,0.0802086889743805,0.07962089031934738,-0.0244853924959898
1783174387426661400,5.599661376953125,0.07293613255023956,0.08422362804412842,-0.0640983134508133
1783174387436730400,5.60973046875,0.07354533672332764,0.10628977417945862,-0.09194467216730118
1783174387446798600,5.619798583984375,0.09104762971401215,0.13936305046081543,-0.09653383493423462
1783174387456867600,5.62986767578125,0.11014536768198013,0.1522763967514038,-0.08888233453035355
1783174387466936300,5.639936279296875,0.13536763191223145,0.13227738440036774,-0.08317145705223083
1783174387477004500,5.650004638671875,0.17016446590423584,0.08898941427469254,-0.07383996248245239
1783174387487073500,5.660073486328125,0.21847979724407196,0.04892481863498688,-0.0542881041765213
1783174387497141200,5.670141357421875,0.2653138041496277,0.015018388628959656,-0.018241701647639275
1783174387507210500,5.68021044921875,0.30903249979019165,-0.02413886785507202,0.022619977593421936
1783174387517278500,5.690278564453125,0.3277669847011566,-0.06176431477069855,0.043777696788311005
1783174387527347500,5.700347412109375,0.33196836709976196,-0.06894180178642273,0.03424038738012314
1783174387537416400,5.71041650390625,0.34252724051475525,-0.06502459943294525,0.006065977271646261
1783174387547484400,5.720484375,0.35596713423728943,-0.06079896539449692,-0.024041857570409775
1783174387557553400,5.730553466796875,0.36954227089881897,-0.041681498289108276,-0.039746809750795364
1783174387567621400,5.740621337890625,0.38452309370040894,0.015187373384833336,-0.030653446912765503
1783174387577690400,5.7506904296875,0.39941293001174927,0.11482589691877365,-0.018216164782643318
1783174387587759600,5.760759521484375,0.4118379056453705,0.21501775085926056,-0.016081109642982483
1783174387597827300,5.770827392578125,0.4254845380783081,0.26351025700569153,-0.04857600852847099
1783174387607896600,5.780896484375,0.44031116366386414,0.2619403302669525,-0.0984887108206749
1783174387617964500,5.790964599609375,0.44737276434898376,0.1804836541414261,-0.12232272326946259
1783174387628033300,5.801033203125,0.45175498723983765,0.038612000644207,-0.1392069011926651
1783174387638102500,5.8111025390625,0.4472353458404541,-0.1011618822813034,-0.16162165999412537
1783174387648170500,5.82117041015625,0.45664456486701965,-0.1981523334980011,-0.21277032792568207
1783174387658239500,5.831239501953125,0.4646034240722656,-0.25874966382980347,-0.2565569579601288
1783174387668307500,5.841307373046875,0.4655812978744507,-0.2794252634048462,-0.2716207206249237
1783174387678376400,5.85137646484375,0.4695005416870117,-0.26375362277030945,-0.2581426501274109
1783174387688444400,5.8614443359375,0.5177717208862305,-0.20343488454818726,-0.2200072556734085
1783174387698513400,5.871513427734375,0.6005257368087769,-0.08008149266242981,-0.14609332382678986
1783174387708582400,5.88158251953125,0.6943960189819336,0.07544764876365662,-0.07534751296043396
1783174387718650600,5.891650634765625,0.7724230885505676,0.2043149769306183,-0.03400738537311554
1783174387728719400,5.90171923828125,0.8101430535316467,0.273002952337265,-0.024107085540890694
1783174387738787300,5.911787353515625,0.8281303644180298,0.2823864817619324,-0.004086755216121674
1783174387748856600,5.921856689453125,0.8616893887519836,0.29705703258514404,0.04751412197947502
1783174387758925300,5.93192529296875,0.9142889976501465,0.3180640637874603,0.11107038706541061
1783174387768993300,5.9419931640625,0.9722503423690796,0.32021698355674744,0.1566368043422699
1783174387779062500,5.9520625,1.0269732475280762,0.3303467631340027,0.1840307116508484
1783174387789130500,5.962130615234375,1.0608599185943604,0.3244076371192932,0.1945110559463501
1783174387799199500,5.972199462890625,1.0766884088516235,0.2903333008289337,0.19581280648708344
1783174387809267500,5.982267333984375,1.0873926877975464,0.2163616269826889,0.19148676097393036
1783174387819336400,5.99233642578125,1.0767831802368164,0.11417564749717712,0.1972145289182663
1783174387829405400,6.002405517578125,1.0711311101913452,-0.008210452273488045,0.1893603354692459
1783174387839473400,6.012473388671875,1.063565969467163,-0.14810295403003693,0.18264932930469513
1783174387849542400,6.02254248046875,1.0586601495742798,-0.2687417268753052,0.17291148006916046
1783174387859610600,6.032610595703125,1.033655047416687,-0.352427214384079,0.1710478961467743
1783174387869679400,6.042679443359375,0.9850611090660095,-0.38603711128234863,0.1564929187297821
1783174387879748400,6.052748291015625,0.9186771512031555,-0.37348249554634094,0.11861401796340942
1783174387889816600,6.062816650390625,0.8351436257362366,-0.3210539221763611,0.08218597620725632
1783174387899885300,6.07288525390625,0.7470417618751526,-0.24692708253860474,0.05419275164604187
1783174387909953300,6.082953369140625,0.6582490801811218,-0.17553147673606873,0.041654057800769806
1783174387920022500,6.0930224609375,0.5885142683982849,-0.13317446410655975,0.047255903482437134
1783174387930090500,6.103090576171875,0.5503746271133423,-0.09558901190757751,0.0829704999923706
1783174387940159500,6.113159423828125,0.5501051545143127,-0.06413372606039047,0.11426526308059692
1783174387950228500,6.123228515625,0.5761740207672119,-0.03673885017633438,0.1342477649450302
1783174387960296400,6.13329638671875,0.6076754331588745,-0.012059925124049187,0.12719391286373138
1783174387970365400,6.143365478515625,0.6228679418563843,0.012097341939806938,0.11581476032733917
1783174387980433400,6.153433349609375,0.6098681092262268,0.033851541578769684,0.0988645851612091
1783174387990502400,6.16350244140625,0.5740709900856018,0.04717880114912987,0.07786902040243149
1783174388000571400,6.1735712890625,0.5289744734764099,0.06251269578933716,0.0462460070848465
1783174388010639400,6.183639404296875,0.502907395362854,0.07334563881158829,0.039434704929590225
1783174388020708600,6.19370849609375,0.4915224611759186,0.07636915147304535,0.059441834688186646
1783174388030776600,6.203776611328125,0.48017871379852295,0.06162136420607567,0.08813952654600143
1783174388040845300,6.21384521484375,0.45142337679862976,0.04692243039608002,0.10933654010295868
1783174388050913500,6.22391357421875,0.4093126654624939,0.04556182026863098,0.11609137803316116
1783174388060982500,6.233982421875,0.36808496713638306,0.059129104018211365,0.1002952829003334
1783174388071051300,6.24405126953125,0.33694779872894287,0.08659695088863373,0.07050250470638275
1783174388081119500,6.254119384765625,0.31309252977371216,0.11417630314826965,0.023520786315202713
1783174388091188500,6.2641884765625,0.29734498262405396,0.14630042016506195,-0.000488943187519908
1783174388101256400,6.27425634765625,0.28721895813941956,0.18411821126937866,-0.024672724306583405
1783174388111325400,6.284325439453125,0.2848396897315979,0.18167263269424438,-0.029925808310508728
1783174388121394400,6.29439453125,0.2772998511791229,0.1525845229625702,-0.021382305771112442
1783174388131462700,6.304462646484375,0.2747216522693634,0.09569435566663742,-0.006876331754028797
1783174388141531400,6.314531494140625,0.26631054282188416,0.030597854405641556,0.004246166907250881
1783174388151599400,6.324599365234375,0.2473834604024887,-0.041626010090112686,0.02496689185500145
1783174388161668600,6.334668701171875,0.21980248391628265,-0.11889278143644333,0.03818275406956673
1783174388171736600,6.344736572265625,0.18303674459457397,-0.19898948073387146,0.04938054829835892
1783174388181805300,6.354805419921875,0.1445852369070053,-0.2597995698451996,0.06281203031539917
1783174388191874600,6.36487451171875,0.10061484575271606,-0.2749854326248169,0.05562256649136543
1783174388201942500,6.374942626953125,0.06402058899402618,-0.26112040877342224,0.0227777361869812
1783174388212011500,6.385011474609375,0.027798132970929146,-0.21062710881233215,-0.04421913996338844
1783174388222079500,6.39507958984375,-0.020044803619384766,-0.14847007393836975,-0.12578892707824707
1783174388232148500,6.4051484375,-0.06823842972517014,-0.08863630890846252,-0.19680878520011902
1783174388242217500,6.415217529296875,-0.10752451419830322,-0.03894601762294769,-0.23536862432956696
1783174388252285400,6.425285400390625,-0.134422168135643,0.004929830320179462,-0.2502855062484741
1783174388262354400,6.4353544921875,-0.14800859987735748,0.04502180218696594,-0.25480297207832336
1783174388272422700,6.445422607421875,-0.1564100831747055,0.10595385730266571,-0.24836373329162598
1783174388282491400,6.455491455078125,-0.1711808294057846,0.1504855751991272,-0.24704581499099731
1783174388292559400,6.465559326171875,-0.1848393827676773,0.1625257283449173,-0.27209416031837463
1783174388302628600,6.475628662109375,-0.20980505645275116,0.13633140921592712,-0.3136551082134247
1783174388312697600,6.485697509765625,-0.24330894649028778,0.07195241749286652,-0.3596084713935852
1783174388322765800,6.495765869140625,-0.2896338701248169,-0.03199038282036781,-0.4071384370326996
1783174388332834800,6.505834716796875,-0.3273482024669647,-0.15636560320854187,-0.4645255506038666
1783174388342902800,6.51590283203125,-0.3428098261356354,-0.2522014081478119,-0.5046406984329224
1783174388352971800,6.5259716796875,-0.34522584080696106,-0.2926260828971863,-0.5065848231315613
1783174388363040800,6.536040771484375,-0.33005842566490173,-0.27156293392181396,-0.46179914474487305
1783174388373108700,6.546108642578125,-0.3074606955051422,-0.1959584504365921,-0.37598171830177307
1783174388383177700,6.556177734375,-0.2785864770412445,-0.09271092712879181,-0.2707423269748688
1783174388393245700,6.56624560546875,-0.2441006749868393,-0.0065299756824970245,-0.17934180796146393
1783174388403315000,6.57631494140625,-0.208111971616745,0.05944899097084999,-0.10710848122835159
1783174388413382700,6.586382568359375,-0.17778921127319336,0.1464214324951172,-0.045320745557546616
1783174388423451600,6.59645166015625,-0.14098218083381653,0.24970752000808716,0.013700895942747593
1783174388433521000,6.60652099609375,-0.11522461473941803,0.3713388741016388,0.0840778574347496
1783174388443588600,6.616588623046875,-0.10274336487054825,0.471208393573761,0.16348648071289062
1783174388453657600,6.62665771484375,-0.09760186821222305,0.5512800812721252,0.24672545492649078
1783174388463725800,6.636725830078125,-0.10746168345212936,0.5905177593231201,0.3051711618900299
1783174388473794800,6.646794921875,-0.11899477243423462,0.5980172157287598,0.33008530735969543
1783174388483863800,6.65686376953125,-0.1302778720855713,0.5879902243614197,0.3313656151294708
1783174388493931800,6.666931884765625,-0.14456573128700256,0.5419055223464966,0.3158756196498871
1783174388504000800,6.677000732421875,-0.15089870989322662,0.45732781291007996,0.2861199975013733
1783174388514068500,6.687068359375,-0.1573837846517563,0.3364514708518982,0.2503718435764313
1783174388524137700,6.6971376953125,-0.1656520962715149,0.1991623044013977,0.20130428671836853
1783174388534205700,6.707205810546875,-0.18571476638317108,0.06818138062953949,0.15861034393310547
1783174388544274700,6.717274658203125,-0.21437811851501465,-0.027190297842025757,0.11025074124336243
1783174388554343700,6.72734375,-0.2685449421405792,-0.08839958906173706,0.05225374922156334
1783174388564411600,6.73741162109375,-0.3237047791481018,-0.1102408617734909,-0.001765955938026309
1783174388574481000,6.74748095703125,-0.3654884397983551,-0.09571731090545654,-0.05748674273490906
1783174388584548600,6.757548583984375,-0.37703168392181396,-0.06051623821258545,-0.091889388859272
1783174388594617600,6.76761767578125,-0.35646969079971313,-0.01214391365647316,-0.09139643609523773
1783174388604686800,6.777686767578125,-0.31116846203804016,0.04808671027421951,-0.06687481701374054
1783174388614754600,6.787754638671875,-0.2534750699996948,0.12433887273073196,-0.023898854851722717
1783174388624823800,6.79782373046875,-0.18810001015663147,0.20447689294815063,0.004932556301355362
1783174388634891800,6.807891845703125,-0.12537990510463715,0.2771220803260803,0.011034656316041946
1783174388644960800,6.817960693359375,-0.06299099326133728,0.29952070116996765,-0.0014538518153131008
1783174388655029800,6.82802978515625,-0.006224914453923702,0.2805483639240265,-0.008908838033676147
1783174388665097700,6.83809765625,0.050581660121679306,0.24939192831516266,-0.011630195192992687
1783174388675166700,6.848166748046875,0.11120373010635376,0.20507453382015228,-0.0010755553375929594
1783174388685234700,6.858234619140625,0.16271328926086426,0.1584017276763916,0.022301634773612022
1783174388695303700,6.8683037109375,0.19894878566265106,0.1112576499581337,0.03216545283794403
1783174388705371600,6.87837158203125,0.2246679812669754,0.06305292993783951,0.02479928731918335
1783174388715440600,6.888440673828125,0.245752215385437,0.013799095526337624,0.0058546243235468864
1783174388725509600,6.898509521484375,0.26048743724823,-0.042743582278490067,-0.019273927435278893
1783174388735577900,6.908577880859375,0.26089197397232056,-0.08524364233016968,-0.0582604743540287
1783174388745646600,6.918646484375,0.25455230474472046,-0.10361652076244354,-0.10170675069093704
1783174388755714600,6.928714599609375,0.2507708966732025,-0.11977551132440567,-0.14269253611564636
1783174388765783800,6.93878369140625,0.2445891946554184,-0.14323516190052032,-0.17335636913776398
1783174388775852800,6.948852783203125,0.229207843542099,-0.16608747839927673,-0.1687760055065155
1783174388785920500,6.95892041015625,0.22374635934829712,-0.18601056933403015,-0.13924555480480194
1783174388795989800,6.96898974609375,0.2407839298248291,-0.19024765491485596,-0.07165532559156418
1783174388806057700,6.9790576171875,0.2772177457809448,-0.16050027310848236,0.010343648493289948
1783174388816126700,6.989126708984375,0.32908228039741516,-0.09567546844482422,0.07283738255500793
1783174388826194700,6.999194580078125,0.378116250038147,0.0014028865844011307,0.08293883502483368
1783174388836263700,7.009263671875,0.4166601896286011,0.09642393887042999,0.06118613854050636
1783174388846332700,7.019332763671875,0.4437457323074341,0.16196008026599884,0.0189540795981884
1783174388856400600,7.029400634765625,0.46406060457229614,0.17082148790359497,-0.014284834265708923
1783174388866469600,7.0394697265625,0.49096038937568665,0.13360834121704102,0.009460344910621643
1783174388876537900,7.049537841796875,0.5413505434989929,0.08553403615951538,0.06620538234710693
1783174388886606600,7.059606689453125,0.5970236659049988,0.03333519026637077,0.12601973116397858
1783174388896675800,7.06967578125,0.6603344678878784,-0.027057580649852753,0.1747899353504181
1783174388906743800,7.079743896484375,0.7148858308792114,-0.0741807073354721,0.1963861584663391
1783174388916812500,7.0898125,0.7759289741516113,-0.09460954368114471,0.19251419603824615
1783174388926880500,7.099880615234375,0.8411726951599121,-0.08481738716363907,0.1811005175113678
1783174388936949800,7.10994970703125,0.9059208035469055,-0.06982272863388062,0.17881391942501068
1783174388947017700,7.120017822265625,0.96284019947052,-0.04657061770558357,0.18904323875904083
1783174388957086700,7.130086669921875,1.0065138339996338,0.004262736067175865,0.21882003545761108
1783174388967155700,7.14015576171875,1.039947271347046,0.08610546588897705,0.21407315135002136
1783174388977223700,7.1502236328125,1.071686863899231,0.097430020570755,0.14171959459781647
1783174388987292700,7.160292724609375,1.0963084697723389,0.014092477969825268,0.03725466877222061
1783174388997360600,7.170360595703125,1.1126840114593506,-0.16290120780467987,-0.06321893632411957
1783174389007429600,7.1804296875,1.0945849418640137,-0.34393805265426636,-0.11738619208335876
1783174389017498600,7.19049853515625,1.0668693780899048,-0.46039676666259766,-0.11539202183485031
1783174389027566600,7.200566650390625,1.0484596490859985,-0.4962635338306427,-0.10686584562063217
1783174389037635800,7.2106357421875,1.027408480644226,-0.444047212600708,-0.12260406464338303
1783174389047703800,7.220703857421875,1.0335407257080078,-0.27786803245544434,-0.1634766012430191
1783174389057772500,7.2307724609375,1.0727040767669678,-0.029370086267590523,-0.19414475560188293
1783174389067840800,7.2408408203125,1.1420724391937256,0.22897149622440338,-0.18830130994319916
1783174389077909800,7.25090966796875,1.2423462867736816,0.35729536414146423,-0.17190369963645935
1783174389087978500,7.260978515625,1.3243420124053955,0.36227118968963623,-0.1453135460615158
1783174389098046700,7.271046630859375,1.3853020668029785,0.3303459882736206,-0.09912794828414917
1783174389108115700,7.28111572265625,1.4451881647109985,0.32411807775497437,-0.039891209453344345
1783174389118183700,7.29118359375,1.5072786808013916,0.35904544591903687,0.00890535768121481
1783174389128252700,7.301252685546875,1.5632390975952148,0.4038388133049011,0.031225448474287987
1783174389138321700,7.31132177734375,1.605203628540039,0.45422983169555664,0.04905291646718979
1783174389148390000,7.321389892578125,1.6267415285110474,0.5082366466522217,0.044977009296417236
1783174389158458600,7.331458740234375,1.6380077600479126,0.5224432945251465,0.019347814843058586
1783174389168526600,7.341526611328125,1.6484829187393188,0.4749935567378998,-0.021836070343852043
1783174389178595800,7.351595947265625,1.6589314937591553,0.3467266857624054,-0.05588005855679512
1783174389188663800,7.361663818359375,1.6503410339355469,0.15274612605571747,-0.08148879557847977
1783174389198732500,7.371732666015625,1.6293505430221558,-0.06458992511034012,-0.09910453855991364
1783174389208801800,7.3818017578125,1.5889761447906494,-0.25699228048324585,-0.0860375389456749
1783174389218869800,7.391869873046875,1.5178756713867188,-0.37921059131622314,-0.05212431401014328
1783174389228938800,7.401938720703125,1.431036353111267,-0.38711151480674744,-0.03530034422874451
1783174389239006700,7.4120068359375,1.354017734527588,-0.3086441457271576,-0.05396457761526108
1783174389249075700,7.42207568359375,1.2936389446258545,-0.17649224400520325,-0.09078338742256165
1783174389259144700,7.432144775390625,1.2598072290420532,-0.04861469566822052,-0.11999666690826416
1783174389269212700,7.442212646484375,1.2306029796600342,0.055570363998413086,-0.12915624678134918
1783174389279281700,7.45228173828125,1.20431387424469,0.10519304871559143,-0.11095008999109268
1783174389289350000,7.462349853515625,1.1971969604492188,0.09876938909292221,-0.06530708819627762
1783174389299418600,7.472418701171875,1.203168272972107,0.06498266011476517,-0.005034692585468292
1783174389309486000,7.482486083984375,1.2211657762527466,0.029784977436065674,0.03890730068087578
1783174389319555000,7.49255517578125,1.2449467182159424,0.008841613307595253,0.05812440440058708
1783174389329624000,7.5026240234375,1.2530429363250732,0.0018763965927064419,0.04286705330014229
1783174389339692000,7.512692138671875,1.2375507354736328,-0.0008464190177619457,0.01977824606001377
1783174389349761300,7.52276123046875,1.2083629369735718,0.011319159530103207,0.001800227677449584
1783174389359829200,7.532829345703125,1.1680490970611572,0.03592783212661743,-0.007366372272372246
1783174389369898000,7.54289794921875,1.123934268951416,0.06111365556716919,0.0014769500121474266
1783174389379966000,7.552966064453125,1.0807063579559326,0.06750310957431793,0.020206162706017494
1783174389390035200,7.56303515625,1.0608410835266113,0.07374441623687744,0.029144471511244774
1783174389400104000,7.57310400390625,1.0623652935028076,0.07304293662309647,0.014515195973217487
1783174389410172200,7.583172119140625,1.0651005506515503,0.07055538147687912,0.0028423313051462173
1783174389420241200,7.5932412109375,1.0624091625213623,0.06925789266824722,0.00023696082644164562
1783174389430309000,7.60330908203125,1.0639163255691528,0.05864406377077103,0.015283280052244663
1783174389440378000,7.613378173828125,1.0664281845092773,0.04084669053554535,0.033490244299173355
1783174389450447000,7.623447021484375,1.0716779232025146,0.020548030734062195,0.04463493078947067
1783174389460515000,7.63351513671875,1.0808639526367188,-0.003910708241164684,0.043580323457717896
1783174389470584000,7.643583984375,1.0852562189102173,-0.026900339871644974,0.04158271849155426
1783174389480652000,7.653652099609375,1.0897396802902222,-0.05960609018802643,0.05488574504852295
1783174389490721300,7.66372119140625,1.0880341529846191,-0.09664111584424973,0.09803718328475952
1783174389500790000,7.6737900390625,1.085423231124878,-0.1345733106136322,0.12747788429260254
1783174389510858000,7.68385791015625,1.0800268650054932,-0.15018834173679352,0.1253540813922882
1783174389520927200,7.69392724609375,1.0682203769683838,-0.1513119339942932,0.11759629845619202
1783174389530995200,7.7039951171875,1.057870626449585,-0.13788799941539764,0.11273345351219177
1783174389541064000,7.71406396484375,1.0452994108200073,-0.12664492428302765,0.10750646889209747
1783174389551132200,7.724132080078125,1.0388814210891724,-0.1275385171175003,0.10711369663476944
1783174389561201200,7.734201171875,1.0282028913497925,-0.13370639085769653,0.11199846118688583
1783174389571270100,7.744270263671875,1.016998052597046,-0.12504839897155762,0.11802703887224197
1783174389581338000,7.754338134765625,0.9980577230453491,-0.10007299482822418,0.11511407047510147
1783174389591407000,7.764406982421875,0.9690757393836975,-0.08643334358930588,0.11030900478363037
1783174389601475300,7.774475341796875,0.9488554000854492,-0.09287633001804352,0.10096078366041183
1783174389611544000,7.7845439453125,0.925166130065918,-0.11842994391918182,0.11040690541267395
1783174389621612000,7.794612060546875,0.9176450967788696,-0.11829333007335663,0.1339106261730194
1783174389631681300,7.804681396484375,0.9292923808097839,-0.08825072646141052,0.15251830220222473
1783174389641750000,7.81475,0.9584899544715881,-0.054313525557518005,0.15522487461566925
1783174389651818000,7.82481787109375,0.9976161122322083,-0.03835926949977875,0.14907129108905792
1783174389661887200,7.83488720703125,1.0357435941696167,-0.0367315448820591,0.15239599347114563
1783174389671955200,7.844955078125,1.0669987201690674,-0.05120057240128517,0.1715293824672699
1783174389682024200,7.855024169921875,1.078465461730957,-0.08399926871061325,0.17307987809181213
1783174389692093200,7.86509326171875,1.0670088529586792,-0.08549778163433075,0.1636594980955124
1783174389702161200,7.8751611328125,1.0646429061889648,-0.03742186725139618,0.1622869074344635
1783174389712230100,7.885230224609375,1.0778197050094604,0.05960974097251892,0.16061320900917053
1783174389722298000,7.895298095703125,1.1088228225708008,0.18889689445495605,0.18372279405593872
1783174389732367000,7.9053671875,1.1527936458587646,0.346823513507843,0.21593616902828217
1783174389742435300,7.915435302734375,1.2098041772842407,0.5184503793716431,0.24848930537700653
1783174389752504000,7.925504150390625,1.2738841772079468,0.6826630234718323,0.27579522132873535
1783174389762573300,7.9355732421875,1.331845998764038,0.8326653242111206,0.2965599000453949
1783174389772641300,7.945641357421875,1.3793294429779053,0.9235135912895203,0.289462685585022
1783174389782710000,7.9557099609375,1.4015858173370361,0.9489984512329102,0.2774111032485962
1783174389792778000,7.965778076171875,1.3940930366516113,0.9284235835075378,0.2786199748516083
1783174389802847200,7.97584716796875,1.3565776348114014,0.8839617967605591,0.2884292006492615
1783174389812916000,7.985916015625,1.3114814758300781,0.841399610042572,0.2964387834072113
1783174389822984200,7.995984130859375,1.2889173030853271,0.7862151861190796,0.2842004895210266
1783174389833053200,8.00605322265625,1.2946726083755493,0.7031579613685608,0.2857291102409363
1783174389843121200,8.01612109375,1.3267176151275635,0.5813846588134766,0.3028564155101776
1783174389853190100,8.026190185546875,1.3869801759719849,0.4373920261859894,0.3218481242656708
1783174389863258000,8.036258056640625,1.4696940183639526,0.29036104679107666,0.33245763182640076
1783174389873327000,8.0463271484375,1.5432536602020264,0.1506185233592987,0.33702021837234497
1783174389883396000,8.05639599609375,1.605602741241455,0.05879778414964676,0.344669908285141
1783174389893464000,8.066464111328125,1.6537659168243408,0.0024361377581954002,0.3517972528934479
1783174389903533300,8.076533203125,1.6869653463363647,-0.019939741119742393,0.34402695298194885
1783174389913601300,8.086601318359374,1.7097340822219849,0.0021509057842195034,0.32949399948120117
1783174389923670000,8.096669921875,1.7324796915054321,0.07846352458000183,0.32642897963523865
1783174389933739300,8.1067392578125,1.769614338874817,0.18848060071468353,0.35766518115997314
1783174389943807200,8.11680712890625,1.8223463296890259,0.30219969153404236,0.4225720167160034
1783174389953876000,8.1268759765625,1.875546932220459,0.38859981298446655,0.48711711168289185
1783174389963944200,8.136944091796876,1.9195048809051514,0.46783629059791565,0.4910926818847656
1783174389974013200,8.14701318359375,1.9473297595977783,0.5432679057121277,0.4505667984485626
1783174389984081200,8.1570810546875,1.9537557363510132,0.6099236607551575,0.3921562135219574
1783174389994150100,8.167150146484374,1.9608945846557617,0.6557999849319458,0.3411237299442291
1783174390004219100,8.17721923828125,1.9872467517852783,0.6711392402648926,0.3107871413230896
1783174390014287400,8.187287353515625,2.0299994945526123,0.6618219614028931,0.2800581753253937
1783174390024356000,8.197356201171875,2.08115291595459,0.6190199255943298,0.23375804722309113
1783174390034424000,8.207424072265624,2.133296012878418,0.5483540296554565,0.18075032532215118
1783174390044493300,8.217493408203126,2.1710238456726074,0.45750799775123596,0.137128546833992
1783174390054562000,8.22756201171875,2.205352544784546,0.3697911500930786,0.09773183614015579
1783174390064630000,8.237630126953125,2.238971710205078,0.30193912982940674,0.06483380496501923
1783174390074699300,8.24769921875,2.2741668224334717,0.25066858530044556,0.05861484631896019
1783174390084767000,8.25776708984375,2.3190808296203613,0.23536072671413422,0.054015301167964935
1783174390094836200,8.267836181640625,2.3694117069244385,0.24332186579704285,0.025395072996616364
1783174390104904200,8.277904296875,2.431446075439453,0.2604750394821167,-0.019016865640878677
1783174390114973200,8.28797314453125,2.490330457687378,0.2527177929878235,-0.06124652549624443
1783174390125042200,8.298042236328126,2.539257287979126,0.21495841443538666,-0.08196725696325302
1783174390135110100,8.308110107421875,2.5682058334350586,0.15592455863952637,-0.08293162286281586
1783174390145179100,8.31817919921875,2.584592342376709,0.09951028227806091,-0.0687502920627594
1783174390155247000,8.3282470703125,2.6042065620422363,0.0742671862244606,-0.04058995097875595
1783174390165316000,8.338316162109376,2.635570526123047,0.08215679973363876,-0.0021051429212093353
1783174390175385300,8.34838525390625,2.667306900024414,0.11811859160661697,0.04821129888296127
1783174390185453000,8.358453125,2.7042548656463623,0.1729903668165207,0.09282351285219193
1783174390195522000,8.36852197265625,2.7479240894317627,0.2272060215473175,0.11072195321321487
1783174390205590300,8.37859033203125,2.782752513885498,0.27817362546920776,0.11509140580892563
1783174390215659300,8.3886591796875,2.8134448528289795,0.3087846040725708,0.11325927078723907
1783174390225727000,8.39872705078125,2.8261139392852783,0.3128403425216675,0.11350347846746445
1783174390235796200,8.408796142578124,2.8298308849334717,0.32498568296432495,0.11008557677268982
1783174390245865200,8.418865234375,2.8362081050872803,0.34095677733421326,0.08637256175279617
1783174390255933000,8.428932861328125,2.8388404846191406,0.36701875925064087,0.06102414429187775
1783174390266002200,8.439002197265625,2.84159517288208,0.4050169885158539,0.04311811551451683
1783174390276070100,8.449070068359376,2.8475139141082764,0.4433780312538147,0.04670460522174835
1783174390286139100,8.45913916015625,2.871605634689331,0.4606635570526123,0.06016448512673378
1783174390296208100,8.4692080078125,2.903764009475708,0.44261157512664795,0.07296129316091537
1783174390306276000,8.479276123046875,2.9569616317749023,0.3804858922958374,0.06806027889251709
1783174390316345300,8.489345458984374,3.017646312713623,0.2811943292617798,0.0666232481598854
1783174390326413300,8.499413330078125,3.062407970428467,0.1591152846813202,0.07683727145195007
1783174390336482300,8.509482421875,3.0882136821746826,0.07016640901565552,0.09228071570396423
1783174390346550300,8.51955029296875,3.0833988189697266,0.0541168674826622,0.09373746812343597
1783174390356619300,8.529619384765626,3.0489213466644287,0.10733687877655029,0.07914946228265762
1783174390366688300,8.539688232421875,3.001429557800293,0.2173914760351181,0.05989401042461395
1783174390376756500,8.549756591796875,2.9535210132598877,0.31256595253944397,0.05035669729113579
1783174390386825200,8.5598251953125,2.90126371383667,0.3857557475566864,0.0841764435172081
1783174390396893200,8.56989306640625,2.83337140083313,0.43724942207336426,0.14874492585659027
1783174390406962400,8.57996240234375,2.800036668777466,0.46543365716934204,0.1793300062417984
1783174390417031200,8.59003125,2.746522903442383,0.48151659965515137,0.16908299922943115
1783174390427099100,8.60009912109375,2.688878297805786,0.47197476029396057,0.12993958592414856
1783174390437168400,8.61016845703125,2.6453745365142822,0.44297516345977783,0.07748939096927643
1783174390447236400,8.620236328125,2.5933146476745605,0.40258246660232544,0.04867345094680786
1783174390457305300,8.630305419921875,2.5333831310272217,0.3452399671077728,0.05011197552084923
1783174390467373300,8.640373291015624,2.4740817546844482,0.284638911485672,0.07171980291604996
1783174390477442300,8.6504423828125,2.4222590923309326,0.2647251486778259,0.10713379830121994
1783174390487511300,8.66051123046875,2.3820090293884277,0.29963624477386475,0.1418057680130005
1783174390497579300,8.670579345703125,2.3470704555511475,0.37513673305511475,0.15391181409358978
1783174390507648300,8.680648193359374,2.3077313899993896,0.461527556180954,0.14792849123477936
1783174390517716500,8.690716552734376,2.25469708442688,0.528167188167572,0.1322450190782547
1783174390527785200,8.70078515625,2.2056572437286377,0.5662807822227478,0.1172865629196167
1783174390537853200,8.710853271484375,2.1603875160217285,0.564078688621521,0.10755081474781036
1783174390547922400,8.72092236328125,2.124657154083252,0.5291146039962769,0.11846018582582474
1783174390557991200,8.7309912109375,2.1005585193634033,0.4917978346347809,0.13889379799365997
1783174390568059400,8.741059326171875,2.083401679992676,0.49039435386657715,0.14435167610645294
1783174390578128400,8.75112841796875,2.0670394897460938,0.5054821968078613,0.14292554557323456
1783174390588196400,8.7611962890625,2.0439536571502686,0.5299989581108093,0.131571426987648
1783174390598265300,8.771265380859376,2.0206246376037598,0.5654492974281311,0.10898643732070923
1783174390608334300,8.781334228515625,1.9917848110198975,0.5848488807678223,0.08988358080387115
1783174390618402300,8.79140234375,1.9567848443984985,0.5877307653427124,0.07375287264585495
1783174390628471300,8.80147119140625,1.9221755266189575,0.5654236078262329,0.06328904628753662
1783174390638539300,8.811539306640626,1.8920923471450806,0.5621684789657593,0.034998320043087006
1783174390648608500,8.8216083984375,1.8729263544082642,0.569420576095581,-0.0022169584408402443
1783174390658676500,8.831676513671875,1.8572591543197632,0.5586215257644653,-0.049564115703105927
1783174390668745200,8.8417451171875,1.8506603240966797,0.5167366862297058,-0.08984308689832687
1783174390678814500,8.851814453125,1.8504137992858887,0.43976446986198425,-0.08528772741556168
1783174390688882400,8.86188232421875,1.845921516418457,0.3490723669528961,-0.039381757378578186
1783174390698951200,8.871951171875,1.829372763633728,0.27684643864631653,0.012003761716187
1783174390709019400,8.882019287109374,1.8048144578933716,0.2518620193004608,0.04170386493206024
1783174390719088400,8.89208837890625,1.7646477222442627,0.2777053117752075,0.021834922954440117
1783174390729157400,8.902157470703125,1.7175194025039673,0.3146747648715973,-0.03253777325153351
1783174390739225300,8.912225341796875,1.6568530797958374,0.33362871408462524,-0.0816284641623497
1783174390749294300,8.92229443359375,1.5990387201309204,0.32064899802207947,-0.09946098923683167
1783174390759362300,8.9323623046875,1.561121940612793,0.29268819093704224,-0.10449116677045822
1783174390769431300,8.942431396484375,1.5413548946380615,0.2575339376926422,-0.0964612066745758
1783174390779499300,8.952499267578125,1.512451171875,0.21787936985492706,-0.09964416921138763
1783174390789568500,8.962568603515624,1.4715244770050049,0.17038428783416748,-0.11878830194473267
1783174390799637200,8.97263720703125,1.4173336029052734,0.12779416143894196,-0.1583663374185562
1783174390809705200,8.982705322265625,1.349848747253418,0.08324719965457916,-0.20589391887187958
1783174390819774500,8.9927744140625,1.2728424072265625,0.04223036766052246,-0.25150397419929504
1783174390829842400,9.002842529296874,1.1944469213485718,0.042924121022224426,-0.2952165901660919
1783174390839911200,9.0129111328125,1.1153109073638916,0.0983656495809555,-0.3619499206542969
1783174390849981200,9.022981201171875,1.0561306476593018,0.17602263391017914,-0.4528934359550476
1783174390860049200,9.033049072265625,1.0125492811203003,0.2146221101284027,-0.49858567118644714
1783174390870118400,9.043118408203124,0.9666092395782471,0.21626608073711395,-0.46784108877182007
1783174390880186400,9.053186279296876,0.9247420430183411,0.21051909029483795,-0.3766343295574188
1783174390890255400,9.06325537109375,0.8678689002990723,0.22286124527454376,-0.293012410402298
1783174390900324400,9.073324462890625,0.7908642292022705,0.2375028282403946,-0.29186493158340454
1783174390910392300,9.083392333984374,0.6999859809875488,0.22108177840709686,-0.3776261806488037
1783174390920461300,9.09346142578125,0.5939845442771912,0.1232980489730835,-0.4694315195083618
1783174390930529300,9.103529296875,0.4844582974910736,-0.031028401106595993,-0.5720750689506531
1783174390940598300,9.113598388671875,0.34982454776763916,-0.24155957996845245,-0.6895580291748047
1783174390950667300,9.123667236328124,0.21276548504829407,-0.4213205575942993,-0.7767816185951233
1783174390960735200,9.1337353515625,0.08298759907484055,-0.6816449165344238,-0.7491007447242737
1783174390970804500,9.143804443359375,-0.04509207606315613,-0.91086745262146,-0.5675181746482849
1783174390980872400,9.15387255859375,-0.14130054414272308,-1.1011394262313843,-0.36037614941596985
1783174390990941200,9.163941162109374,-0.17467527091503143,-1.2819912433624268,-0.19725832343101501
1783174391001009200,9.174009033203125,-0.15638303756713867,-1.367689609527588,-0.07959848642349243
1783174391011078400,9.184078369140625,-0.06562279164791107,-1.3131219148635864,-0.06195531040430069
1783174391021147100,9.194147216796875,0.07216522842645645,-1.105007529258728,-0.14536148309707642
1783174391031215400,9.20421533203125,0.2119569629430771,-0.8206626772880554,-0.27900901436805725
1783174391041284400,9.214284423828126,0.2974261939525604,-0.49471622705459595,-0.4314727783203125
1783174391051352300,9.224352294921875,0.3170422315597534,-0.1742362082004547,-0.560401439666748
1783174391061421300,9.23442138671875,0.31901487708091736,0.1389385610818863,-0.5578639507293701
1783174391071490300,9.244490234375,0.34485819935798645,0.46369558572769165,-0.41249579191207886
1783174391081558300,9.254558349609376,0.40405672788619995,0.6714778542518616,-0.16668839752674103
1783174391091627300,9.264627197265625,0.46858298778533936,0.7675058245658875,0.10612689703702927
1783174391101695200,9.2746953125,0.5050904154777527,0.8473452925682068,0.29464370012283325
1783174391111764500,9.284764404296874,0.519350528717041,0.9146966338157654,0.3593499958515167
1783174391121832400,9.29483251953125,0.48680973052978516,0.9191739559173584,0.32713374495506287
1783174391131901200,9.304901123046875,0.4119719862937927,0.8968619704246521,0.23347784578800201
1783174391141970400,9.314970458984375,0.3788599371910095,0.8483611345291138,0.16667763888835907
1783174391152038400,9.325038330078126,0.4164304733276367,0.766291618347168,0.17833349108695984
1783174391162107100,9.335107177734375,0.4773715138435364,0.6517573595046997,0.2255896031856537
1783174391172175400,9.34517529296875,0.5304877161979675,0.5200669765472412,0.2835090756416321
1783174391182244400,9.355244384765625,0.5703798532485962,0.3479674160480499,0.35068419575691223
1783174391192313300,9.365313232421874,0.5911657810211182,0.23694661259651184,0.36418431997299194
1783174391202381300,9.37538134765625,0.5861281156539917,0.2191201001405716,0.3840348422527313
1783174391212450300,9.3854501953125,0.5405795574188232,0.17682324349880219,0.3601420223712921
1783174391222518500,9.3955185546875,0.49317336082458496,0.19787269830703735,0.30163437128067017
1783174391232587300,9.405587158203126,0.4620250463485718,0.13060976564884186,0.3579128384590149
1783174391242655200,9.4156552734375,0.4473066031932831,-0.07148611545562744,0.3032550811767578
1783174391252724500,9.425724365234375,0.43304377794265747,-0.12520980834960938,0.19364044070243835
1783174391262793200,9.435793212890625,0.3846149146556854,-0.13297180831432343,0.17385736107826233
1783174391272861200,9.445861083984376,0.3714738190174103,-0.15460945665836334,0.23450233042240143
1783174391282930400,9.455930419921875,0.3632374405860901,-0.07932151854038239,0.28861263394355774
1783174391292998400,9.465998291015625,0.3418991267681122,0.03192031383514404,0.32836300134658813
1783174391303067400,9.4760673828125,0.31638556718826294,0.14816173911094666,0.33455780148506165
1783174391313135900,9.486135986328126,0.2741837799549103,0.20901204645633698,0.37415340542793274
