time,seconds_elapsed,z,y,x
1783170055426275800,0.07027587890625,0.007023030504584312,-0.12843071121051908,0.015948076971899715
1783170055436344800,0.0803447265625,-0.048726913768053055,-0.07365224231854081,-0.04428631923841312
1783170055446414800,0.090414794921875,-0.0835462982147932,-0.06248816648647189,-0.018024691449711097
1783170055456484900,0.10048486328125,0.1044558152526617,-0.13937588359490036,-0.023871892241109163
1783170055466556000,0.110555908203125,0.2228495549649,-0.14346081482097506,-0.007113740995340049
1783170055476626000,0.1206259765625,0.36138708803951736,-0.15476108425334095,0.02764293521242216
1783170055486695000,0.13069482421875,0.47995676884055133,-0.20307094165310263,0.12499484587716869
1783170055496765000,0.140764892578125,0.44169747307300566,-0.07873743662834166,0.0895185866905842
1783170055506834700,0.150834716796875,0.3198632375180721,-0.048303281528502696,0.00911262319497764
1783170055516904000,0.160904052734375,0.10991291161477565,-0.10424334154576062,-0.06314132403242402
1783170055526973700,0.1709736328125,0.059742228779196736,-0.14294380520954728,-0.1688982028131373
1783170055537043700,0.181043701171875,0.07999415869116783,-0.13197101416587828,-0.10714453374682925
1783170055547113000,0.191113037109375,0.09259995776414871,-0.11084463950693607,-0.10586056748405098
1783170055557182700,0.2011826171875,0.08511749305427074,-0.08336933421269059,-0.14724793214425444
1783170055567253000,0.2112529296875,0.07048164945840835,-0.05984203589186072,-0.14670787958395667
1783170055577321700,0.22132177734375,0.09296294585764407,-0.1874776512019336,-0.16980629410138354
1783170055587391700,0.231391845703125,0.2073690772384405,-0.22205255936831234,-0.0726266986630857
1783170055597462000,0.2414619140625,0.3434755837738514,-0.22119857288748024,-0.08672282762536779
1783170055607530800,0.25153076171875,0.3826870656996965,-0.23320494476258755,-0.181029826769419
1783170055617601000,0.26160107421875,0.3865618613064289,-0.2977951980948448,-0.21066855717524885
1783170055627670800,0.2716708984375,0.37428865518867965,-0.3056152241960168,-0.22739689780464395
1783170055637739800,0.28173974609375,0.32506840494573114,-0.3296054638534784,-0.18576889278898015
1783170055647809800,0.291809814453125,0.2642640998929739,-0.3323331352517009,-0.15566630773106588
1783170055657879800,0.3018798828125,0.3897112652480602,-0.34109862550944087,-0.21121344117429106
1783170055667948800,0.31194873046875,0.48278585478663444,-0.4009994058512151,-0.21510445726346222
1783170055678018800,0.322018798828125,0.6310837343752383,-0.4131635986365378,-0.18603337067775427
1783170055688088800,0.3320888671875,0.8569353937655687,-0.51008375768736,-0.12117447473825886
1783170055698157800,0.34215771484375,1.0452864668011665,-0.5277483014546335,-0.0586915506824851
1783170055708227800,0.352227783203125,1.2660142073065042,-0.4799117606550455,-0.01405555948987603
1783170055718297600,0.362297607421875,1.350331489893794,-0.47706309322565793,-0.03253520076600835
1783170055728366800,0.372366943359375,1.4481272627353667,-0.46542292431443927,0.04133863014765084
1783170055738436900,0.382436767578125,1.7180775915712116,-0.44518414614498614,0.170711700242199
1783170055748507000,0.3925068359375,2.063205618727207,-0.3850133166901767,0.2449813986056484
1783170055758575900,0.402575927734375,2.3753882386147973,-0.22283917970135805,0.22943141757324337
1783170055768646000,0.41264599609375,2.5854256582796573,-0.13915639562532306,0.22412364828763529
1783170055778716000,0.4227158203125,2.6573715350717304,-0.05434358460605144,0.27962778283935036
1783170055788784600,0.43278466796875,2.6785551928758617,0.06588336188271642,0.26173227986041453
1783170055798855000,0.44285498046875,2.7736376151055095,0.2517546008013189,0.24765865499088538
1783170055808925000,0.452925048828125,2.801930812653899,0.4512054522611201,0.30115006148070095
1783170055818994000,0.462993896484375,2.8211937315285205,0.6859020968861878,0.2916853734450415
1783170055829064000,0.47306396484375,2.9890555587649343,0.9361755192190409,0.13711760154040528
1783170055839133700,0.4831337890625,3.264713743853569,1.0943582484841345,0.06829575678668916
1783170055849203000,0.493202880859375,3.729982062128186,1.2328437591105699,-0.09300062925321981
1783170055859272700,0.503272705078125,4.346559132245183,1.3171113573372364,-0.21392529394887386
1783170055869342700,0.5133427734375,5.103227979141473,1.3906366122752427,-0.22918821993451563
1783170055879413000,0.5234130859375,5.870841413900256,1.4922845305003225,-0.17391488019768148
1783170055889481700,0.533481689453125,6.3622565653443335,1.6079465071611105,-0.0369368149921298
1783170055899551700,0.5435517578125,6.3245519808501,1.6813155486240983,-0.13056501982547342
1783170055909621800,0.553621826171875,5.563577545714378,1.8455676609307528,-0.3266770457187667
1783170055919690800,0.563690673828125,4.2691596662223334,1.8584693742103873,-0.4187439195195213
1783170055929761000,0.573760986328125,3.282412482151389,1.693081243611127,-0.5977084112569689
1783170055939830800,0.583830810546875,2.6046330475747586,1.550991132621467,-0.8735065893381834
1783170055949900000,0.593900146484375,1.989894298800826,1.2755515587195754,-1.133687292375043
1783170055959969800,0.6039697265625,1.6344769328206776,0.6878862564407289,-1.3721322566829621
1783170055970039800,0.614039794921875,1.5169763425558804,0.17548443106934428,-1.4897484361514448
1783170055980108800,0.62410888671875,1.6258792003452778,-0.21713599962368607,-1.503688990959525
1783170055990178800,0.6341787109375,1.199696691790223,-0.6634414048835635,-0.9237333862751722
1783170056000248800,0.644248779296875,-0.21020810005664825,-1.0760786415584385,0.09678798403851688
1783170056010317800,0.65431787109375,-2.5949697316944595,-1.0623664886787534,1.195051934724301
1783170056020387800,0.664387939453125,-6.014557810917497,-0.7032697035335004,1.7206825133726
1783170056030457900,0.674457763671875,-10.12860348779559,-0.30389804501459,1.4560337980762124
1783170056040526800,0.68452685546875,-13.006250343430041,-0.0095626319848001,0.6919654885783791
1783170056050596600,0.6945966796875,-13.786882834237813,0.264918472148478,0.16511344184372573
1783170056060667000,0.7046669921875,-13.460526727569102,0.2602447812490165,0.06795519972071051
1783170056070736000,0.71473583984375,-12.09711889848113,-0.047252018909901376,0.14936715278793125
1783170056080806100,0.72480615234375,-10.06614849292636,-0.1897356592617929,0.3274033872319385
1783170056090876000,0.7348759765625,-8.191538861906528,-0.24086729608401655,0.4483601823652163
1783170056100945000,0.74494482421875,-6.756092217046022,-0.42937984329164025,0.5495358434360474
1783170056111015000,0.755014892578125,-5.474118808585405,-0.48469271132126446,0.6679550829157233
1783170056121085000,0.7650849609375,-4.260920245665312,-0.433397554500401,0.6499964515727013
1783170056131154200,0.775154296875,-3.1255344057440757,-0.47998541041314596,0.5064131063506007
1783170056141224000,0.785223876953125,-2.0733248616814612,-0.4541977659448981,0.20681935266749932
1783170056151294000,0.7952939453125,-1.3112287290394304,-0.3531226791717112,-0.0075114898749627165
1783170056161363000,0.805363037109375,-0.9548609304666519,-0.2738371071413159,0.013476882819086312
1783170056171433000,0.815432861328125,-0.8699363296359777,-0.14399185295775532,-0.10019552745968102
1783170056181503000,0.8255029296875,-0.8473153325051068,0.009471884961426258,-0.3320108444947749
1783170056191572000,0.835572021484375,-0.8194640335053205,0.1696044331200421,-0.5530929513957351
1783170056201642000,0.84564208984375,-0.6746311996787786,0.19745368629321455,-0.8143040203936398
1783170056211712000,0.8557119140625,-0.4541992272496223,0.2164408569663763,-0.9652169047862291
1783170056221781000,0.865781005859375,-0.32180677280128,0.2717870427437126,-0.9840129368014633
1783170056231850800,0.875850830078125,0.025706688186526296,0.24460604422092436,-0.9946627064358442
1783170056241921000,0.885921142578125,0.42936347667872904,0.21443039392679927,-0.9601890666868537
1783170056251989800,0.89598974609375,0.6705763713300228,0.24172522808760402,-0.8639020909730345
1783170056262060000,0.90606005859375,0.768464498630166,0.30640915105268357,-0.8062862066980451
1783170056272130000,0.916130126953125,0.7793219927310943,0.3681853698775172,-0.6813558317586779
1783170056282198800,0.92619873046875,1.0081406852334738,0.35943799979835744,-0.45822351432964203
1783170056292269000,0.93626904296875,1.304232002019882,0.34158304802551864,-0.2258510748684406
1783170056302338800,0.9463388671875,1.4792249963104724,0.31301132579669355,-0.058655182461161165
1783170056312408000,0.956407958984375,1.5431629232138395,0.274030876147747,0.043652277384884655
1783170056322478000,0.96647802734375,1.581014222702384,0.27955796900615093,0.052953043563105165
1783170056332547800,0.9765478515625,1.7409575318992137,0.30867987246364353,0.039719632377382366
1783170056342617000,0.9866171875,1.9614409422546624,0.3188072987243533,-0.04001779334004968
1783170056352686800,0.996686767578125,2.1609861939996478,0.3676305124737322,-0.018322331822570412
1783170056362756900,1.0067568359375,2.3101818992108107,0.4497901786357164,0.03864223067052662
1783170056372825900,1.016825927734375,2.1299153484314677,0.5084523570932448,0.06701753527810797
1783170056382895900,1.026895751953125,1.880931235256791,0.48121086055487394,0.0558001400899142
1783170056392966100,1.036966064453125,1.7580623959571122,0.5139934784770012,-0.04927853803513571
1783170056403035000,1.047034912109375,1.696336884406209,0.5320565200425684,-0.08060297477189451
1783170056413105000,1.05710498046875,1.798399082520604,0.5047179928705096,-0.12569434504918753
1783170056423175000,1.0671748046875,1.9677824202358722,0.4572856489576399,-0.21781428247774018
1783170056433244000,1.077243896484375,2.124661665686965,0.41668797337040303,-0.25116279065432023
1783170056443314200,1.087314208984375,2.1219266877651215,0.3831343710757792,-0.20088998088482765
1783170056453384000,1.097384033203125,2.01747028799057,0.29750732106417416,-0.21042090255711227
1783170056463453000,1.107452880859375,1.8284546135663986,0.2617787128180265,-0.2067740887536667
1783170056473523000,1.11752294921875,1.4076578897029162,0.17572583860978483,-0.18633067312389612
1783170056483593000,1.127593017578125,0.882543297752738,0.17384528556019066,-0.16183166196038945
1783170056493662000,1.137661865234375,0.4028314435839653,0.16683496840670703,-0.08096888547483831
1783170056503732000,1.14773193359375,-0.01756196017563343,0.1255913961313665,-0.0948094870397821
1783170056513802000,1.157802001953125,-0.28043548249304295,0.09207359580248593,-0.11284344864133745
1783170056523871000,1.16787109375,-0.33406595039367676,0.029855624559521673,-0.0916406112127006
1783170056533941000,1.17794091796875,-0.4652367540925741,-0.04454904356151819,-0.02341499705277383
1783170056544010800,1.1880107421875,-0.6263777486413717,-0.12339797774031758,0.05624936342844739
1783170056554080000,1.198080078125,-0.8865770833134651,-0.06475260428711771,0.15272941402895376
1783170056564149800,1.208149658203125,-1.1004296773523092,-0.02772650357633829,0.1716713938535191
1783170056574220000,1.218219970703125,-1.2049199793964624,-0.01868774933516979,0.12962451497181318
1783170056584290000,1.2282900390625,-1.3602660239309072,0.0002602583713829517,0.22239757341369984
1783170056594359000,1.238359130859375,-1.5553800152301787,0.027286650854349136,0.297259465516638
1783170056604429000,1.248428955078125,-1.493606572884321,0.03990793975740671,0.22337436429029328
1783170056614497800,1.258497802734375,-1.3763099807590244,0.07223711482360959,0.1506148878267035
1783170056624568000,1.268568115234375,-1.2470651766866445,0.04998553552702069,0.13669902906846254
1783170056634638000,1.27863818359375,-1.0792682313799857,-0.030899726784974334,0.05716047779084183
1783170056644707000,1.28870703125,-0.8689356281608343,-0.054741059491038316,-0.08737045961283146
1783170056654777000,1.298777099609375,-0.7870932112544775,-0.06978314580023288,-0.08737794879954308
1783170056664846800,1.308846923828125,-0.7506085239440202,-0.1588834248803556,-0.01230093437489122
1783170056674916000,1.318916015625,-0.6125701725631952,-0.21725129656642675,-0.0005537796915508806
1783170056684985900,1.32898583984375,-0.4828951603800058,-0.20927169598937034,-0.03334680940983817
1783170056695056000,1.339055908203125,-0.4001122477531433,-0.24299466350153087,-0.04227764629712328
1783170056705124900,1.349124755859375,-0.25122458557784555,-0.23949746903553604,0.03835601587397978
1783170056715195000,1.35919482421875,-0.07289455581903458,-0.2869341968625784,0.0027141908621415496
1783170056725265200,1.36926513671875,-0.050665188354253765,-0.33371947504356503,0.0026301841068081555
1783170056735334000,1.379333984375,-0.26040625542104245,-0.3389028690308332,0.11550494120186194
1783170056745404000,1.38940380859375,-0.5638011732190847,-0.4214413053773343,0.1608672739076428
1783170056755474000,1.399473876953125,-0.877390152773261,-0.4199855536110699,0.16000280256541444
1783170056765543000,1.40954296875,-1.1758534593880177,-0.48083428232744335,0.16432607259200885
1783170056775613200,1.41961328125,-1.505809636375308,-0.7023156176790595,0.09945292893145233
1783170056785683000,1.429682861328125,-1.913598410105705,-0.8386356208346784,-0.052189584909938275
1783170056795752000,1.439751953125,-2.433948564133048,-0.95101331512779,-0.2714061171347275
1783170056805822000,1.449822021484375,-3.2083331004619597,-1.0995799286551773,-0.3532388894299045
1783170056815892000,1.45989208984375,-4.1815351587831975,-1.3111824056796728,-0.3522285433435812
1783170056825961000,1.4699609375,-5.196168713167309,-1.4484810446090994,-0.20743235173299907
1783170056836031000,1.480031005859375,-6.5839522740989915,-1.5760257667653261,-0.27359069463219493
1783170056846101000,1.49010107421875,-8.183673535358905,-1.558868003476411,-0.6932718219365924
1783170056856170000,1.500169921875,-9.770742820316553,-1.2894145182467995,-0.9380240696951746
1783170056866240000,1.510239990234375,-10.627975735723972,-0.9990541463278233,-1.1757684114530682
1783170056876309800,1.520309814453125,-10.775465806061028,-0.6128397832848131,-1.1979136077657342
1783170056886379000,1.53037890625,-10.64905359506607,-0.3950127326570451,-0.9656092651046811
1783170056896448800,1.54044873046875,-10.397229874551295,-0.22147359043657777,-0.6782701407030225
1783170056906519000,1.55051904296875,-10.354162301719189,0.18514613951444625,-0.5415220483284443
1783170056916588000,1.560588134765625,-10.35712465865612,0.5783525534018874,-0.3736616093315184
1783170056926657800,1.57065771484375,-10.645662199062109,0.867854554925859,-0.24391033530803397
1783170056936728000,1.58072802734375,-11.136949340212345,0.9935565718248486,-0.13009932027617468
1783170056946796800,1.590796875,-11.45953060451746,0.9503851002268493,0.0936679157892242
1783170056956867000,1.6008671875,-10.962656603145598,0.6860714621037245,0.44193997659198936
1783170056966937000,1.61093701171875,-8.581870304879546,0.4638498297788202,0.5986210691224784
1783170056977006000,1.621006103515625,-5.3023301632940765,0.3166349231213331,0.5483820702910422
1783170056987076000,1.631076171875,-2.1022002430319784,0.008184183238446711,0.3689232556980103
1783170056997145900,1.641145751953125,0.587219458207488,-0.08691628610454499,0.24088410108834504
1783170057007215000,1.651215087890625,2.623698398050666,-0.3199136525310576,0.2686650747982785
1783170057017284900,1.661284912109375,4.138381076711416,-0.6729249072175473,0.16875165221560745
1783170057027355000,1.67135498046875,5.365538606879115,-1.0308123165730387,0.06325505920574069
1783170057037423900,1.681423828125,6.34534751611948,-1.2131957133758813,0.014430530282109975
1783170057047494000,1.691493896484375,7.009449138477445,-1.1947741406962276,0.19097831626664846
1783170057057564000,1.70156396484375,7.519664267459511,-1.2454505810968577,0.3932513490077108
1783170057067633000,1.7116328125,8.40127642184198,-1.159415680936724,0.3869832285236567
1783170057077702700,1.72170263671875,9.560252396187186,-0.914577581525594,0.4610770040646195
1783170057087772700,1.731772705078125,10.873871235233544,-0.7032756948828697,0.7163632130581885
1783170057097841700,1.741841552734375,12.049420743238926,-0.4504517112843692,0.9577215075295418
1783170057107912000,1.751911865234375,12.992315341579914,-0.24905323288813233,0.9632768766343593
1783170057117981700,1.761981689453125,13.30577105014324,-0.017353870382905007,1.130231598963216
1783170057128050700,1.77205078125,12.596692221939563,0.19084069789424538,1.3701780538752675
1783170057138120700,1.78212060546875,11.597023012453317,0.23311536678299308,1.6627165004856883
1783170057148190700,1.792190673828125,10.74482166147232,0.29618279446214435,1.763422753946483
1783170057158259700,1.802259765625,10.442137522292137,0.35780148463770745,1.9897440766751766
1783170057168329700,1.812329833984375,10.711821893668175,0.4112099803507328,2.2143854834929106
1783170057178399700,1.822399658203125,11.179835711258649,0.8054990749083459,1.8186510124325752
1783170057188468700,1.83246875,11.902326978743076,1.2651901775725185,1.5448409394286573
1783170057198538800,1.842538818359375,12.51510231848955,1.651476729068905,1.5225845378264784
1783170057208608500,1.8526083984375,12.42698213648796,1.9454887553632259,1.6688982578605414
1783170057218677800,1.862677734375,11.762046401393413,2.263597988820821,1.3798480917572975
1783170057228747500,1.87274755859375,10.836613809984922,2.476978143042326,1.0384977565091102
1783170057238817800,1.88281787109375,9.660043726760149,2.6480408121466636,0.7853247402772306
1783170057248886800,1.89288671875,8.332775132545828,2.54149036270231,0.6335379956595599
1783170057258956500,1.90295654296875,7.245287938874959,2.271090536533296,0.757305245103687
1783170057269026800,1.91302685546875,6.716745126041769,2.073580297747254,0.8498353525020181
1783170057279095600,1.923095458984375,6.540879440569877,2.010983848580718,0.6491906150825322
1783170057289165800,1.933165771484375,6.573166091668606,2.0866125055387617,0.26919368351595474
1783170057299235800,1.94323583984375,6.982430783170461,2.3256996402077377,-0.07726245043864473
1783170057309304800,1.953304931640625,7.193112345957756,2.451364832227677,-0.06201698704445734
1783170057319374800,1.963374755859375,7.014913249102235,2.4622674806445835,-0.1791452733981423
1783170057329444600,1.973444580078125,6.754972857627272,2.3249787785872815,-0.6265593157533556
1783170057339513900,1.983513916015625,6.151580263254046,2.0264559968702494,-1.0510415231965482
1783170057349583600,1.99358349609375,5.13784862614572,1.4565654207348824,-1.2148968912705778
1783170057359653600,2.003653564453125,3.8359552962064742,0.7104590305157006,-0.8896621167819947
1783170057369722600,2.01372265625,2.624462368160486,0.02561974055543542,-0.5531940006174146
1783170057379792600,2.023792724609375,1.5707944419831037,-0.5485043814964592,-0.2797533819803968
1783170057389862700,2.033862548828125,0.3532441135942936,-1.2661159141153095,-0.28546319272825493
1783170057399931600,2.043931640625,-1.4532190329164265,-1.6827698390856385,-0.5283360382147133
1783170057410001700,2.054001708984375,-5.097816475486755,-1.7568940828301012,-0.8521898066736757
1783170057420071700,2.06407177734375,-9.760709502080083,-2.2719934767223893,-1.1262888526868073
1783170057430140700,2.074140625,-12.88208386553526,-2.7577099781334398,-1.237777562250942
1783170057440211000,2.0842109375,-13.350204066109656,-2.9233170121803878,-0.9782111917201429
1783170057450280700,2.09428076171875,-13.296063310599326,-2.793303854084015,-0.7469013399891555
1783170057460349700,2.104349609375,-14.82177883992791,-2.397187397968769,-0.5926177370544523
1783170057470419700,2.114419677734375,-18.37786388630867,-2.0785414272859692,-0.7075348866973072
1783170057480488700,2.12448876953125,-21.977873414611814,-1.6772195114821196,-1.5284735958650708
1783170057490558700,2.134558837890625,-24.0469406188488,-1.7302466066621243,-2.3504443514943123
1783170057500628700,2.144628662109375,-24.49556818344593,-2.215325540821999,-2.490004505614936
1783170057510697700,2.15469775390625,-23.427836076080798,-2.8240736708790064,-2.2863215695433317
1783170057520767700,2.164767822265625,-22.233374946856497,-3.2821140837267038,-2.142391675905883
1783170057530837800,2.174837646484375,-23.088745575523376,-3.5049741600856184,-1.6251364191539586
1783170057540906800,2.18490673828125,-24.801717368388175,-3.1257953947678208,-1.2507638850741087
1783170057550976800,2.194976806640625,-25.70470548827648,-2.3835998943820593,-1.3537486048609018
1783170057561046500,2.205046630859375,-25.870286511099337,-1.351911890953034,-2.1663956518277523
1783170057571115800,2.21511572265625,-24.17124270582199,-0.6178524968802929,-2.861631540378928
1783170057581185800,2.225185791015625,-20.249517005610464,-0.6775222449451684,-2.2909888307020068
1783170057591255600,2.235255615234375,-14.517989954376219,-0.898613850326836,-0.7089362048625946
1783170057601324800,2.24532470703125,-7.5184145596593615,-0.9348374024830758,0.5915050996374338
1783170057611394600,2.25539453125,0.07621405563056469,-0.5628726601973175,1.2817603502318262
1783170057621464800,2.26546484375,6.474300059247017,-0.19530542221814393,1.501448372425884
1783170057631533600,2.275533447265625,10.742827272784709,0.2566156309664249,1.1464846684973686
1783170057641603600,2.285603515625,12.367996863555907,0.5634478297367692,1.0204824265427888
1783170057651673900,2.295673828125,12.06397767637968,0.4137383297845721,1.4269804298102855
1783170057661742600,2.30574267578125,10.750535947465895,0.7355936179026961,1.8315131243541836
1783170057671812900,2.315812744140625,8.638526258081198,1.5314789151608943,1.8145581901609897
1783170057681882600,2.325882568359375,7.050532259494066,2.016709240490198,1.3309759242996573
1783170057691951900,2.335951904296875,7.497577523335814,2.3446178372979163,1.307650578291714
1783170057702021600,2.346021728515625,8.887844717776774,2.670455473050475,1.792535451184213
1783170057712091600,2.356091552734375,10.227982730436324,3.0714699303403497,2.1172681944347915
1783170057722161000,2.366160888671875,11.456138039469717,3.0352184672638773,2.1680055712424218
1783170057732230700,2.376230712890625,12.779031487339735,2.7568542380869387,2.115334888284653
1783170057742300700,2.38630078125,13.580086003929376,2.5862381437063218,2.185596903643012
1783170057752369700,2.39636962890625,13.268600134134292,2.3466002432867885,2.363897853437811
1783170057762439700,2.406439697265625,11.988726328301428,2.0326956219121812,2.5487606459662318
1783170057772509700,2.416509765625,10.415244839191436,1.8367972022369503,2.572223939140141
1783170057782578700,2.42657861328125,9.006137335202098,1.7762226142868398,2.206335740289092
1783170057792648700,2.436648681640625,8.116027986109255,1.8371693965502083,1.696360849803686
1783170057802718700,2.44671875,8.028035814401507,1.969277773360163,1.58741824452579
1783170057812787700,2.45678759765625,8.192575219216943,2.0129346903875467,1.5487725797891616
1783170057822857700,2.466857666015625,8.31436210849881,2.029380798275769,1.4222040091887116
1783170057832927700,2.476927734375,8.616227917033433,2.1262626711428165,1.1416056642841548
1783170057842996500,2.48699658203125,8.979539251133799,2.227444725421816,0.818416497213766
1783170057853066800,2.497066650390625,9.027582858812808,2.2611489882335065,0.7611625050537287
1783170057863136800,2.50713671875,8.853980442097782,2.2198251903288067,0.7436540286310017
1783170057873205800,2.517205810546875,8.416257133352756,2.1524014671362934,0.6993731344863772
1783170057883275800,2.52727587890625,8.255220183700322,2.1393683825619516,0.433881027168408
1783170057893345500,2.537345458984375,8.361933422490955,2.2042856758914886,0.25001179398829115
1783170057903414800,2.547414794921875,8.563498781886697,2.115972163274884,0.21084563077520577
1783170057913484800,2.55748486328125,8.567435536813736,2.055851602702588,0.14372012334428727
1783170057923553800,2.5675537109375,8.266497364518045,2.091078545036912,-0.07105751311760396
1783170057933623800,2.577623779296875,8.047865719509124,2.1065803578123448,-0.39968247803375123
1783170057943693600,2.587693603515625,7.820926264882087,2.1834075769051906,-0.6574345656841993
1783170057953762800,2.5977626953125,7.570334131988883,2.3975720133721827,-0.7095438153669238
1783170057963832600,2.60783251953125,7.425002700990438,2.333101879288256,-0.6509107168734073
1783170057973902600,2.617902587890625,7.290203185400366,2.058692232955992,-0.44358321375437076
1783170057983971600,2.6279716796875,7.159954757243394,1.8557753128208219,-0.23205617658626287
1783170057994041600,2.63804150390625,6.995380281114578,1.5706541567295789,-0.04100340684391558
1783170058004112000,2.64811181640625,6.3249389343410725,1.287234397728741,0.4515923692194745
1783170058014180600,2.6581806640625,5.0017789444893594,0.96936496437639,0.9555046351976693
1783170058024250600,2.668250732421875,3.380729648518562,0.4435942466050386,1.4521332835063336
1783170058034320600,2.678320556640625,2.353539394900203,-0.3048540305651724,1.7301777792096138
1783170058044389600,2.6883896484375,1.5457424183130264,-0.8897494297392666,1.732769549268484
1783170058054460000,2.6984599609375,0.33272739526629447,-1.445091402170807,1.466110224802047
1783170058064529700,2.70852978515625,-2.019064279183745,-1.7098790875464678,1.4211312653906643
1783170058074599000,2.718598876953125,-5.080637961670756,-2.0626688815020024,1.1845273989047855
1783170058084668700,2.728668701171875,-7.954294870886206,-2.51389713011682,0.6352195190057158
1783170058094738700,2.73873876953125,-9.379988768017292,-2.834913629323244,-0.023437099286727606
1783170058104807700,2.7488076171875,-9.548017768514155,-2.876993944683671,-1.1938073414906858
1783170058114877700,2.758877685546875,-9.999018491983414,-2.9638349005296827,-2.234177248547226
1783170058124947700,2.76894775390625,-11.792738476777076,-2.9443431413352488,-2.0620260535538195
1783170058135016700,2.7790166015625,-16.15261243314743,-2.3644871976330877,-1.3533223422728478
1783170058145086700,2.789086669921875,-22.325797209966183,-1.0099524108305573,-1.7637458484210073
1783170058155156700,2.79915673828125,-27.560361412501333,0.10876271866634488,-3.2262717849954963
1783170058165225700,2.809225830078125,-30.37078474369049,0.3768848091617226,-4.613803124731779
1783170058175295500,2.81929541015625,-28.576978249657152,-0.446947794816643,-4.456241742235422
1783170058185365800,2.82936572265625,-23.075801922798156,-2.041400029632449,-2.7610134035930036
1783170058195434800,2.839434814453125,-18.454243361634013,-3.1704402999192474,-1.8755397514767944
1783170058205504800,2.8495048828125,-15.796011994862555,-3.713402683249116,-1.4966396569699048
1783170058215574800,2.85957470703125,-15.476774195766447,-3.529475271874666,-1.6767206220492719
1783170058225643500,2.8696435546875,-15.7960377138257,-2.7557261108398436,-1.9126579143851994
1783170058235713800,2.8797138671875,-15.7499773889184,-2.006623899805546,-1.7403301937811075
1783170058245783800,2.88978369140625,-14.720206471157073,-1.3929549722202121,-1.4873793689325452
1783170058255852800,2.899852783203125,-12.242874107849596,-1.2746490569218993,-1.1933585017446429
1783170058265922800,2.9099228515625,-8.892025218331813,-1.179584462609887,-0.8186695951920002
1783170058275991600,2.919991455078125,-5.359437951916456,-1.3374997731104492,-0.7513286549121141
1783170058286061800,2.930061767578125,-1.559215647870302,-1.5495575926870107,-0.30346652172952887
1783170058296131600,2.940131591796875,2.0652116978526114,-1.205422668221593,0.058971755863353605
1783170058306200800,2.950200927734375,4.696099130624533,-0.7222060208022594,-0.06088613811731338
1783170058316270600,2.9602705078125,6.31425621228516,-0.3328146351583302,-0.7031269340619445
1783170058326340600,2.970340576171875,7.179134089487791,0.3506568735800683,-0.45869062038473785
1783170058336409900,2.980409912109375,7.6971753820508715,0.6906611279815436,0.591648965087533
1783170058346479600,2.990479736328125,8.203777581232785,0.8738773223467171,1.2146476657498628
1783170058356549600,3.000549560546875,8.781384576964378,1.0827733168914913,1.0941621413901448
1783170058366618600,3.01061865234375,9.420166464626789,1.1458474665723741,1.0454203223139047
1783170058376688600,3.020688720703125,9.855948576176166,1.1562575091667473,0.7041499204341322
1783170058386759000,3.030759033203125,10.236474664449691,1.1677980170957742,0.4461783448141068
1783170058396827600,3.04082763671875,10.468833806037901,1.181898146379739,0.298260696714744
1783170058406897700,3.050897705078125,10.327831928676366,1.01262338360548,0.07086465742662548
1783170058416967700,3.0609677734375,10.048834954553842,0.819394913791865,0.02079085909426212
1783170058427036700,3.07103662109375,9.620555765980482,0.5667652837216853,0.2136710269268602
1783170058437106700,3.081106689453125,9.017684565132855,0.4600453229293227,0.5499069417707622
1783170058447176700,3.0911767578125,8.519191438126564,0.5732607832208275,0.7909730483625084
1783170058457245700,3.10124560546875,8.123336847817898,0.7345952545151114,0.9880158157672733
1783170058467315700,3.111315673828125,7.89257403551042,0.8711626565605401,1.2239555192559957
1783170058477385700,3.1213857421875,7.641213840854167,0.9057890026532113,1.500882409106195
1783170058487454700,3.131454833984375,7.635790646761655,0.868727246107161,1.6154565905302762
1783170058497524700,3.141524658203125,7.845852616345882,0.982242566128075,1.5917817004323005
1783170058507594800,3.1515947265625,7.996901255947351,1.0959902336001395,1.510787424787879
1783170058517663700,3.161663818359375,8.154449194440245,1.250556672064215,1.4914698531165718
1783170058527733800,3.171733642578125,8.333415184015035,1.4255639871411026,1.4658321385130286
1783170058537803800,3.1818037109375,8.529721599969267,1.496381882816553,1.418017517284304
1783170058547872800,3.191872802734375,8.647990251997113,1.5802765560775995,1.3444327872440218
1783170058557942500,3.201942626953125,8.707473537579178,1.6343981684960425,1.2749039084658027
1783170058568011800,3.21201171875,8.652261937966943,1.713537610054016,1.2170904557920992
1783170058578081500,3.22208154296875,8.639722189867497,1.8013238839261232,1.1051455999583004
1783170058588151800,3.23215185546875,8.705539939168094,1.8842032426647841,0.9195392955861985
1783170058598220800,3.242220703125,8.816730031111836,2.005127523767948,0.7487173033699392
1783170058608290600,3.25229052734375,8.706625396317243,2.160631681473553,0.6418611489772796
1783170058618360800,3.26236083984375,8.428788113623858,2.2579148286178707,0.5524440225003286
1783170058628429600,3.2724296875,8.07385531629026,2.596287828555703,0.5159791358688846
1783170058638499800,3.282499755859375,7.449479555121064,2.7402076391905545,0.41732597901299595
1783170058648569900,3.29256982421875,6.961718834531307,2.7373218546211717,0.32511706639304755
1783170058658638600,3.302638671875,6.706380383893847,2.7343179966300726,0.18018004153966902
1783170058668708900,3.312708984375,6.4905936069220305,2.4763202636554835,-0.07578523575924337
1783170058678778600,3.322778564453125,6.339035848754644,1.6606538688674568,-0.061244961492344735
1783170058688848000,3.332847900390625,5.812257122984528,0.8214907170273363,0.4185482142843306
1783170058698917600,3.342917724609375,4.395831404936313,-0.07503039880394935,0.9043958677943795
1783170058708987600,3.352987548828125,1.7583897282153367,-1.4544379071868956,1.2870531959429383
1783170058719056600,3.363056640625,-1.5538532440543174,-2.7475194235086438,1.3660077824532986
1783170058729126700,3.373126708984375,-5.326072857931256,-3.7960324511408805,1.133722655949369
1783170058739196700,3.38319677734375,-9.391624260753392,-4.492919906291365,0.4734976558290422
1783170058749265700,3.393265625,-12.340323259210585,-5.713056159520149,-0.5755714713159948
1783170058759335700,3.403335693359375,-13.911584734183549,-7.18840460665822,-0.8849830921202898
1783170058769405700,3.41340576171875,-15.043948595935106,-7.572472897583245,-0.13267342681419103
1783170058779474700,3.423474609375,-16.449565919721124,-7.369343357610702,1.4503060680791735
1783170058789544700,3.433544677734375,-19.992612620830535,-6.2265083707273,2.576539464251697
1783170058799614700,3.44361474609375,-25.24412562007904,-4.199438772003353,1.2074643301170318
1783170058809683700,3.45368359375,-30.90975133538246,-1.3421296248681842,-1.8788544289827345
1783170058819753700,3.463753662109375,-34.97007652798891,0.5538105250805616,-4.943604403418302
1783170058829823700,3.47382373046875,-34.34363039028644,0.9340179027937352,-6.481560990160704
1783170058839892700,3.483892822265625,-30.096746853280067,0.7205621991179884,-6.757752259212732
1783170058849962800,3.493962646484375,-25.902666685700414,0.034532238068431614,-5.399001316019892
1783170058860031500,3.504031494140625,-22.972367267286778,-0.46031756399944423,-3.242514771527052
1783170058870101800,3.514101806640625,-19.79918731327057,-0.9121599989898502,-1.7149460155472158
1783170058880171800,3.524171875,-15.093164170002936,-0.9048015990510583,-0.7902809013798833
1783170058890240800,3.53424072265625,-9.595020927229523,-0.8208009811975061,0.36014801123123613
1783170058900310800,3.544310791015625,-4.539765828618407,-0.3576303658545017,1.415882404951751
1783170058910380500,3.554380615234375,-0.5287947417676448,0.1681836065366864,0.618644816301763
1783170058920449800,3.56444970703125,2.667355753469467,0.1596890421748161,-0.9612702129870653
1783170058930519800,3.574519775390625,5.833002389371395,-0.025052315931022164,-0.7417259831778704
1783170058940589600,3.584589599609375,8.317002978396415,-0.8025000392228364,-0.15435462234430014
1783170058950658800,3.594658935546875,9.021105771753192,-1.3243144205838442,0.1818932021331042
1783170058960728600,3.604728515625,8.330991756260394,-1.2530375290945173,0.2638362298697233
1783170058970798800,3.614798828125,7.371984812030195,-0.7077377888582647,0.25080248770825564
1783170058980867600,3.62486767578125,7.519388957649469,0.22817498777136205,-0.10835822951868176
1783170058990937600,3.6349375,8.765013287878036,1.1769114440083503,-0.3914638810690492
1783170059001007900,3.6450078125,10.533767173719406,1.7089502822637557,-0.4766331043105572
1783170059011076600,3.65507666015625,11.89336742721796,1.8140613465547561,-0.12607852206118403
1783170059021147000,3.66514697265625,12.975025184082984,1.7772364675045011,0.1253599985282868
1783170059031216600,3.675216552734375,13.060428508341312,1.7882853925243019,0.41401122844181953
1783170059041285600,3.68528564453125,12.24124679890871,1.58101217687577,0.5432105128720403
1783170059051355600,3.695355712890625,11.018702900016308,1.3072080952212213,0.7991730136919766
1783170059061425700,3.70542578125,9.96840123540163,1.2579904753267763,1.4142831530615687
1783170059071495000,3.715494873046875,9.049732731300592,1.3803656858906148,1.9238921328440308
1783170059081564400,3.725564453125,8.141019804024696,1.2871478884890675,2.291926549943536
1783170059091633400,3.73563330078125,7.490158771511912,1.3397525204733014,2.670681390760839
1783170059101703400,3.745703369140625,7.17452747247517,1.5772718213036656,3.080643124616146
1783170059111773400,3.7557734375,7.50183810338974,1.8723609753102064,2.9506343504339454
1783170059121842400,3.765842529296875,8.16859637773633,2.168838076543808,2.6255212295636534
1783170059131912400,3.775912353515625,8.910089282810688,2.408576514728367,2.3384029083058238
1783170059141982200,3.785982177734375,9.405137822321057,2.5130603870317336,1.9834949531525372
1783170059152051500,3.796051513671875,9.745873167476057,2.596741125281155,1.7505058430977165
1783170059162121200,3.806121337890625,9.544439910027384,2.718658362944424,1.5610858256563542
1783170059172191500,3.81619140625,8.912557718750834,2.696780293135345,1.4430864920891822
1783170059182260200,3.82626025390625,8.727731312710047,2.6108696038767696,1.3719292814567685
1783170059192330200,3.836330322265625,8.722350788715481,2.703747501799464,1.4532561500564216
1783170059202400500,3.846400390625,8.726702554184198,2.792124873432517,1.2380942269846795
1783170059212469200,3.85646923828125,8.882226293373108,2.8909315768823025,0.739824168144539
1783170059222539500,3.86653955078125,8.942241493874787,3.097835374696553,0.42589097826257344
1783170059232609300,3.876609375,8.82973856576681,3.2288366670474407,0.37340215467773374
1783170059242678500,3.886678466796875,8.794488388687371,3.208209181821346,0.26058526524975895
1783170059252748500,3.89674853515625,8.599055832958221,3.329216611163318,0.25457484585382045
1783170059262818300,3.906818359375,8.42828016410172,3.3849440513432025,0.3245326175685972
1783170059272887600,3.916887451171875,8.112303997150063,3.1965090994164345,0.4431437994237989
1783170059282957300,3.926957275390625,7.401933960092068,3.0722283474922176,0.3492632272645831
1783170059293027300,3.93702734375,6.952986662021279,2.8724270751595498,0.04057400245070457
1783170059303096300,3.947096435546875,6.896476839292049,2.4975892616555093,-0.17318850215189158
1783170059313166300,3.957166259765625,6.683439068767428,1.8883727834343909,0.0594010871913284
1783170059323235300,3.9672353515625,6.074782270255684,0.8896332560136914,0.16224150313660501
1783170059333305300,3.977305419921875,4.726165767586231,-0.3144827135235071,0.03208813285194337
1783170059343375400,3.987375244140625,2.0838912638813256,-1.0120756865948437,0.03272854964733123
1783170059353444400,3.9974443359375,-1.8538117576628923,-1.3508286257609725,0.16918430801182985
1783170059363514400,4.007514404296875,-5.871278051751852,-1.2435082148574292,0.41926235390305516
1783170059373584400,4.01758447265625,-9.193529792338609,-1.5226944279417394,0.18985906644575296
1783170059383653400,4.0276533203125,-11.51244035692811,-2.7365900332152844,-0.22732706570513544
1783170059393723400,4.037723388671875,-12.839479234039782,-3.8514451262831684,-0.4262004826031625
1783170059403793400,4.04779345703125,-12.905109351813792,-4.692462235426903,-0.6267748582001775
1783170059413862400,4.0578623046875,-12.39650867229104,-5.261369791874289,-0.15458576421905307
1783170059423932400,4.067932373046875,-12.46230479428172,-5.2783133278906345,0.6732241824250668
1783170059434002400,4.07800244140625,-14.740171400821207,-4.880604634147883,0.9290550927545875
1783170059444071200,4.0880712890625,-18.536750964450835,-3.9833050812900064,0.2103671996084973
1783170059454141400,4.098141357421875,-22.807094872021676,-2.862513583910465,-1.0530825275048612
1783170059464211500,4.10821142578125,-25.800803225028513,-2.4919430724620817,-2.680151814417541
1783170059474280400,4.118280517578125,-25.464850437974928,-2.7209122793510554,-3.8645986223667856
1783170059484350500,4.1283505859375,-22.658635664391515,-3.2449072196215387,-3.8550063258960843
1783170059494420200,4.138420166015625,-20.39968301715851,-3.7409716581761834,-3.336396585795283
1783170059504489500,4.148489501953125,-19.90451581970453,-3.691856037351489,-2.3751395245507356
1783170059514559200,4.158559326171875,-20.23003839815855,-3.1727439006865024,-0.6586677607409656
1783170059524629200,4.168629150390625,-20.253082589137552,-2.489773911729455,0.09873210384361446
1783170059534698500,4.178698486328125,-18.78170772180557,-2.157498351883888,0.00669884005151689
1783170059544768300,4.188768310546875,-15.740741943061352,-1.8177742295980452,0.24800386996567247
1783170059554837500,4.19883740234375,-12.030338441628217,-1.3080119589500128,0.0160502404384315
1783170059564907300,4.2089072265625,-7.97672356031537,-0.6278099734015763,-0.28399401522483675
1783170059574977300,4.218977294921875,-3.962475643751025,0.22708470831662414,-0.2868230646383017
1783170059585046300,4.22904638671875,-0.12539923456013202,-0.00284340673238039,-0.364001142995432
1783170059595116300,4.2391162109375,1.9334288997352123,-1.412232942533493,-0.8939114447895437
1783170059605186600,4.2491865234375,1.8131424781441687,-2.35818809748888,-0.2671112694850191
1783170059615255300,4.25925537109375,1.2866104206115008,-2.33388718444705,0.7719988102361559
1783170059625325600,4.26932568359375,2.0293822595804927,-1.3244222648724913,1.2727723032645881
1783170059635395300,4.279395263671875,4.008632999292016,0.010316665222495794,0.9598311200946569
1783170059645464300,4.28946435546875,6.466387970948219,0.5432574207536875,0.8285157933585345
1783170059655534300,4.299534423828125,9.425537636271118,0.9433404424123465,1.1517203041285275
1783170059665604400,4.309604248046875,12.122803959357737,1.5675572136275469,1.1773619642548263
1783170059675673600,4.319673583984375,13.930056794941425,2.0912531709514557,0.3978524861276149
1783170059685743400,4.329743408203125,14.421042322796582,2.2606461532779036,-0.6560194381892681
1783170059695813400,4.3398134765625,13.379759830939769,2.196397552990168,-1.3750994359254836
1783170059705882400,4.34988232421875,11.348733311283588,1.9740883885122835,-1.5615435062959788
1783170059715952400,4.359952392578125,9.658646719443798,1.5530392973229288,-1.3791057489573955
1783170059726022400,4.3700224609375,8.741969096899032,1.300274496565759,-0.7903780781440436
1783170059736091400,4.38009130859375,8.4126500487715,1.127491287279129,-0.09783354756869375
1783170059746161400,4.390161376953125,9.160124366343021,1.4729747037440537,0.9287482918277382
1783170059756230400,4.40023046875,9.990694900274276,2.0082672830983994,1.5136859227083623
1783170059766300400,4.410300537109375,10.558763667809963,2.4284525970652697,1.313126379354298
1783170059776370200,4.4203701171875,10.555361750411986,2.847593662676215,1.072939612880349
1783170059786439400,4.430439453125,9.8625606877923,2.826515218812227,0.9847536721661686
1783170059796509200,4.44050927734375,8.927547782611846,2.553331022621691,1.0474429141826926
1783170059806579500,4.450579345703125,8.264127128255367,2.3626731339484452,1.100993156453967
1783170059816648400,4.4606484375,7.804041181054711,2.1906002648882565,0.9893807474449277
1783170059826718200,4.47071826171875,7.8148589276671405,2.218008642426133,0.8636865485262125
1783170059836788500,4.48078857421875,7.949477825993299,2.322211213570088,0.9866986687541007
1783170059846857200,4.490857177734375,8.113384193602204,2.454463821156323,1.1906596911147236
1783170059856927500,4.500927490234375,8.549179749155044,2.678159471556544,1.004518037756905
1783170059866997500,4.51099755859375,8.883447359600662,2.8084365412861105,0.5559669724620878
1783170059877066500,4.52106640625,8.87356718609929,2.6869226237267254,0.3920740853892639
1783170059887136500,4.531136474609375,8.770393227350711,2.4440835891783235,0.424073407446593
1783170059897206300,4.541206298828125,8.90213978511095,2.1359761097751555,0.40866219556406136
1783170059907275500,4.551275634765625,9.263173821929097,2.1497997602052985,0.3060971990266815
1783170059917345300,4.56134521484375,9.601172435596585,2.3202611024156212,0.28656532701756804
1783170059927415300,4.571415283203125,9.5270679194659,2.394889057898521,0.31821181704923507
1783170059937484300,4.581484375,9.13272899441719,2.55371534576416,0.4454224118802696
1783170059947554300,4.59155419921875,8.35166337288916,2.5954870335668323,0.26700368092469867
1783170059957623600,4.60162353515625,7.552361837446689,2.5389637668341396,0.1263961001103744
1783170059967693300,4.611693359375,6.8132847613424055,2.573187815736234,0.20461853642128408
1783170059977763300,4.621763427734375,6.107735860830545,2.4526781067833303,0.1056372801221907
1783170059987832300,4.631832275390625,5.580168615031242,2.100412775093317,-0.1711154222048819
1783170059997902300,4.64190234375,5.168587463280558,1.606255777595192,-0.22476634837165474
1783170060007972400,4.651972412109375,4.247385056787729,0.7937817491076886,0.3416543231634423
1783170060018041300,4.662041259765625,2.2384704156965016,0.04423223269730806,1.1136186831407249
1783170060028111400,4.672111328125,-0.6404600500077009,-0.4695115088023245,1.805424451112747
1783170060038181400,4.682181396484375,-3.7068098608553406,-0.797390733385086,2.6133354094684123
1783170060048250400,4.69225048828125,-6.377176486578583,-1.0832850658059119,2.8330338069260117
1783170060058320400,4.7023203125,-7.953706257343292,-1.4169741457112133,1.9221599022239446
1783170060068390400,4.712390380859375,-8.370506020525097,-1.9911080585047602,0.540436810375005
1783170060078459600,4.722459716796875,-9.101895464736224,-2.8807468674764034,-1.1226613829046488
1783170060088530000,4.732530029296875,-10.396840582972764,-3.6702953629285093,-2.4981992102473973
1783170060098600000,4.742599853515625,-11.725243734174967,-4.176192044189572,-2.8924840670213103
1783170060108669000,4.7526689453125,-13.807318888545035,-4.751669334416091,-2.379703909856826
1783170060118739000,4.762739013671875,-16.45382825334072,-4.617110349583625,-1.3443312265656888
1783170060128807700,4.7728076171875,-19.89315505225658,-3.703165366873145,-1.7223206359684466
1783170060138878000,4.7828779296875,-23.505264183676243,-2.5714526625066996,-2.8609847669079898
1783170060148947700,4.79294775390625,-26.275579960882663,-1.6936951377257703,-3.918948636713624
1783170060159017000,4.803016845703125,-26.945991497039792,-1.8912934931866823,-4.467255888202786
1783170060169087000,4.8130869140625,-24.738338828933237,-2.62857681774199,-3.851436650715768
1783170060179156700,4.82315673828125,-21.978836706686018,-3.552414833435416,-2.677264860804379
1783170060189226000,4.83322607421875,-20.60766291977167,-3.958001128685474,-2.0836383120335635
1783170060199295700,4.843295654296875,-20.90953574256897,-3.6932054061338304,-1.411830937603861
1783170060209365800,4.85336572265625,-21.451340772557256,-3.177869280876219,-0.7056963461585343
1783170060219434800,4.863434814453125,-20.41945154746771,-2.5497867741435765,-0.0048475861616432666
1783170060229504800,4.8735048828125,-17.75774344449639,-2.070592367977649,0.3417279363889247
1783170060239574800,4.88357470703125,-14.438588500881194,-1.7059857333697377,0.7206826836925
1783170060249643800,4.893643798828125,-10.546996073126792,-1.0516885889284313,0.7806642011202871
1783170060259713800,4.9037138671875,-5.2195396518826485,-0.4547271966464817,-0.20092771907933055
1783170060269783800,4.91378369140625,0.25122809270918367,-0.45317397585511204,-0.8364364302899688
1783170060279852800,4.923852783203125,3.9575551384836434,-0.5297422517508268,-1.2418375051662325
1783170060289922800,4.9339228515625,4.932395611661672,-1.0580506713062525,-1.5700985686734317
1783170060299991800,4.94399169921875,3.9013580349653956,-0.9117749451950192,-0.8668381444249301
1783170060310061800,4.954061767578125,2.706075067964196,-0.25916692288443444,0.16536584570221602
1783170060320131800,4.9641318359375,2.3702181425005198,0.2136993031732738,0.7221977644305676
1783170060330200800,4.974200927734375,3.1588609212845564,0.8498029115371406,1.6977356452882288
1783170060340270800,4.984270751953125,5.086175137531757,1.4567515909567474,2.392711713859439
1783170060350340900,4.9943408203125,7.627969159355759,2.3174743943065406,2.5214608433693644
1783170060360409900,5.004409912109375,10.159481441140175,2.87360137963593,1.8919670085340736
1783170060370479900,5.01447998046875,12.285287016165256,3.169676037548482,0.9160163090918213
1783170060380550000,5.0245498046875,13.224393912661075,2.860534977313876,0.8444801821444183
1783170060390619000,5.034618896484375,13.533683149194717,2.5360972714871166,0.852882684308663
1783170060400689000,5.04468896484375,13.291657184594868,2.4275731838822363,0.5135322907060385
1783170060410758700,5.054758544921875,12.377941918987036,1.956495302546024,0.1967026487302035
1783170060420828000,5.064827880859375,11.746298212641477,1.6115949466660617,0.20581402981616556
1783170060430897700,5.074897705078125,11.558684221708774,1.49167852743119,0.7169196778971701
1783170060440967700,5.0849677734375,11.862326976788044,1.4493731711432336,1.1937605066742747
1783170060451037000,5.095036865234375,11.930825927996635,1.6612281616240738,1.2690870388805866
1783170060461106700,5.105106689453125,11.640752264064549,1.836124709802866,1.215945669671148
1783170060471176000,5.115176025390625,10.815983694410324,2.112858122907579,1.5837141293108463
1783170060481245700,5.12524560546875,9.326250748088956,2.402274784235656,1.8711967538364231
1783170060491316000,5.13531591796875,7.75049839143753,2.6019492153182626,1.4480096277050674
1783170060501384700,5.145384765625,6.841712983447313,2.652143571290374,1.0977538822717965
1783170060511454700,5.155454833984375,6.73558134393692,2.7165724965810774,1.1423274757526813
1783170060521525000,5.16552490234375,7.071743974348903,2.7391888175368306,1.1678747355937957
1783170060531593700,5.17559375,7.677021651816368,2.7576085635855794,1.0266389764111488
1783170060541664000,5.1856640625,8.471889004203677,2.740684024530649,0.8600502378504723
1783170060551733800,5.195733642578125,9.110004536911845,2.7743893102556467,0.954683162746951
1783170060561802800,5.205802734375,9.23407339965105,2.9731802365019915,0.9047706924561411
1783170060571873000,5.215873046875,9.06141147865653,2.8805846626520157,0.9053189009234308
1783170060581942800,5.22594287109375,9.07580708375573,2.6374732409030197,0.9169333508715033
1783170060592012000,5.236011962890625,9.394238242644072,2.487628716394305,0.880609772406891
1783170060602081800,5.246081787109375,9.777899121811986,2.3880603809222576,0.8224532784491777
1783170060612151800,5.25615185546875,10.223970572185516,2.2855087918557224,0.7277472883164883
1783170060622220800,5.266220703125,9.993308882164955,2.260728863125294,0.8213689903438091
1783170060632290800,5.276290771484375,9.366858068287373,2.2764660920917987,0.847874062366411
1783170060642359800,5.28635986328125,9.06622092476487,2.572680158475041,0.7574448727700859
1783170060652429800,5.296429931640625,8.67333979730904,2.720527663947642,0.5688626943923533
1783170060662499800,5.306499755859375,8.027797913992405,2.5486335124552246,0.377601652194187
1783170060672568800,5.31656884765625,7.430978268268704,2.187957349164039,0.4077751105312258
1783170060682637800,5.326637939453125,6.816079360496998,1.5945120021790264,0.25627602374851705
1783170060692706800,5.336706787109375,5.96501607363522,0.7151308217190205,0.252780144456774
1783170060702776800,5.34677685546875,4.332205612722039,-0.24394144283235072,0.6059503525646404
1783170060712846800,5.356846923828125,2.051741975426674,-1.1849256775073707,1.032696742080152
1783170060722915800,5.366915771484375,-0.22167115883529184,-2.340219456208497,0.9978145945955067
1783170060732985900,5.37698583984375,-2.7002269264578818,-2.9846935641631482,0.7092471705079079
1783170060743054800,5.387054931640625,-6.211840378427505,-3.4072383007377383,-0.07985577313378453
1783170060753124600,5.39712451171875,-11.39149342560172,-4.346149382400513,-1.2717020436845718
1783170060763195000,5.40719482421875,-16.31962202746868,-4.980132929870486,-2.170809084355831
1783170060773264000,5.417263916015625,-19.466888957071305,-5.27123535232842,-2.6989915394440294
1783170060783334000,5.427333984375,-21.364247010993957,-5.687141966062784,-3.276554111512005
1783170060793404000,5.43740380859375,-23.776877477288245,-5.368557662439346,-3.048955900715291
1783170060803472600,5.44747265625,-27.294951065182683,-4.440853618967533,-2.1011318831481036
1783170060813543000,5.45754296875,-29.92359042676687,-3.718428402456641,-1.6185883126847445
1783170060823613000,5.467613037109375,-30.26039193960428,-3.292242386770248,-1.6927542036138474
1783170060833682000,5.477681884765625,-28.57055084695816,-3.4926614987403153,-1.513020736797899
1783170060843752000,5.487751953125,-26.126113037514685,-3.8469542446047065,-0.9266704626403749
1783170060853821700,5.49782177734375,-23.97532265883684,-4.274275986322761,-1.031383905915916
1783170060863891000,5.507890869140625,-21.744728675603866,-4.169458352020382,-1.724550586977601
1783170060873960700,5.517960693359375,-18.606687839508055,-3.9752535845205186,-2.608859725359082
1783170060884030700,5.52803076171875,-14.794977342242001,-3.5803953117728233,-3.1363164965212342
1783170060894099700,5.538099609375,-11.312429825758933,-2.8251421768933533,-3.086045568181574
1783170060904169700,5.548169677734375,-9.296298092895746,-1.7516401078246533,-3.270881618833542
1783170060914239000,5.558239013671875,-9.18927505750358,-0.8110401962921023,-3.885773220081627
1783170060924308700,5.568308837890625,-9.152505123510956,0.19566198057085274,-3.630185470858216
1783170060934378800,5.578378662109375,-6.918039851802587,0.5561031660623849,-2.1891624871701
1783170060944447700,5.58844775390625,-2.8455671252846715,0.5867987485773861,-1.1165049061015249
1783170060954517800,5.598517822265625,0.657865942838788,1.2182502933517099,-0.4264493427976966
1783170060964588000,5.608588134765625,3.828169464635849,1.4602338801145553,0.4744111904773861
1783170060974656800,5.61865673828125,6.653739511552453,1.600493999198079,1.017042515221983
1783170060984726800,5.628726806640625,9.578846622020006,1.757436080752313,0.7612699109509586
1783170060994796800,5.638796875,12.113097388857602,2.0493642865099013,0.6638448711179197
1783170061004865800,5.64886572265625,13.733463378739357,2.0722790058903393,0.875898525976017
1783170061014935800,5.658935791015625,14.62951439284086,2.113412395789474,0.9752435740862041
1783170061025005800,5.669005859375,15.069460638332366,2.1547421850435433,0.6561900455158204
1783170061035075000,5.679074951171875,15.017579644447563,2.010652570799738,0.4026060373302549
1783170061045144800,5.689144775390625,14.388369887250661,1.7298662290424107,0.2959193212203681
1783170061055217000,5.699216796875,13.582069871222972,1.4307393439523874,0.599351867615059
1783170061065286000,5.709285888671875,12.817398335134982,1.2295548005677759,0.995846509392932
1783170061075355600,5.719355712890625,11.819483860361576,1.1940990179136395,1.1170745226830243
1783170061085426200,5.72942626953125,10.964452254390716,1.181227553641796,1.0816222471602261
1783170061095495200,5.7394951171875,10.568512323886155,1.229405747485906,1.1741544003851712
1783170061105565200,5.749565185546875,10.683192011511325,1.429001414243877,1.26513596316725
1783170061115634200,5.75963427734375,10.990728851419687,1.620598921854794,1.273735741469264
1783170061125704200,5.7697041015625,11.120222661817072,1.8014174074284732,1.3630894107885658
1783170061135774200,5.779774169921875,10.781229191893338,2.0184392791531978,1.4552229200847446
1783170061145843200,5.78984326171875,10.278463209873438,2.095718479797244,1.3124211536943913
1783170061155913200,5.799913330078125,9.824209037566185,2.0928109217874704,1.2106353613685816
1783170061165983200,5.809983154296875,9.214638631340861,2.1378715681329368,1.110604303755611
1783170061176052000,5.820052001953125,8.452264850801228,2.177115344893187,1.1465464086219668
1783170061186122200,5.830122314453125,8.076456438699363,2.07153680922091,1.0619888875380157
1783170061196192300,5.840192138671875,8.096671543732285,1.9946470462858676,0.9250380391329527
1783170061206261200,5.85026123046875,8.306143730729818,2.027734346242994,0.7361763862267137
1783170061216331300,5.860331298828125,8.539927352163195,2.0679957756131886,0.5998209464315325
1783170061226401000,5.870401123046875,8.640930981135368,2.1584949617058036,0.34117943566069003
1783170061236470300,5.88047021484375,8.41045049290061,2.253779920770228,0.24494875671137123
1783170061246540300,5.890540283203125,7.84833624985516,2.387787263069302,0.21685119133293626
1783170061256610000,5.900610107421875,7.001911144188046,2.4663442285642025,0.10723032146729529
1783170061266679300,5.91067919921875,6.06617401638627,2.375627892589569,0.3331853316342458
1783170061276749000,5.9207490234375,5.289680525079369,2.2986628724612292,0.4063267383538186
1783170061286818300,5.930818359375,4.882160631418228,2.2015968751989305,0.32485914610922334
1783170061296888000,5.94088818359375,4.608143783795834,1.9426412569776177,0.3423443877868354
1783170061306958000,5.9509580078125,4.376510618394613,1.5753903914712368,0.36816250045858323
1783170061317027000,5.961027099609375,4.400224671459198,0.9879380012907087,0.49104507602266967
1783170061327097000,5.97109716796875,4.011595940750837,0.17068185309320688,0.9282990867555141
1783170061337167400,5.98116748046875,3.014097645562887,-0.5630009627521038,1.1420638563804328
1783170061347236000,5.991236083984375,0.728260498535633,-1.0659424474693835,1.1335082825463265
1783170061357306400,6.001306396484375,-2.9533424403488633,-1.3088380345106123,1.2723130151897668
1783170061367376100,6.011376220703125,-7.580768432241678,-1.0674461300306022,1.7129919588699936
1783170061377445000,6.021445068359375,-12.125312727308273,-0.7684212440103292,1.7736856431551276
1783170061387515400,6.031515380859375,-14.984581045687198,-0.8086318199761211,1.5632446111254392
1783170061397585200,6.041585205078125,-15.785524503117799,-0.9691773328498006,1.7244725533053278
1783170061407654400,6.051654296875,-15.454690958774089,-1.3439246915914118,1.729720390830934
1783170061417724200,6.06172412109375,-15.477957268071174,-1.8092305653974412,0.7628389138333499
1783170061427793200,6.071793212890625,-15.833503228867054,-2.1904092723608017,-0.4036081270448863
1783170061437863200,6.08186328125,-17.01747335921526,-2.039233206987381,-1.3298171096533535
1783170061447933200,6.09193310546875,-19.386124398529528,-1.7085360023744403,-2.665339152950048
1783170061458002200,6.102002197265625,-21.460611289727687,-1.858335810958594,-3.5967677699029443
1783170061468072200,6.112072265625,-22.234455143308637,-2.3682880512207745,-3.634752924904227
1783170061478142200,6.12214208984375,-21.785958511614798,-2.850994995552301,-2.7949916610404846
1783170061488211200,6.132211181640625,-20.5754581017375,-2.8247669138401745,-1.960669373360276
1783170061498281200,6.14228125,-18.417587993931768,-2.895798890657723,-1.782239098097384
1783170061508351000,6.15235107421875,-15.94048476320505,-2.7128610748425124,-1.941590578880906
1783170061518420200,6.162420166015625,-14.241859475600718,-2.2080552575580774,-1.9542760190613566
1783170061528490200,6.172490234375,-13.659400948184727,-1.8021634034901857,-2.34481058339104
1783170061538560300,6.182560302734375,-14.060539616376161,-1.227915216667205,-2.2350994779586792
1783170061548629200,6.192629150390625,-14.292144724726676,-0.7935437025681138,-1.9492912163861096
1783170061558699000,6.202698974609375,-14.076727365589141,-0.5419998219080269,-1.308889472436905
1783170061568768300,6.212768310546875,-12.353178064608572,-0.2567554778285324,-0.6605056436926126
1783170061578838000,6.222838134765625,-10.04587493570447,-0.7694641771920024,-0.8822818703375757
1783170061588908300,6.232908203125,-6.926759749352931,-0.8723771469168364,-0.35161432043537494
1783170061598977000,6.24297705078125,-3.6371132242947817,-0.22835297468677163,0.14153276936784387
1783170061609047300,6.25304736328125,-0.13100538400411604,0.3622369828671217,0.0617152824178338
1783170061619117300,6.263117431640625,3.3598984574139115,0.8915889201261102,-0.17301533754207193
1783170061629186000,6.27318603515625,6.575696486929059,1.3446651346951721,-0.6997191714450717
1783170061639256300,6.28325634765625,9.090943862611056,1.375846747161448,-0.8161444606285542
1783170061649326300,6.293326416015625,10.948730953645706,1.2160969147101044,-0.7750994796652346
1783170061659395300,6.303395263671875,12.553935614752769,1.1918854335173963,-0.5673462984800338
1783170061669465300,6.31346533203125,14.055689253735542,1.1018050573587417,-0.2269067944664508
1783170061679535000,6.32353515625,15.526002629315853,1.0894558633953333,0.11475370270945132
1783170061689604400,6.333604248046875,16.67451566183567,1.2047422847419977,0.18141542855352163
1783170061699674000,6.343674072265625,16.733047345781326,1.7048828866943715,0.06687076548486948
1783170061709743400,6.353743408203125,15.568247195327281,2.029726835234463,0.05486198245696723
1783170061719813000,6.363813232421875,13.810522068500518,2.0718156261622904,0.19625899661593138
1783170061729883100,6.373883056640625,12.001438510358334,2.04570620239377,0.49564182922840117
1783170061739952000,6.3839521484375,11.038078631615639,2.08443340793401,1.0528390010725706
1783170061750022100,6.394022216796875,11.076240896749496,2.0531860367551444,1.647915675586462
1783170061760092200,6.404092041015625,11.59231761124134,2.166113035494089,2.050261089219153
1783170061770161200,6.4141611328125,11.977356208503245,2.4685589820042253,2.4017731183238324
1783170061780231200,6.424231201171875,11.2610947753191,2.6087556804627177,2.776803385660052
1783170061790301400,6.434301513671875,10.05090766917467,2.612181270997226,2.8248335493355987
1783170061800370200,6.4443701171875,9.299758462482691,2.4397059586159884,2.826912693697214
1783170061810440200,6.454440185546875,9.039971800264716,2.3160478686347603,2.9317066548630595
1783170061820510200,6.46451025390625,9.196989577403665,2.3700458546735343,2.9659719125583766
1783170061830579200,6.4745791015625,9.393829077321291,2.381558451682329,2.6934350743606683
1783170061840649200,6.484649169921875,9.332784533771871,2.290970272132009,2.432109366007149
1783170061850718200,6.49471826171875,9.145721746981144,2.3729680257305503,1.9970903477847575
1783170061860788200,6.504788330078125,9.38782311490476,2.556470197430253,1.7619807384446262
1783170061870858200,6.514858154296875,9.564638063925504,2.7113153067052362,1.5155397338815033
1783170061880927200,6.52492724609375,9.296659327423573,2.8891373869419095,1.3507071913383901
1783170061890997200,6.534997314453125,8.831542984840274,2.8030872892126437,1.0947942287486045
1783170061901067300,6.5450673828125,8.590902337118983,2.622797065296769,0.7123335191506892
1783170061911136300,6.55513623046875,8.730691331559418,2.7404455395996568,0.41816104159764944
1783170061921206300,6.565206298828125,8.502045073014497,2.73273803396225,0.239293324765563
1783170061931276300,6.5752763671875,7.751495585781336,2.586097273930907,-0.08389686521813274
1783170061941345300,6.58534521484375,6.824899211290479,2.3665458837285636,-0.18868439664319156
1783170061951415300,6.595415283203125,5.694537921532988,2.0032634834617373,-0.09139752317182719
1783170061961485000,6.605485107421875,4.523368820568919,1.5199628110207617,-0.2435046588502824
1783170061971554300,6.61555419921875,2.96410991807878,0.6874008110113442,-0.5890037843409925
1783170061981624000,6.6256240234375,1.3553420115321875,-0.3262589299045503,-0.2929975154895335
1783170061991694300,6.6356943359375,-0.18158464764058588,-1.0863429920718073,0.5405647476036102
1783170062001763000,6.64576318359375,-2.509953360927105,-1.6564271910831332,1.2374962610915303
1783170062011833000,6.6558330078125,-6.09045739377141,-1.8507476939171552,1.0414020265832542
1783170062021902300,6.66590234375,-10.2593598654747,-1.765404429282993,0.1319278326112777
1783170062031972000,6.67597216796875,-13.881988052821159,-1.745129703017324,-1.3587366224065422
1783170062042042400,6.68604248046875,-16.333509098523855,-2.1868350671358403,-2.428403789487481
1783170062052111000,6.696111083984375,-17.766128995525836,-2.888202736440301,-2.2125658668503165
1783170062062181000,6.70618115234375,-18.226996448493004,-3.2996126232773064,-1.3049752216026187
1783170062072251400,6.71625146484375,-18.056089262211323,-3.2207264258280395,-0.3724981915753335
1783170062082319000,6.726319091796875,-18.657796095454692,-2.6109406232863663,-0.3880301072280854
1783170062092389000,6.73638916015625,-20.700753875923155,-1.8013251991003751,-1.2167374776359647
1783170062102459000,6.746458984375,-23.995923548316956,-0.6901322818018496,-2.633461082652211
1783170062112528100,6.756528076171875,-27.83760248286724,0.4302712391734123,-5.0341252168208355
1783170062122598000,6.766597900390625,-31.05371206254959,0.7964122437417507,-6.709401777541637
1783170062132667100,6.776667236328125,-32.73562002410888,1.0218142596684396,-6.983130455872416
1783170062142737000,6.78673681640625,-31.96019562333822,0.8103603973343968,-5.704892726808786
1783170062152807000,6.796806884765625,-28.194457772696015,0.1553670873224735,-4.226920360907912
1783170062162876000,6.8068759765625,-22.843251058030127,-0.36779637055993075,-2.712472075524926
1783170062172946000,6.81694580078125,-16.52564962697029,-0.710040512842685,-1.248373336675763
1783170062183016000,6.827015869140625,-10.583358010840415,-0.6999081181459128,-0.1692629992712289
1783170062193085000,6.8370849609375,-6.085792909091711,-0.4265346829935908,0.37240057641975577
1783170062203155000,6.847155029296875,-2.7301591233849525,-0.14965747750401495,0.732844903716445
1783170062213225000,6.857224853515625,0.2763929291039705,-0.07357216281965374,1.2611983314573765
1783170062223294000,6.8672939453125,3.2937785102963444,-0.07275310152173042,1.483341053327173
1783170062233364200,6.8773642578125,5.843097082406282,-0.027645108903199433,0.989083152737841
1783170062243434000,6.88743408203125,7.644332849657535,0.4412691646583378,0.2785592402923852
1783170062253503000,6.8975029296875,9.136875592702626,1.2255056713074446,-0.056688467231765384
1783170062263573000,6.907572998046875,10.059684849870205,2.137831382253021,-0.35248584257289767
1783170062273642000,6.91764208984375,10.586925932455062,2.9519074391096827,-0.4110501136139035
1783170062283712000,6.9277119140625,11.573775407856703,2.975288899219036,-0.08625592249967157
1783170062293782000,6.937781982421875,12.921184872823952,2.7047520026668903,-0.05854366664439439
1783170062303851000,6.94785107421875,14.530473003852366,2.4892992799550293,0.3146238024946302
1783170062313921000,6.957921142578125,15.439105267107486,2.1115067082986236,0.3530181958839297
1783170062323991000,6.967990966796875,15.126622202968596,1.7714207669630646,0.3442914302013814
1783170062334060000,6.97806005859375,14.506096102964877,1.4405688101798295,0.8377912789650261
1783170062344130000,6.988130126953125,14.007606483089923,1.302505032096803,1.6871435241252184
1783170062354199800,6.99819970703125,13.13320265265107,1.6773998364850877,2.322359535999596
1783170062364269000,7.00826904296875,11.887496489357948,2.256226729400456,2.5245287065073847
1783170062374339000,7.018339111328125,10.382304692620039,2.758644044113159,2.514607908734679
1783170062384408000,7.028407958984375,9.029123073992132,3.2110324225485325,2.4971336268424986
1783170062394478000,7.03847802734375,8.184331707006692,3.5292359101608395,2.308137241640687
1783170062404547800,7.0485478515625,7.919294869175553,3.712553665204346,2.008162069158256
1783170062414617000,7.0586171875,8.021400906431674,3.750422792610526,1.8230884103581309
1783170062424686800,7.068686767578125,8.02694918820858,3.659915423211455,1.7918831247553229
1783170062434757000,7.078757080078125,8.194906877034903,3.5058500661373135,1.708259669651091
1783170062444825900,7.088825927734375,8.413672377556562,3.5045836994633075,1.5526704640105367
1783170062454895900,7.098895751953125,8.67240748489499,3.5327176147967574,1.3467834420233964
1783170062464966100,7.108966064453125,9.196040898376703,3.517231291851401,0.9562316342979669
1783170062475035000,7.119034912109375,9.81386767629385,3.440075571456551,0.5274366782221943
1783170062485105200,7.129105224609375,10.221964493060112,3.3575545246362686,0.3565233544606715
1783170062495174000,7.139173828125,10.252131667786836,3.2455121997773646,0.3930366102784872
1783170062505244000,7.149243896484375,10.271039781874418,3.141395699481666,0.2513438280433416
1783170062515314200,7.159314208984375,10.561956326371432,3.0911902375936506,0.16500154243446885
1783170062525383000,7.1693828125,10.510853915643692,3.000464841529727,0.3144732150427997
1783170062535453200,7.179453125,10.272672936034201,3.029335254444182,0.3386212025452405
1783170062545523000,7.18952294921875,9.902040465265513,3.157656513930857,0.3417543129391968
1783170062555592000,7.199592041015625,9.165481509461998,3.023581805483997,0.3279858998276293
1783170062565662000,7.209661865234375,8.739407137456535,2.7809909004777666,0.2069162189044058
1783170062575732000,7.21973193359375,8.628453192356229,2.438805356514454,0.033473376665264364
1783170062585801000,7.229801025390625,8.128103039306401,1.7911989418834446,-0.16949848852753638
1783170062595871000,7.23987109375,7.282166593939065,0.964403834837675,-0.3402083986714482
1783170062605941000,7.24994091796875,5.934478312030434,0.0584060117393732,-0.08356609889380634
1783170062616010000,7.260010009765625,3.2039433410704135,-1.0175658084437251,0.8145609908293933
1783170062626080000,7.270080078125,-0.44754853718876836,-1.9684043515264986,2.091045665680617
1783170062636149000,7.28014892578125,-4.265376640552282,-2.9088474650621414,3.094507107056677
1783170062646219000,7.290218994140625,-7.286386257460713,-3.516614621257782,3.3833082668349146
1783170062656289000,7.3002890625,-9.447848836800455,-3.8819975009351966,2.5758526510313153
1783170062666358000,7.31035791015625,-11.24503678996563,-4.331162825670838,1.4760117333523928
1783170062676428000,7.320427978515625,-13.08920802810192,-4.48779101897031,1.1636909471031278
1783170062686498000,7.330498046875,-15.239481689429283,-4.2491503128945824,1.0149239886980503
1783170062696567000,7.340567138671875,-17.76739390089512,-4.174411590513587,0.9130310827359557
1783170062706636800,7.35063671875,-20.60607535831928,-4.183762187182903,0.67735156455338
1783170062716707000,7.36070703125,-23.164733421182632,-4.007389136710763,0.24098829211518166
1783170062726775800,7.37077587890625,-24.41301966409683,-3.5833395485311743,-0.23864706275127825
1783170062736846000,7.38084619140625,-24.242853651571274,-3.199201114979386,-1.5694871587768195
1783170062746915000,7.3909150390625,-23.66198151656389,-3.213959123650193,-2.9534385941997168
1783170062756984800,7.40098486328125,-23.01715801064968,-3.180254422447085,-3.841556184953451
1783170062767055000,7.41105517578125,-22.63201419944763,-2.8829718500494956,-4.1501904647096985
1783170062777123800,7.421123779296875,-22.571488126814366,-2.386915010279417,-3.8295562428191303
1783170062787194000,7.431194091796875,-22.74775420978069,-1.8515473198622463,-3.3347955803394314
1783170062797264100,7.44126416015625,-22.596423830628392,-1.4794829165942966,-3.14955679410547
1783170062807333000,7.4513330078125,-21.53919207448959,-1.0564322763241827,-2.6143156526774165
1783170062817403100,7.461403076171875,-18.95862379311323,-1.0837149816557765,-1.8904156874388456
1783170062827473000,7.471472900390625,-15.219916572737693,-1.0945232297874987,-1.1905224746011196
1783170062837542100,7.481542236328125,-11.409311990886925,-1.1043784149780869,-0.4296016693487763
1783170062847612000,7.49161181640625,-7.754560818570852,-1.0225497343361376,0.2070600112892687
1783170062857681200,7.50168115234375,-4.294721977502108,-0.7439357681818306,0.41777083670366555
1783170062867751000,7.5117509765625,-1.4161334571033715,-0.5406041297659278,0.3367046283341944
1783170062877821000,7.521821044921875,1.1191016445964574,-0.44054713399410245,0.24610534286797045
1783170062887890200,7.53189013671875,3.543483338961005,-0.47051893227919933,0.20224694845173508
1783170062897960000,7.5419599609375,5.969090775728225,-0.326108415517956,0.05251355616729706
1783170062908030000,7.552030029296875,7.643198292669654,0.18810747353807092,0.010571041842363774
1783170062918099000,7.562098876953125,8.421185237404703,0.623752222443372,-0.43895526169277727
1783170062928169000,7.5721689453125,8.430251171913742,1.2184190740473568,-0.49465603306144473
1783170062938239000,7.582239013671875,8.541904205194115,2.0093875192999837,-0.14945903232246635
1783170062948308000,7.592307861328125,9.175685508090258,2.6420927173972126,-0.025419614873453972
1783170062958378000,7.6023779296875,10.143816254496574,3.04940539804846,-0.18088694770000874
1783170062968447000,7.612447021484375,11.551023477822541,3.189429078027606,-0.29009777546003457
1783170062978517000,7.62251708984375,13.205046238112448,3.1168241528049108,-0.8176277579888701
1783170062988587000,7.6325869140625,14.828687888664007,2.870046609763801,-1.0496327523771674
1783170062998656000,7.642656005859375,15.641146427321432,2.5119863280594346,-0.9285534999080002
1783170063008725800,7.652725830078125,15.234498055797815,2.0379601183116436,-0.4291275490310043
1783170063018796000,7.662796142578125,13.97486156682968,1.692093840008974,0.17446685152463615
1783170063028865000,7.672864990234375,12.286264336764813,1.77722010089159,0.7215661885287612
1783170063038935000,7.68293505859375,11.020372294533253,1.9667466474473476,1.3596633818626402
1783170063049005000,7.693005126953125,10.286448947930335,2.249180318020284,2.0219024252191184
1783170063059074000,7.703073974609375,10.094835658228396,2.589372350078821,2.364906445958465
1783170063069144000,7.71314404296875,10.405174696075916,2.943264698448777,2.2955524853557345
1783170063079213300,7.72321337890625,10.838564944052695,3.404823348550498,2.0479045892208814
1783170063089283300,7.733283447265625,11.304606584787368,3.8003251798987385,1.652779774491489
1783170063099353300,7.743353271484375,11.19432250177264,4.0238966193974015,1.4971933453299104
1783170063109422300,7.75342236328125,10.242731386756896,3.9866885862484573,1.5833889890097081
1783170063119492400,7.763492431640625,8.679000891810656,3.8968393884971735,1.6979989723995328
1783170063129562400,7.773562255859375,7.280155838638544,3.780801856522262,1.5538099894344806
1783170063139631400,7.78363134765625,6.817254834017157,3.5825916527733206,1.5222162890359758
1783170063149701400,7.793701416015625,7.401200385120511,3.4526249641671773,1.5925725585490464
1783170063159771400,7.803771484375,8.269373212215305,3.410118240088224,1.4270444349572062
1783170063169840400,7.81384033203125,9.088736123433709,3.466781499813497,1.080702794227749
1783170063179910400,7.823910400390625,9.509066398829221,3.479194698923826,0.7325514006625861
1783170063189979400,7.8339794921875,9.216119225287438,3.430142790985107,0.4325781278762966
1783170063200049400,7.84404931640625,8.751570453459024,3.223829068018496,0.4161841885667294
1783170063210119200,7.854119140625,8.233868183591962,3.1963802123397587,0.5528866151686758
1783170063220188400,7.8641884765625,7.64236534897685,3.175249161505699,0.8857786264121532
1783170063230258200,7.874258056640625,6.939325216415524,3.112686030086875,1.2821835440799594
1783170063240328200,7.884328125,5.877990701133013,3.099264530716836,1.6268325555473566
1783170063250397400,7.8943974609375,4.634751804736256,2.7716946643441913,1.4175094216316937
1783170063260467200,7.90446728515625,4.009579924753308,2.3403300769761204,1.3847829178109765
1783170063270537500,7.914537353515625,4.036006159386038,1.4418351768538356,1.4737006799310446
1783170063280606200,7.924606201171875,3.829889128035307,-0.25405849382951856,1.6829085169039666
1783170063290676500,7.934676513671875,3.168181122815609,-2.0068778745666145,2.1003892480872572
1783170063300745200,7.9447451171875,1.822720453828573,-3.552207912686467,2.492774262589216
1783170063310815200,7.954815185546875,-0.3268482740998268,-4.506826851090788,2.8496061715424057
1783170063320885500,7.964885498046875,-3.5180309177964926,-4.798023089312017,2.5961808610498904
1783170063330954200,7.974954345703125,-7.396238963320851,-4.282630557692051,1.526589681814611
1783170063341024500,7.9850244140625,-11.618778917187452,-4.210093729269504,-0.5598641990963369
1783170063351094300,7.99509423828125,-14.694258375430106,-3.465523900967836,-2.2904148302063345
1783170063361163300,8.005163330078124,-16.326888803601264,-2.427102059239149,-3.052279492180049
1783170063371233300,8.0152333984375,-17.602238410007953,-2.40753635802567,-2.7827272227510806
1783170063381303300,8.02530322265625,-19.789769496583936,-2.517470896950364,-2.2952321673601865
1783170063391372500,8.03537255859375,-21.780164730644223,-2.64607038885653,-2.731937531234324
1783170063401442300,8.0454423828125,-23.36404837130308,-2.364336244855076,-3.3924145333543416
1783170063411511300,8.05551123046875,-26.054329073286056,-2.627556827044487,-4.340000796642899
1783170063421581300,8.065581298828125,-28.27600792865753,-2.8974820214390755,-5.58699875331223
1783170063431651300,8.0756513671875,-28.590705161714553,-2.9381872490540144,-5.7868976408004755
1783170063441720300,8.08572021484375,-26.27213361982107,-3.1031267591029406,-5.234425670847297
1783170063451790300,8.095790283203126,-22.591609708344937,-3.1688691050797697,-4.0801247025758025
1783170063461860400,8.1058603515625,-19.87003838056326,-2.8593010516047475,-2.0344430501013995
1783170063471929300,8.115929443359375,-18.040662560498713,-3.0180127731800077,-0.310428835022822
1783170063481999400,8.125999267578125,-15.96187592628002,-2.4681758279055357,0.23031269391980022
1783170063492069000,8.136069091796875,-14.109675695466995,-1.6535801310889422,0.39287020420301705
1783170063502138400,8.146138427734375,-12.634423109918831,-1.444182616762817,0.005831665295548736
1783170063512208100,8.1562080078125,-11.104031405472755,-1.396874337621033,-1.0264904347859323
1783170063522277400,8.16627734375,-9.060469813892245,-1.646167662875354,-1.6431892315864562
1783170063532347400,8.176347412109376,-6.807988408499956,-2.076544408249855,-1.5728908297404647
1783170063542417400,8.18641748046875,-3.7304514332056042,-1.9935028446868062,-1.0394151636149733
1783170063552486400,8.196486328125,-0.0595259556800127,-1.5637912852227687,-0.6409636156156658
1783170063562556200,8.20655615234375,4.214959289479255,-0.43680590163916344,-0.6452792868576943
1783170063572626400,8.21662646484375,8.072455970886349,0.7937444858372211,-0.9495354976601899
1783170063582695200,8.226695068359374,10.210089346349239,1.5705571260958908,-0.5905066266519948
1783170063592765400,8.236765380859374,10.019394925057888,2.071440801500529,-0.13533519336935132
1783170063602834200,8.246834228515626,8.964930295544862,2.389738251006603,-0.45178146205078806
1783170063612904200,8.256904296875,8.395134850347041,2.9478105251848694,-0.669490987246111
1783170063622974500,8.266974365234375,8.034698779422044,3.295594327546656,-0.8492067722748965
1783170063633043200,8.277043212890625,8.180618239441513,3.3045565094202756,-0.9197375215720385
1783170063643113500,8.287113525390625,9.063288378444314,3.2367432023882863,-0.9240430367462337
1783170063653183200,8.297183349609375,11.231789185857773,3.0933626131966707,-0.8886795354854315
1783170063663252500,8.30725244140625,13.316949446761607,3.0004210023880002,-0.9618716860115527
1783170063673322500,8.317322509765624,14.358469254505634,2.6184163659945128,-0.997127416048944
1783170063683392300,8.327392333984376,14.04259830149412,2.1706255444824696,-0.5620843228312209
1783170063693461500,8.33746142578125,12.936547277128696,1.956272015184164,0.07091423218939454
1783170063703531300,8.34753125,11.709392669570445,1.980753837750852,0.42405357023496176
1783170063713600500,8.3576005859375,10.64237484795451,1.9912617877617478,0.9167886817038059
1783170063723670300,8.367670166015625,9.968042338961363,1.9889955963954329,1.400253750926256
1783170063733740300,8.377740234375,9.896332024490833,2.1517110006541014,1.6631281500265
1783170063743809300,8.387809326171874,10.093047021245956,2.470241820524633,1.897024584184587
1783170063753879300,8.39787939453125,9.854047710990905,2.596232591237128,1.8615441054806112
1783170063763949300,8.40794921875,9.38038332029283,2.660249720856547,1.637995462335646
1783170063774018300,8.418018310546875,8.967523819169402,2.713386267760396,1.4262401328369974
1783170063784088300,8.42808837890625,8.734498907148838,2.728694311529398,1.2927918857254088
1783170063794158300,8.438158447265625,8.84382086713314,2.9849019462168216,1.2172786718405781
1783170063804227300,8.448227294921875,9.002536095839739,3.1314155727371573,1.0974597946960478
1783170063814297300,8.45829736328125,9.086976128023862,3.294816328911483,1.1937726355034857
1783170063824366300,8.468366455078124,9.007505116423964,3.457132212458551,1.263072454766184
1783170063834436400,8.478436279296876,8.847696247261762,3.434151442104578,0.9733491386417299
1783170063844506400,8.48850634765625,8.752290584427119,3.3200267580136655,0.6021924613358453
1783170063854575400,8.498575439453125,8.718292453235387,3.175631438821554,0.36832539940271525
1783170063864645000,8.50864501953125,8.753454367509484,2.9849022384777664,0.19164879940673707
1783170063874715400,8.51871533203125,9.020891252219677,2.886997160042822,0.15474091824814676
1783170063884784000,8.5287841796875,9.255512493520975,2.6846584781870244,0.1874113810326904
1783170063894854400,8.5388544921875,9.227125772470234,2.427149113251269,0.23604396758079527
1783170063904923400,8.54892333984375,8.694512933719158,2.2362547854736445,0.3487267823003232
1783170063914993400,8.558993408203126,7.839009034061432,2.0217662316188214,0.26642829218953845
1783170063925063400,8.5690634765625,6.826122615605592,1.6809502224430442,0.1543529418438673
1783170063935132200,8.579132080078125,5.75535333250165,1.1464523005977272,0.25617154046073554
1783170063945202400,8.589202392578125,4.733066048493981,0.2526934890866279,0.6085792762961239
1783170063955272400,8.5992724609375,3.595104220604896,-1.1431520900085568,1.0865568540181965
1783170063965341400,8.609341552734374,2.0797662929058074,-2.3317247457161545,1.3099173541799187
1783170063975411500,8.619411376953124,-0.7951239574968815,-3.45309579654932,1.4379545360282062
1783170063985481200,8.629481201171876,-4.429993202257156,-4.32774629522562,1.5274953984826802
1783170063995550500,8.639550537109375,-8.472195293673872,-4.400039378020167,1.3008034888759255
1783170064005620200,8.6496201171875,-11.12524487389326,-4.481948722682893,0.7725755872108042
1783170064015689500,8.659689453125,-11.722082639795541,-4.307976888133585,-0.3010213935997337
1783170064025759200,8.66975927734375,-11.893009699821471,-4.2144940100550645,-1.673637853603065
1783170064035829200,8.679829345703125,-13.40150404523611,-4.573726258148253,-2.4418396096438166
1783170064045898500,8.6898984375,-16.657994735145568,-4.802456980106235,-3.0669013072505593
1783170064055968300,8.69996826171875,-20.394501815128326,-4.1629119991168375,-3.8114699665084477
1783170064066038300,8.710038330078126,-24.14677695760727,-2.712960735824704,-4.268677435663342
1783170064076107300,8.720107177734375,-26.610415142083166,-2.039322931097448,-4.842637891586125
1783170064086177500,8.730177490234375,-26.45600783970356,-2.358051611627638,-4.737201833124458
1783170064096246800,8.740246826171875,-23.991086045157907,-3.148564860458672,-3.6895460068434476
1783170064106316800,8.75031689453125,-21.18855375947952,-3.9615748955190178,-2.492528471134603
1783170064116386600,8.760386474609374,-18.93149028699398,-4.63252594538033,-1.586937183010578
1783170064126455800,8.770455810546874,-17.626847950607537,-4.49773139822632,-1.342313603132963
1783170064136525600,8.780525634765626,-16.77311749036312,-4.135926084774733,-1.3899857471510768
1783170064146595800,8.790595947265626,-16.21684086742997,-3.5553649154126643,-1.2900072234429418
1783170064156664600,8.80066455078125,-15.962521238446234,-2.678216170179844,-1.3569003468900918
1783170064166734600,8.810734619140625,-15.398341879564523,-2.2512115315869448,-1.5712247962243855
1783170064176804900,8.820804931640625,-13.586663044232129,-1.8858247063867746,-1.486325037574023
1783170064186873600,8.83087353515625,-11.076584595620632,-1.7212895393550396,-1.1492714496716856
1783170064196944000,8.84094384765625,-8.341309152135253,-1.6267846247524023,-0.7655415238555521
1783170064207012600,8.8510126953125,-5.306130140098929,-1.3656500550568103,-0.5371300969798117
1783170064217082600,8.86108251953125,-2.027313636612892,-0.9203235778316855,-0.15687785721160472
1783170064227153000,8.87115283203125,1.0208025984078646,-0.6723299369990825,0.21534414777085184
1783170064237221600,8.8812216796875,3.450231054767966,-0.013199088791012763,0.1279179393827915
1783170064247292000,8.8912919921875,4.633977313232422,0.7122913605093956,-0.1653259520832449
1783170064257361700,8.901361572265625,5.242751016122102,1.3766431582361458,-0.502420018126443
1783170064267430700,8.9114306640625,6.0103200272172685,1.9501269365578888,-0.3639112727548927
1783170064277500700,8.921500732421874,7.476765621453524,2.539287884221971,-0.11513656454719602
1783170064287569700,8.931569580078126,9.047640727457404,3.204230925840139,0.10584814639389514
1783170064297639700,8.9416396484375,10.572747769498825,3.750165018457174,0.19849406219162047
1783170064307709700,8.951709716796875,11.876854683834313,3.8091117129445076,-0.04171140898279845
1783170064317778700,8.96177880859375,13.215416825479268,3.7077424655303357,-0.4052184848509729
1783170064327848700,8.9718486328125,14.707700040805339,3.371970588001609,-0.22147059476189315
1783170064337918700,8.981918701171875,15.659232703632116,3.0386233072713016,0.15265907047279179
1783170064347987700,8.99198779296875,14.993839872419834,2.8013725942492482,0.15135785168111324
1783170064358057700,9.0020576171875,13.348777832698822,2.546712189003825,0.12683547790832816
1783170064368127700,9.012127685546876,11.980008768838644,2.392097673614323,0.4644510105423629
1783170064378196700,9.02219677734375,11.165974359166622,2.319994560433924,0.8235999642662704
1783170064388266800,9.032266845703125,10.592471876144408,2.3515941060513255,0.8967387771699578
1783170064398335700,9.042335693359375,10.347996764826775,2.500293552178144,0.8118642990913242
1783170064408405800,9.05240576171875,10.542420435774325,2.712802038131654,0.866865105497092
1783170064418475500,9.0624755859375,10.70037695506811,3.018131723384559,0.742749919398129
1783170064428544800,9.072544677734374,10.588008466994761,3.040981560835242,0.7836775575920939
1783170064438614500,9.082614501953126,10.968145263689756,3.375141911514103,1.1955647065520285
1783170064448684800,9.092684814453126,9.610340661436318,3.7348610663414,1.1675385624419896
1783170064458753800,9.10275390625,7.479263868010044,3.9142403128921983,1.133481467604637
1783170064468823600,9.112823486328125,5.476175741115212,4.045101027728617,0.9115879712555557
1783170064478892800,9.122892822265625,4.6673073359042405,3.92752561866194,0.5701563874647021
