time,seconds_elapsed,z,y,x
1783170027608845000,0.068844970703125,0.21403671843409536,-0.0076240651376545425,-0.5625825546769425
1783170027618915000,0.0789150390625,0.3430576506227255,-0.027568098144233225,-0.5229168992428109
1783170027628984800,0.08898486328125,0.3849070798367262,-0.043590719923377035,-0.5192652083348482
1783170027639055000,0.09905517578125,0.3331482510268688,-0.028318770381063223,-0.4653445618486032
1783170027649123800,0.109123779296875,0.2961830867230892,-0.010896218676120043,-0.47828781271502374
1783170027659194000,0.119194091796875,0.2943915271311998,0.022864742758870123,-0.49699518006611615
1783170027669264100,0.12926416015625,0.3473614852964878,0.06368731314316392,-0.4102783985890448
1783170027679334000,0.139333984375,0.3074585139751434,0.08038271961733698,-0.34718762656692415
1783170027689403100,0.149403076171875,0.23577099585831163,0.067441404979676,-0.26154928797632454
1783170027699473000,0.159472900390625,0.1620826593130827,0.10585706035271286,-0.19479128041723742
1783170027709543000,0.16954296875,0.07110065813958645,0.1313150344751775,-0.1802608882235363
1783170027719613200,0.17961328125,0.07690671406984328,0.11671396993175148,-0.2139501909281127
1783170027729682000,0.189681884765625,0.08442600365877151,0.12160583362653851,-0.2326045311840251
1783170027739752000,0.199751953125,-0.004862637600302696,0.20127280618995427,-0.21011848554443566
1783170027749822000,0.209822021484375,-0.0049491468399763105,0.24671660663411019,-0.27690438575744625
1783170027759892000,0.21989208984375,-0.05319850622415542,0.29046880072951314,-0.26717859910018743
1783170027769961000,0.2299609375,-0.1506891586393118,0.3018533874444663,-0.21493797812275586
1783170027780031000,0.240031005859375,-0.27496260403990747,0.26009324394911526,-0.23587677605403587
1783170027790101000,0.25010107421875,-0.453211385256052,0.22743352175429463,-0.18776865177145227
1783170027800171000,0.2601708984375,-0.6262783799201249,0.22927622701153158,-0.21134240131620316
1783170027810240000,0.270239990234375,-0.6310048239201307,0.2218620052322745,-0.28938338011298326
1783170027820309800,0.280309814453125,-0.46507250344157214,0.2564640936665237,-0.3361011460157111
1783170027830380000,0.290380126953125,-0.1651186660081148,0.29805531033575533,-0.4099414947848767
1783170027840450000,0.300449951171875,0.21097440825402736,0.2673920226551592,-0.43347887610830366
1783170027850519000,0.31051904296875,0.4359440241128206,0.2397569967545569,-0.3777030667420476
1783170027860589000,0.320589111328125,0.5400713380634784,0.17379472441673277,-0.30742501356434077
1783170027870658800,0.330658935546875,0.5408738866180182,0.1202880290262401,-0.28632762753786517
1783170027880729000,0.34072900390625,0.5301321278512477,0.09001914749071001,-0.24063668393222615
1783170027890797800,0.3507978515625,0.5897673891246319,0.0517550294175744,-0.21087507606539874
1783170027900867800,0.360867919921875,0.6369932506799697,0.024764585030823946,-0.11639555163234472
1783170027910938000,0.370938232421875,0.520062569257617,-0.021560089901089666,-0.017286138908937574
1783170027921007900,0.3810078125,0.5421656799942255,-0.03718903618752956,-0.0399436686579138
1783170027931077000,0.3910771484375,0.6322808352053165,-0.03857815245836973,-0.05200217257905751
1783170027941147000,0.40114697265625,0.7755892359435558,-0.05741685457155108,-0.014366543401498347
1783170027951217000,0.411216796875,0.8658195419669151,-0.05007978968173265,0.06855042566750198
1783170027961287000,0.421286865234375,0.92772859339118,-0.02304725971892476,0.16689080851348115
1783170027971356000,0.43135595703125,0.8804273285120725,-0.014459610246121883,0.17572238627737388
1783170027981426000,0.441426025390625,0.8658055134415626,0.04169540769606828,0.12620234937025232
1783170027991496000,0.451495849609375,0.833241798967123,-0.0023674597837030887,0.28952671584011985
1783170028001565000,0.46156494140625,0.7421300339341164,-0.05663797915354371,0.4763735765915364
1783170028011635000,0.471635009765625,0.6919201881319283,0.0075318568095564834,0.40595428831223396
1783170028021705000,0.481705078125,1.0107686956495046,0.05255743184164166,0.2967864959763363
1783170028031775000,0.49177490234375,1.3063514783918857,0.10395838712453842,0.2369458665902726
1783170028041844000,0.501843994140625,1.7125655501514672,0.24083090959638356,0.11074749927539378
1783170028051914000,0.5119140625,2.128094562745094,0.3580899461902678,0.04208382249176502
1783170028061984000,0.52198388671875,2.518793669986725,0.43484673039540644,0.07695866345278918
1783170028072054300,0.53205419921875,2.7089906631499527,0.5126217517323791,0.17631359363617374
1783170028082123000,0.542123046875,2.97690451772213,0.49758463385924695,0.31517960974648596
1783170028092193000,0.552193115234375,3.2204449785381555,0.5873224801905453,0.43890188753772524
1783170028102263000,0.562262939453125,3.6100521988898513,0.6487558769270777,0.3205936706844717
1783170028112333000,0.5723330078125,4.143742896005511,0.6532328762106597,0.2260841712382622
1783170028122402300,0.58240234375,4.838555298447608,0.6449341266818345,0.17243823177386075
1783170028132472000,0.59247216796875,5.3521752674371,0.5485312695033848,0.4696625711781904
1783170028142542000,0.6025419921875,5.408614363017678,0.681050857462734,0.8187230789449066
1783170028152612000,0.612612060546875,5.351126635167002,0.8958033229507505,0.8115115401308983
1783170028162681000,0.62268115234375,5.2290241040647025,0.9937976871043444,0.6679612934608012
1783170028172751000,0.632751220703125,5.0052171022444965,0.9561101998753845,0.548846034540981
1783170028182821000,0.642821044921875,4.927846277794242,0.7700278024241328,0.5911755754221231
1783170028192891100,0.65289111328125,5.05257974192202,0.5212764750920236,0.6368333839431405
1783170028202960100,0.662960205078125,4.89912754831016,0.3014163112014532,1.0306905168242753
1783170028213030100,0.673030029296875,4.364643070468306,-0.12077844289168715,0.9935095178127288
1783170028223100200,0.68310009765625,3.4500118590593334,-0.27618264735415576,0.8715450800068676
1783170028233170000,0.693169921875,1.8627783234506845,-0.13560264866650104,0.7895873661577701
1783170028243239200,0.7032392578125,-0.11980886720716953,-0.08479702892825007,0.5227109648745507
1783170028253309000,0.713308837890625,-2.3839590830832718,-0.15681684773936866,0.7315748837806284
1783170028263379200,0.723379150390625,-5.362250671249628,-0.10722834870591759,1.4884684793435037
1783170028273449200,0.73344921875,-8.68635885335803,-0.2625561269313097,1.9806695204682647
1783170028283518000,0.74351806640625,-12.123856098759173,-0.7335407770261168,1.9227441318526863
1783170028293588200,0.753588134765625,-15.14396146030426,-1.2516498741284012,1.5255558087222276
1783170028303658000,0.763657958984375,-17.670471988278628,-1.5952679351128636,0.9784881820306182
1783170028313728000,0.77372802734375,-19.737756400752065,-1.6387033183440565,-0.09673934085750951
1783170028323797000,0.783796875,-21.18745953450203,-1.5241116012632845,-1.1297151738736777
1783170028333867000,0.793866943359375,-22.26886010173559,-1.1437588237300516,-1.8882381972692905
1783170028343937300,0.803937255859375,-23.616176043200493,-0.25039010751508173,-2.8284499862670898
1783170028354007000,0.814007080078125,-24.884055459856985,0.4933520377907902,-3.760120887543261
1783170028364076000,0.824075927734375,-25.40956401956081,1.455691998901218,-4.2138177182286976
1783170028374146000,0.83414599609375,-24.421165561151504,2.3745488651812074,-3.7153982409805058
1783170028384216000,0.844216064453125,-22.57729359822273,2.7848630657359954,-2.2078841387748716
1783170028394286000,0.8542861328125,-20.39229232238531,2.579319742619991,-1.142223284725845
1783170028404355000,0.86435498046875,-17.08906560026407,1.9588573555022477,-0.6602291648387909
1783170028414425000,0.874425048828125,-12.45833238351941,1.4541297180205583,-0.5072332270944491
1783170028424495000,0.8844951171875,-5.780601755526662,0.49547494822889565,-0.15429861784074456
1783170028434565000,0.894565185546875,1.0985375799953936,-0.37275465055443346,2.083079070715606
1783170028444634000,0.904634033203125,4.498648220810294,-1.6323350984863936,4.591017000167072
1783170028454704000,0.9147041015625,5.466752079209685,-2.821375810097158,5.33859740846157
1783170028464774100,0.924774169921875,5.9851534372568125,-2.856890775592625,3.9931951916635033
1783170028474844000,0.934843994140625,6.965598306313157,-2.569939043073356,2.0936837590992448
1783170028484913200,0.9449130859375,9.538331656280159,-2.3899390342757103,1.004530239651352
1783170028494983200,0.954983154296875,12.368721670699118,-1.6857888946458697,0.32548717834707347
1783170028505053000,0.965052978515625,13.264026834869384,-0.8512835785489529,-1.076777875868976
1783170028515123200,0.975123291015625,12.468141829872131,-0.0270116333052516,-2.1603705463193354
1783170028525192000,0.98519189453125,12.0360749394536,0.9812116887103766,-2.432582098085433
1783170028535262200,0.99526220703125,11.920657585203648,0.7308484692022204,-2.2982507845290003
1783170028545332200,1.005332275390625,11.575862151002884,0.29380839348100124,-2.1711304252646864
1783170028555402000,1.015402099609375,10.833990475744008,0.814446205343306,-1.991005036521703
1783170028565471200,1.02547119140625,10.025827003932,0.7697621372252702,-2.2076044450506567
1783170028575541000,1.035541015625,9.766043264323473,0.7466237651567905,-1.8639030896969138
1783170028585611000,1.045611083984375,9.493523961782454,0.5267055874686688,-1.0312298843979835
1783170028595681300,1.055681396484375,9.470957325187324,0.2235516388196498,-0.21335359500814227
1783170028605750000,1.06575,9.609818098866938,0.3169206081949174,0.8583272134501486
1783170028615820300,1.0758203125,9.710465754008293,0.582822830683738,1.558864204084128
1783170028625890000,1.08589013671875,9.300129049360752,0.8367644201353192,1.5547214051909743
1783170028635959000,1.095958984375,9.073042295217514,1.0860622023690492,1.5752555130451917
1783170028646029000,1.106029052734375,8.850504290419817,1.15309356524311,1.6663985499992966
1783170028656099000,1.11609912109375,8.558819099637866,1.025238169702515,1.65710465195328
1783170028666169000,1.126169189453125,8.093440306726098,1.0820010904099793,1.4895324553132057
1783170028676238000,1.136238037109375,7.730588406831026,1.189262829928845,1.2073431879553944
1783170028686308000,1.14630810546875,7.760429418343305,1.3357339324817061,1.0350552879050374
1783170028696378000,1.156378173828125,8.322147940069437,1.3711013062000275,0.8723460211262106
1783170028706448100,1.1664482421875,8.884735061323642,1.2161815242536365,0.5649020471330731
1783170028716516900,1.176516845703125,9.111042647787928,0.994214524276927,0.3841159294590354
1783170028726587100,1.186587158203125,8.890850913855433,0.8710113384563475,0.5615084591720253
1783170028736657200,1.1966572265625,8.709007907539606,0.5806739820867777,0.5612059325614944
1783170028746727000,1.206726806640625,8.70554987604022,0.6801752436719835,0.5476527331031859
1783170028756796200,1.216796142578125,9.106231448113919,0.7683822271741926,0.45608153386488554
1783170028766866200,1.2268662109375,9.569973579734564,0.7596133759155869,0.5775387893335894
1783170028776936000,1.23693603515625,9.86405472574234,0.9178471047155559,0.572801056754589
1783170028787006200,1.247006103515625,9.932614467227458,1.133105766160041,0.288507510593906
1783170028797075000,1.257074951171875,9.411656994956731,1.5473371401585638,0.30349534596521405
1783170028807145200,1.267145263671875,8.547162564113735,1.9437011412940919,0.42286034186240284
1783170028817215200,1.27721533203125,7.8870736845284695,1.9651978105701504,0.44932446082010863
1783170028827285000,1.287284912109375,7.636319054549932,2.0456180857188997,0.4412597392428666
1783170028837354200,1.297354248046875,7.262288173514604,2.0022063756242394,0.5313750040518119
1783170028847424000,1.307424072265625,6.390341673099995,1.4591294260039924,1.0069956799168138
1783170028857494000,1.317493896484375,5.030607564088702,0.22965528945699332,1.3858504009120165
1783170028867564300,1.327564208984375,2.723602541348338,-0.7061354682281613,2.071593361713737
1783170028877633000,1.337633056640625,-1.0115537085473536,-0.9860694309398531,3.0920275652006266
1783170028887703300,1.347703369140625,-6.601572686463594,-0.18808482331484555,3.137288264162838
1783170028897773000,1.35777294921875,-14.446230540066956,1.2176117031872271,1.6841405429169534
1783170028907843000,1.367843017578125,-22.435441826033593,1.4529146431423723,-0.7181421323642134
1783170028917912000,1.377912109375,-27.6073476200819,0.14733239555731414,-2.3847813592515883
1783170028927982000,1.387982177734375,-27.770901520991323,-1.6173662235438824,-3.23380831798017
1783170028938052000,1.398052001953125,-23.86174537949562,-3.0176947932720184,-4.815490941463411
1783170028948121000,1.40812109375,-19.857134475326536,-3.7899274122640487,-6.750721629923581
1783170028958191000,1.418191162109375,-18.9611816609025,-3.1411051921024917,-7.2277832618445155
1783170028968261000,1.42826123046875,-22.337052763473988,-1.4674147315293549,-6.921401437190175
1783170028978331100,1.4383310546875,-27.768790227925777,0.18840411839708684,-6.704351508414745
1783170028988399900,1.44839990234375,-31.881689657378196,1.4000962222769855,-6.989134080201387
1783170028998470100,1.45847021484375,-32.163597550511355,1.886673870562017,-6.454310579663515
1783170029008540200,1.4685400390625,-28.75516624059677,1.0982570094883441,-5.006699449756741
1783170029018610000,1.47860986328125,-23.933917466259,0.23842852462977168,-3.6709833451926706
1783170029028679200,1.48867919921875,-17.6118876973629,-1.0837357321828602,-2.7443127364218234
1783170029038749000,1.4987490234375,-10.676032787406443,-1.174881107224524,-2.361488161947578
1783170029048819200,1.508819091796875,-2.6512188576608895,-1.6285812989108264,-0.4805701880311593
1783170029058889500,1.518889404296875,5.628877408620715,-2.0171929323539137,0.9137488756164908
1783170029068958200,1.528958251953125,12.26937165415287,-1.2966523605458438,1.648549589575827
1783170029079028500,1.539028564453125,15.498340715408323,-0.31991014539971946,1.4828141068436205
1783170029089098500,1.549098388671875,16.330512839317322,0.20887217527776955,1.0703013002660124
1783170029099168300,1.559168212890625,15.76414853761196,1.5108628281116485,0.09364665380548685
1783170029109237500,1.569237548828125,13.438490252327918,2.443809594542533,-1.4643497910007834
1783170029119307300,1.579307373046875,10.778592998170852,2.706211261564493,-2.618208860723674
1783170029129377300,1.589377197265625,9.343931950730084,2.7440853574067354,-2.806444198425114
1783170029139446500,1.599446533203125,8.342397531893848,1.8490742077469824,-2.1052657680824396
1783170029149516300,1.609516357421875,8.447493398615718,0.7491482421331107,-0.9243531986739486
1783170029159586300,1.61958642578125,8.604514682886004,0.1230734219610691,0.0207002582013607
1783170029169656300,1.62965625,8.065445799863339,-0.5514854431338608,0.49337815861273554
1783170029179725300,1.639725341796875,7.777156096738576,-0.6691235421732068,0.5591166321320459
1783170029189795600,1.649795654296875,7.795538725647329,-0.22681071368083355,0.6576002045746893
1783170029199865300,1.659865234375,7.662168366077542,-0.15893047889247536,0.5872668044805527
1783170029209935400,1.669935302734375,7.252024553653597,-0.058335284590721126,1.0434587399173527
1783170029220004400,1.68000439453125,7.0774413092076776,0.058420332525670526,1.6181686259679495
1783170029230074400,1.690074462890625,7.418624398130178,0.15892419528216123,2.022562788823992
1783170029240144400,1.700144287109375,8.298041672816872,0.4026784449793398,2.0766825015462933
1783170029250214400,1.71021435546875,8.926826482599973,0.6165010822713375,1.93361039378196
1783170029260283400,1.720283447265625,9.079685386493802,0.8803744292810559,1.5227575563058255
1783170029270353400,1.730353515625,8.511918232253194,1.2346193904809653,0.9314746480517089
1783170029280423400,1.74042333984375,7.626436542961001,1.4756686190031467,0.4713747819235548
1783170029290493400,1.750493408203125,7.464967631632089,1.5594997255086898,0.2581439913111739
1783170029300562400,1.7605625,7.794795798325538,1.366501849580556,0.3416166580341756
1783170029310632400,1.770632568359375,8.852246165651083,1.1723742389701306,0.5654995381021872
1783170029320702200,1.7807021484375,9.656277652224897,1.2911089010745287,0.6505461213447153
1783170029330772500,1.7907724609375,9.426498005735874,1.5395229592762887,0.36502968232557176
1783170029340841200,1.80084130859375,8.922847057574987,1.8934899803176521,0.06171029571546241
1783170029350911500,1.810911376953125,8.716709567958116,2.0898213845826685,-0.20983952247258275
1783170029360981500,1.8209814453125,8.626653449457883,2.1497956685520707,-0.23893786239139733
1783170029371050200,1.83105029296875,8.475742757022381,2.219410472048074,-0.08272349232351407
1783170029381120500,1.84112060546875,8.12679897097051,2.073389597480744,-0.1759085017003119
1783170029391190300,1.851190185546875,7.646645218253135,2.012330587014556,-0.1633809920279309
1783170029401260300,1.86126025390625,7.071117366883159,2.101832432632893,0.11892338960953056
1783170029411329300,1.871329345703125,6.442321451184153,1.9156962591677904,0.21038966716863214
1783170029421399300,1.8813994140625,5.359102436351776,1.5189529033258558,0.01563647200576961
1783170029431469600,1.891469482421875,2.954502716299891,0.5776430899582803,-0.06744016287066042
1783170029441539300,1.901539306640625,-1.4126532137721777,-0.8104172420881688,0.1046630282625556
1783170029451608300,1.9116083984375,-6.915486660188436,-2.3937070085071026,0.26177761683948336
1783170029461678300,1.92167822265625,-12.624358812022209,-3.8812797080546617,0.9951594769768416
1783170029471748400,1.931748291015625,-18.648852910542487,-5.4297986053436995,2.5987659091070294
1783170029481818400,1.941818359375,-23.994354691565036,-6.783747116690874,2.465534081225097
1783170029491887400,1.951887451171875,-26.18143686532974,-7.183868716794252,0.3315151699323207
1783170029501957400,1.961957275390625,-26.407494860947132,-6.792751091879606,-2.270203962957114
1783170029512027100,1.972027099609375,-27.07226225373745,-5.306514755502343,-4.752013325548171
1783170029522096400,1.982096435546875,-29.05597523355484,-4.026634227667748,-5.719871100232004
1783170029532166400,1.99216650390625,-29.92385463066101,-3.023965544104576,-4.60889606346786
1783170029542236400,2.002236328125,-27.228067732477186,-2.517286188033223,-3.282696559789777
1783170029552306400,2.012306396484375,-21.306804875850677,-1.8038947573274373,-2.010717452729493
1783170029562375400,2.02237548828125,-14.896833788651227,-2.152059521830827,-0.6879121945995837
1783170029572445400,2.032445556640625,-9.225892431282997,-2.704327932035923,0.4054103176286444
1783170029582515500,2.042515380859375,-4.852604866588115,-2.165358271604031,0.5075285933118313
1783170029592585200,2.052585205078125,-1.5614274787008762,-1.4986014585621654,-0.30995811223853376
1783170029602654500,2.062654541015625,1.286550214856863,-1.055086999195069,-0.7198381226271391
1783170029612724200,2.07272412109375,2.6982220163762567,-0.4720138470120728,-0.20380795069076119
1783170029622794500,2.08279443359375,2.5629841093689203,0.10260098116621374,0.12663622900918126
1783170029632864500,2.092864501953125,1.7391560354351996,0.5185837288767099,0.06237571908794343
1783170029642933200,2.102933349609375,0.8669277954697608,1.2897931423008442,-0.12126038118973374
1783170029653003500,2.11300341796875,1.8044412852942942,1.7411532006017862,-0.23012729088291525
1783170029663073300,2.1230732421875,5.021815770345926,1.6220187255248426,-0.11827321860510855
1783170029673143300,2.133143310546875,8.828615114694832,1.304824268824607,-0.6072561744662002
1783170029683212300,2.14321240234375,12.291772871053219,0.7789214491061865,-0.8019808376543224
1783170029693282300,2.1532822265625,14.508003982412815,0.07555719915702938,-0.12418638817165047
1783170029703352600,2.1633525390625,14.811681808805465,-0.7665273930877446,0.8441015580903738
1783170029713421300,2.17342138671875,13.464092311096191,-0.8772608273051679,1.5306339887693523
1783170029723491300,2.1834912109375,11.612006646573542,-0.2700146262437105,1.5658490945354102
1783170029733561300,2.193561279296875,9.75961176997125,0.2657616449743509,1.5580683775313198
1783170029743631400,2.20363134765625,8.300445226827263,0.7123705632254481,1.4090066739633678
1783170029753700600,2.21370068359375,7.548349679195881,0.9229596254236996,1.0902117963291704
1783170029763770400,2.223770263671875,6.88989161568284,0.9334525239959358,0.9608014994967728
1783170029773840400,2.23384033203125,6.10375292867422,0.7870650080733,0.9745108028322458
1783170029783910400,2.243910400390625,5.743455973958969,0.6275332022868096,0.8906015895891934
1783170029793979400,2.2539794921875,5.873729536557197,0.47058001481667155,0.7422867588657885
1783170029804049400,2.26404931640625,6.757313283273577,0.3916014629088342,0.6807460292972624
1783170029814119400,2.274119384765625,7.8079849502444265,0.18884747825041412,0.6648529521819204
1783170029824189400,2.284189453125,8.596593242236972,0.2841374057509005,0.81927603665255
1783170029834258400,2.294258544921875,8.728515156564116,0.5077665667861699,0.8000047883410006
1783170029844328400,2.304328369140625,8.579882345932722,0.7373083128660917,0.727834893534705
1783170029854398500,2.3143984375,8.80806858575046,1.0292942401602863,0.47295715574417263
1783170029864467500,2.324467529296875,9.225501386138797,1.1872406764514745,0.05109005356966517
1783170029874537500,2.334537353515625,9.373807449033857,1.2396530007340014,-0.17645093801394104
1783170029884607200,2.344607177734375,9.331144365349411,1.1017198632933198,-0.06205783051149919
1783170029894677500,2.354677490234375,9.310757995402813,1.1508920366108417,0.13401795502463354
1783170029904746200,2.364746337890625,8.955453442147373,1.321979840156436,0.19866901689972727
1783170029914816300,2.374816162109375,8.649705239221452,1.5699755268156528,0.2019636379983276
1783170029924886500,2.384886474609375,8.417544250553846,1.9574027727797627,0.26388785045910623
1783170029934956300,2.394956298828125,8.138328080722689,2.5819617815613745,0.29133250488676127
1783170029945025500,2.405025634765625,7.694265047562122,3.2204727433279157,0.45653315008990464
1783170029955095300,2.41509521484375,6.958689257577062,3.6098131294369695,0.7859440412193537
1783170029965165300,2.425165283203125,5.780494788020849,3.509891450482607,0.6243354291588068
1783170029975235600,2.435235595703125,4.257656859955191,2.867088636741042,0.05926292082965374
1783170029985304300,2.44530419921875,2.8922008661657572,1.9815321286469696,0.01330883277580142
1783170029995374300,2.455374267578125,2.498842768847942,0.6833002438247203,0.40602706128749994
1783170030005444400,2.4654443359375,2.2438971169203517,-0.285034500721097,1.015212231054902
1783170030015513300,2.475513427734375,-0.4872703067243099,-1.1365861556217074,1.9032713696196675
1783170030025583400,2.485583251953125,-5.992921733170747,-2.0073883083067834,1.9625752069815992
1783170030035653400,2.4956533203125,-13.308974230098723,-2.673341842141747,0.7849621175099164
1783170030045723400,2.505723388671875,-19.08833621469736,-4.02254725061506,-1.4103519510924816
1783170030055792600,2.515792724609375,-21.45734731949568,-5.189439112651348,-2.8117621785774825
1783170030065862400,2.5258623046875,-22.361518511688708,-5.460622198152541,-3.0364561923652884
1783170030075932400,2.535932373046875,-22.89358540699482,-5.439043988072872,-3.43483767080307
1783170030086002400,2.54600244140625,-24.4166203189373,-4.8469411417379975,-3.645012745372951
1783170030096071400,2.556071533203125,-26.510270175766944,-3.8946804568976163,-4.025121192756295
1783170030106141400,2.566141357421875,-27.694104697036742,-2.9820041789487,-4.560795464904606
1783170030116211500,2.57621142578125,-27.642175772356985,-2.6083967840224505,-4.785194002877176
1783170030126281500,2.586281494140625,-25.802456252932547,-2.5367989900156855,-4.653417926761508
1783170030136350500,2.5963505859375,-22.432395297944545,-2.7157652718514202,-4.248039429043233
1783170030146420500,2.60642041015625,-18.35639089016914,-3.0763430893346664,-3.6729829945772883
1783170030156490500,2.616490478515625,-13.424155437505245,-2.715769363504648,-2.686992474092543
1783170030166559500,2.6265595703125,-8.458406422296166,-2.451949207986891,-1.5834472950682044
1783170030176629500,2.63662939453125,-3.871666076534986,-2.3240331683002413,-0.6233717717584222
1783170030186699300,2.64669921875,-0.033846155500411985,-1.3303392338313162,0.10923778883218764
1783170030196769500,2.65676953125,2.428832244032621,-0.0435736226581037,0.11600158387869595
1783170030206838300,2.66683837890625,3.4980297477751967,0.8145002736181021,-0.018747224437445403
1783170030216908500,2.676908447265625,3.7379888429731127,1.4231741693951188,-0.11985555589310824
1783170030226978600,2.686978515625,3.770674722522497,1.3807503012940288,-0.6490609973534941
1783170030237048300,2.69704833984375,3.9601673668086526,1.3557732425563036,-0.5563662009127438
1783170030247117600,2.70711767578125,5.121536373770237,1.1653496010303497,-0.25568105353005227
1783170030257187300,2.717187255859375,6.710382020750641,0.9023124125838279,-0.10689550002235919
1783170030267257300,2.72725732421875,8.392959844395518,0.7815430297814309,0.04241458881609141
1783170030277327600,2.73732763671875,10.183252777349947,0.8066881385624408,0.052201896402239795
1783170030287396400,2.747396240234375,11.365352437651156,0.7511959684431553,-0.11242712292540817
1783170030297466600,2.757466552734375,11.824612455421686,0.9077202629767358,-0.18558358108364045
1783170030307536400,2.767536376953125,11.694620632374287,1.1471328302077948,-0.15884546749014405
1783170030317605400,2.77760546875,11.034760885369778,1.1190582438461483,0.14470157212968915
1783170030327675600,2.787675537109375,10.393332282590865,0.9689319797866046,0.6781007754854858
1783170030337745400,2.797745361328125,10.12481929308176,0.7696065082721412,1.0753273117344826
1783170030347815400,2.8078154296875,10.396044464159012,0.5152288654908538,1.5971955421745776
1783170030357884400,2.817884521484375,10.602137530112266,0.4369584618523717,2.1818856280349195
1783170030367954400,2.827954345703125,10.57590652579069,0.5230702266409993,2.0605885680966076
1783170030378024700,2.838024658203125,10.055064788854121,0.7552915671937167,1.8739837542064486
1783170030388094500,2.848094482421875,9.118101334127783,1.1100364407397807,1.7668587197445331
1783170030398163500,2.85816357421875,8.00451056190729,1.4077585735984146,1.4962041881620882
1783170030408233500,2.8682333984375,7.246065937510132,1.5782764683015644,0.983228873751685
1783170030418303500,2.878303466796875,7.12997462952137,1.7550525466166436,0.6242299229577183
1783170030428372500,2.88837255859375,7.090292607474327,1.727130520468205,0.43527861900664866
1783170030438442500,2.8984423828125,7.3041136373311275,1.5309668739855289,0.5222953698109835
1783170030448512500,2.908512451171875,7.747299303135275,1.3656098691768943,0.8525692344453185
1783170030458582500,2.91858251953125,8.063934810778498,1.21956941312626,0.9015698505882174
1783170030468651500,2.928651611328125,8.581367616054415,1.2416869907796382,0.5671114302782342
1783170030478721300,2.93872119140625,8.839043569728732,1.4609041805915535,0.2517310555289499
1783170030488791600,2.94879150390625,8.689815715813637,1.5541782382249831,-0.1897330654459074
1783170030498861600,2.958861572265625,8.69902018201053,1.8107624511398375,-0.27928941773045807
1783170030508930600,2.9689306640625,8.859358628004788,2.0433216453447938,-0.10270144586600363
1783170030519000600,2.97900048828125,8.895535272279382,2.1934365112274885,0.18931341526173054
1783170030529070300,2.9890703125,8.949521129488945,2.467209028699994,0.413138391130045
1783170030539139600,2.9991396484375,8.819214249143004,2.7242449309051033,0.5980871814414859
1783170030549209300,3.009209228515625,8.033795693102478,2.783982483509183,0.6467930524215102
1783170030559279400,3.019279296875,7.091998826870322,2.721478096540272,0.6117559701034799
1783170030569349600,3.029349609375,6.103382926318049,2.2499102397300303,0.4666407756716013
1783170030579418400,3.03941845703125,4.639079604807495,1.6085868508912622,0.21200323984511196
1783170030589488400,3.04948828125,2.0318857668340207,0.769668467592448,0.17536022016778588
1783170030599558400,3.059558349609375,-1.629595590519905,-0.30602015173509717,0.7922449679944664
1783170030609628400,3.06962841796875,-7.308942372661829,-0.9529325927525758,2.123967545942962
1783170030619697700,3.07969775390625,-15.062604196566342,-1.451660989819467,2.786516678161919
1783170030629767400,3.089767333984375,-22.050849803495407,-2.0088786929950118,1.9328464236721394
1783170030639837400,3.09983740234375,-25.03612233659029,-3.081616061301529,-0.28894575588069854
1783170030649907500,3.109907470703125,-24.453019666051862,-4.424532598763704,-2.6989778031796217
1783170030659976400,3.1199765625,-22.594258761548996,-5.835507650190592,-4.068067477296292
1783170030670046500,3.13004638671875,-22.577714453983305,-6.96583562220037,-4.287910251660644
1783170030680116500,3.140116455078125,-23.623484904909134,-6.932143195956945,-3.9691473765999077
1783170030690185500,3.150185546875,-23.929290390980242,-6.0914919975161546,-3.9058804808259007
1783170030700255500,3.16025537109375,-23.359154754042624,-5.099212313759327,-4.135104539258778
1783170030710325500,3.170325439453125,-22.17516124281883,-4.517191008716821,-4.57836531612575
1783170030720395500,3.1803955078125,-20.026295110201833,-3.7650451922029253,-4.714677282105386
1783170030730464500,3.190464599609375,-16.751527589845658,-2.76712779482007,-4.0298476367563
1783170030740534500,3.200534423828125,-13.163804711663722,-1.7376944384500383,-2.5255811381697653
1783170030750604300,3.210604248046875,-10.538917980611323,-0.2999506225630641,-0.9297503084771335
1783170030760674600,3.220674560546875,-9.409132444915175,0.8433212944328784,-0.19753741905391214
1783170030770743300,3.230743408203125,-8.042870979961753,1.5251326148740947,-1.0910625679396093
1783170030780813600,3.2408134765625,-6.049998542132974,1.5694780986875294,-2.8758906596168874
1783170030790883600,3.250883544921875,-3.470349129167199,1.7844570664077997,-3.8971845486730334
1783170030800952300,3.260952392578125,-0.8868366110324859,1.5707712072379887,-3.3118352682515977
1783170030811022600,3.271022705078125,1.9080021975338457,1.0265902418985962,-1.5733400348126887
1783170030821092400,3.28109228515625,4.386117235651612,0.9852201206341386,-0.519782217946276
1783170030831162400,3.291162353515625,6.065574296927451,1.2246294729948044,-0.2037817202709615
1783170030841231400,3.3012314453125,6.958270155382156,1.271194386423379,0.07568637849465013
1783170030851301400,3.31130126953125,7.726136103597283,1.0456118993632495,0.7033583316650242
1783170030861371400,3.321371337890625,9.453215332269668,0.8955427723184227,0.7863345749069005
1783170030871441400,3.33144140625,11.20585044248104,0.7910076082192361,0.5764640362415462
1783170030881510400,3.341510498046875,12.72256901088357,0.4419929488882422,0.6254089036092162
1783170030891580700,3.35158056640625,13.832605305492876,0.3111374947488308,0.5665787481736392
1783170030901650400,3.361650390625,14.047667275321484,0.3865519244343042,0.5538044606659561
1783170030911719700,3.3717197265625,13.530601549792289,0.3755471308171749,0.6341460445553064
1783170030921789400,3.38178955078125,12.268667889797687,0.4262903528437018,0.6845459330368787
1783170030931859500,3.391859375,10.73001221487522,0.2546158354513347,0.9189994165558367
1783170030941929500,3.401929443359375,9.165020321691035,0.07658961094468832,1.5262885069109497
1783170030951998500,3.41199853515625,8.374426993361116,0.1433794201478362,1.92170222158432
1783170030962068500,3.422068359375,8.380319558531045,0.44002384077236056,1.8348826007872818
1783170030972138500,3.432138427734375,9.261668093541264,0.8550172851845621,1.6664289451375602
1783170030982208500,3.44220849609375,9.92535704344511,1.184011923663318,1.633435607074201
1783170030992277500,3.452277587890625,10.372224028110503,1.469341754069179,1.5287798853352665
1783170031002347500,3.462347412109375,10.423874720370769,1.8257606983073054,1.5519474104329942
1783170031012417500,3.47241748046875,9.68241805565357,2.023240834216028,1.601497623282671
1783170031022486500,3.482486572265625,8.476878483054042,2.1557015315949917,1.6401922417275607
1783170031032556500,3.492556640625,7.430431155779957,2.2700690845310687,1.4924103488370775
1783170031042626300,3.502626220703125,6.9805451155543325,2.2455647578716276,1.1052752907525747
1783170031052696600,3.512696533203125,6.817073632231354,2.0441711017809805,0.9287657544191926
1783170031062765300,3.522765380859375,7.01997579318881,1.7628655584551394,0.9711341660059988
1783170031072835300,3.53283544921875,7.6467019168764345,1.6955752523839474,1.0836511226393282
1783170031082905300,3.5429052734375,8.685577347591519,1.6784253801405429,1.0359714529018849
1783170031092975400,3.552975341796875,9.439292020857334,1.7660522256672382,0.9746846250291913
1783170031103044400,3.56304443359375,9.544179213264584,2.026719177851081,0.8786468748360872
1783170031113114400,3.5731142578125,9.33379458759725,2.442242052964866,0.5998588672891259
1783170031123184400,3.583184326171875,8.378828443190455,2.6311963525906203,0.39477782792262733
1783170031133253400,3.59325341796875,7.34051415348947,2.466748425450921,0.3918500308424234
1783170031143323400,3.603323486328125,6.876037277853489,2.317190024407208,0.5990373217731714
1783170031153393200,3.61339306640625,6.670200232487916,1.8703819303222,0.9349312913116067
1783170031163463400,3.62346337890625,5.920932601758837,1.1068971198007465,1.0392617996841669
1783170031173532400,3.633532470703125,4.75832031673789,0.042416853838413954,1.241556934659183
1783170031183602400,3.6436025390625,2.732071094486117,-0.7030060841612518,1.0049830979853869
1783170031193672400,3.65367236328125,-1.2837696442276239,-0.9881097045958042,0.01074782318137586
1783170031203742200,3.6637421875,-7.388713243991136,-0.9337281260669231,-0.5391210516013205
1783170031213811500,3.6738115234375,-14.046444455528258,-0.9374249347582458,-0.4360244689378887
1783170031223881500,3.683881591796875,-19.095303715622425,-1.4544377610564232,-0.37409616482388225
1783170031233951200,3.693951171875,-21.843835531044004,-2.769986691382527,-1.0751076776344328
1783170031244020500,3.7040205078125,-23.723681309151647,-3.8327372109428044,-1.2599801878392696
1783170031254090200,3.71409033203125,-25.654373477399346,-4.0298943985074756,-1.5352368063896893
1783170031264160500,3.724160400390625,-26.833094601178168,-4.136853721013665,-1.8412293394654988
1783170031274230500,3.73423046875,-27.535685236406323,-3.743357676529884,-1.5199150263562797
1783170031284299300,3.74429931640625,-27.050319301998613,-2.705909063747525,-1.6135858282223343
1783170031294369500,3.75436962890625,-24.941139867603777,-1.7274612137272953,-1.4484006728492675
1783170031304439300,3.764439208984375,-21.848998028373718,-1.183779283951223,-0.6683540191054343
1783170031314509300,3.77450927734375,-18.901160615181922,-0.8137368880301713,-0.4695154543250799
1783170031324578300,3.784578369140625,-16.207428895962238,-0.5363537788450717,-0.5162001947410404
1783170031334648300,3.7946484375,-13.613614179521798,-0.539847612310201,-0.2609300600994378
1783170031344718300,3.80471826171875,-10.469269859367609,-0.5592145760811865,0.18896102162748574
1783170031354787300,3.814787353515625,-6.687942225405574,-0.29218554151952264,0.5556033998467028
1783170031364857300,3.824857421875,-3.528741696903109,0.4809419804856181,0.5045061036854982
1783170031374927400,3.83492724609375,-0.9020815264374017,1.3222298693947494,-0.017995017830654977
1783170031384997400,3.844997314453125,1.0334645115822554,1.7424458707608281,-0.6149854900766164
1783170031395066600,3.855066650390625,2.0735124932080504,0.9991397057194262,-1.1658883840821683
1783170031405136400,3.865136474609375,2.893224363994598,0.09331512029618025,-1.0890836690820753
1783170031415206400,3.875206298828125,3.5162124701976776,-0.6201685918029397,-1.4189347782596944
1783170031425276200,3.885276123046875,4.216358634883165,-1.1285136160641909,-2.397212094018608
1783170031435345400,3.895345458984375,5.600019562926888,-1.2830606191754341,-2.932281824402511
1783170031445415400,3.90541552734375,6.9922735472708935,-1.397967393554747,-2.168213222643733
1783170031455485400,3.9154853515625,8.291123856252431,-1.6080904456764458,-0.7979648800112307
1783170031465554400,3.925554443359375,9.114802292582391,-2.044169494345784,-0.12613054450936614
1783170031475624400,3.93562451171875,9.830042566025256,-2.1883061626017093,0.6051922642063349
1783170031485694500,3.945694580078125,10.729532906925678,-1.6530106606379151,0.15161635648682711
1783170031495764500,3.955764404296875,11.340258912926911,-1.0453832051739096,-0.7620833462256937
1783170031505833500,3.96583349609375,11.660360635375977,-0.35968554481863974,-0.5109748613081873
1783170031515903500,3.975903564453125,11.435457655012607,-0.09875058934837579,0.24332002299837766
1783170031525973200,3.98597314453125,10.807240415984392,-0.04735109537020325,1.0072088112108408
1783170031536042500,3.99604248046875,9.921693260240554,0.3164261757414788,1.6115872017510235
1783170031546112300,4.0061123046875,9.380994145667552,0.6455028664804995,1.7021464474678039
1783170031556182300,4.016182373046875,8.95613148753941,0.8024952169172466,1.8380640073023735
1783170031566252500,4.02625244140625,8.614408884912729,0.9729382928185164,1.8132096981614827
1783170031576321300,4.0363212890625,8.438529170915483,1.2330834130853414,1.4552724583148955
1783170031586391600,4.0463916015625,8.22350110335648,1.428079623223841,1.2311056832715868
1783170031596461300,4.05646142578125,7.997992558315396,1.6179332097768782,0.954933411180973
1783170031606531300,4.06653125,7.841520140099525,1.9405004455566406,0.8536573219429701
1783170031616600300,4.076600341796875,7.784114245313406,2.0268902966342863,0.8462349899224937
1783170031626670300,4.08667041015625,7.741218521916866,1.8065441027924418,0.7414275116879493
1783170031636740400,4.096740234375,8.070558612832427,1.5733233759388328,0.7878429336432368
1783170031646809300,4.106809326171875,8.841466412961482,1.3408632581941782,0.9594667437616735
1783170031656879400,4.11687939453125,9.671350133672355,1.3633467465505003,1.0828132835756987
1783170031666949400,4.126949462890625,10.158784691047668,1.594931542765349,1.1389265082027762
1783170031677019400,4.137019287109375,9.94779216261506,1.7214118505604563,1.158515663357079
1783170031687088400,4.14708837890625,9.287364260333776,2.001266026034206,1.2718518274188042
1783170031697158400,4.157158447265625,8.344627482903004,2.270228951267898,1.2031798577308654
1783170031707228400,4.167228515625,7.50114778303802,2.1308464918017385,0.9718012516126036
1783170031717298200,4.177298095703125,6.944054583024978,1.9336096631295978,0.7698324990477412
1783170031727367400,4.187367431640625,6.85495941851139,1.7039453135833142,0.36761144244708116
1783170031737437400,4.1974375,6.573943505781888,1.28433180815503,-0.04526639805063605
1783170031747507500,4.207507568359375,5.74994299789071,0.7911864719174801,-0.317630948421359
1783170031757576400,4.217576416015625,4.264706193944812,0.08238806809037923,-0.5372655599277466
1783170031767646200,4.227646240234375,2.0123194810986518,-0.7087805759094655,-0.5023983177512884
1783170031777716500,4.237716552734375,-1.466075591880083,-1.4519145261891186,-0.3024284839186817
1783170031787786500,4.247786376953125,-7.317211019313335,-2.0670942967288193,-0.10795096389204263
1783170031797855500,4.25785546875,-15.12730492453575,-2.7141818020522592,-0.11452763886861503
1783170031807925500,4.267925537109375,-22.25936980433464,-3.970100147280097,-0.10766853022146969
1783170031817995300,4.277995361328125,-25.9264941360116,-4.761609421411157,0.1466139450896531
1783170031828065300,4.288065185546875,-26.393964348244666,-4.7598362742587925,0.1377877376206219
1783170031838134300,4.29813427734375,-25.14317635164261,-4.947756846922636,-0.4849461015604436
1783170031848204300,4.308204345703125,-24.490920065379143,-5.330767153227329,-0.8686115838382392
1783170031858274600,4.318274658203125,-24.092400055253503,-5.107160642415285,-1.3538234236627817
1783170031868343300,4.32834326171875,-23.091518547368047,-4.851823945343494,-1.5395254434943197
1783170031878413300,4.338413330078125,-21.6361245085001,-4.390964675682783,-0.9502093783337622
1783170031888483300,4.3484833984375,-20.060964272522924,-3.4115506109789013,-0.7936223938275128
1783170031898553300,4.35855322265625,-18.30419308542013,-2.4370241721861063,-1.1528545688554643
1783170031908622300,4.368622314453125,-16.43817709522247,-1.8232802796684204,-1.4806184964954852
1783170031918692400,4.3786923828125,-14.10742645523548,-1.2176795077264309,-1.6526181541889904
1783170031928762400,4.388762451171875,-11.826671141517162,-0.8064918853379786,-1.0265945527475326
1783170031938831400,4.398831298828125,-10.337143362379074,-0.30210400120466946,0.09438406470194459
1783170031948901400,4.4089013671875,-9.023730859559773,0.17833382915109394,0.2569151984348893
1783170031958971100,4.41897119140625,-7.3769497409611935,0.7896953565768897,-0.4322044722583145
1783170031969041400,4.42904150390625,-4.929411042892933,0.7306234282746911,-0.7193332418449223
1783170031979110400,4.4391103515625,-1.487647956740856,0.5419628508985043,-0.6507042345158756
1783170031989180400,4.449180419921875,2.480951722848415,0.8737069342158734,-1.2597174452498554
1783170031999250400,4.45925048828125,6.46800826562643,1.2967173886060714,-1.4977306670770048
1783170032009320400,4.469320556640625,9.706308634328842,1.7890611992023884,-0.9770204475656151
1783170032019389400,4.479389404296875,11.65173776845932,2.0560252057038246,-0.3692437928892672
1783170032029459500,4.48945947265625,12.720022833532095,1.661327968736738,-0.03458338373377919
1783170032039529200,4.499529296875,13.483475056958198,1.2098229490071535,0.4647591266434639
1783170032049599000,4.509598876953125,14.010119927215575,0.9779730721153318,0.6732425217993557
1783170032059668700,4.519668701171875,14.065591054546832,0.6700542471520602,0.6714939976315945
1783170032069738800,4.52973876953125,13.92635326424837,0.48126931274384255,0.9251754748422651
1783170032079809000,4.53980908203125,13.986790489554405,0.5378609685376287,1.4494745856910942
1783170032089877800,4.549877685546875,13.915297617226837,0.4443664000213146,1.8134268480435012
1783170032099948000,4.559947998046875,13.630834194391966,0.5027762111529708,2.0278528580561277
1783170032110017800,4.570017822265625,12.672245183312892,0.624849808421731,2.573784904846549
1783170032120086800,4.580086669921875,11.432075611358881,0.675541446391493,2.8030361435472964
1783170032130156800,4.59015673828125,10.201094723510742,0.844601397371292,2.829666960841417
1783170032140226800,4.600226806640625,9.210791308262944,1.019709396343678,2.865259083226323
1783170032150296800,4.610296875,8.536782039874792,1.313446258958429,3.0668413937568664
1783170032160365800,4.62036572265625,7.852901950335502,1.549874841942638,3.1409578925862904
1783170032170435800,4.630435791015625,7.769909194350242,1.775636631092429,2.708432737006247
1783170032180505900,4.640505859375,8.316872045493126,2.059617531107366,2.401204232394695
1783170032190575900,4.650575927734375,8.930499033632874,2.1859159064643086,2.1972714132152498
1783170032200644600,4.66064453125,9.219072229874133,2.168817618277669,1.8450921523734927
1783170032210715000,4.67071484375,9.228332810172438,2.0079054640486835,1.5448451772123575
1783170032220785000,4.680784912109375,9.01950651986301,1.9031940665997564,1.3349571028903127
1783170032230854000,4.69085400390625,8.551663967186212,1.6979874280922114,1.2692723323196171
1783170032240924000,4.700923828125,8.160269278895855,1.483200329682231,1.3065145599991081
1783170032250993700,4.71099365234375,8.165793595275282,1.5066564624629915,0.8847616313893347
1783170032261064000,4.72106396484375,8.60387053976357,1.702649720814824,0.25531879608891905
1783170032271133000,4.7311328125,9.231167156815529,1.9311086400941013,-0.057729866043478247
1783170032281202700,4.74120263671875,9.243034704741834,2.044563754360378,0.04988032158687711
1783170032291273000,4.75127294921875,8.578177880102395,2.064740280948579,0.12309015390016138
1783170032301341700,4.761341796875,7.633011829698085,2.1417180144280192,0.25293168175667524
1783170032311412000,4.771411865234375,6.934622153291106,1.880721245767921,0.17311412174142896
1783170032321482000,4.78148193359375,6.787053172498941,1.2662049075730144,-0.31120800270177423
1783170032331551700,4.7915517578125,6.25015812638402,0.2961465541049838,-1.0683649253759533
1783170032341621000,4.80162109375,4.594629637706279,-0.5413398966945707,-1.3588015043362975
1783170032351690800,4.811690673828125,1.4023112679779528,-1.0133440990954636,-0.7484183204233646
1783170032361760800,4.8217607421875,-3.2249580720484254,-1.3999981687299907,0.7098723897341639
1783170032371829800,4.831829833984375,-8.908136979699135,-1.9625011188320813,1.876817808588594
1783170032381899800,4.841899658203125,-15.263277575558423,-2.9075469038575887,2.0301476909950376
1783170032391969800,4.8519697265625,-19.630690695261954,-3.3720465758472677,1.6692919333532452
1783170032402039800,4.862039794921875,-21.08573869717121,-3.574049157616496,0.35447701639011503
1783170032412108800,4.87210888671875,-19.845780722141264,-3.7657068709820507,-1.3022300145477055
1783170032422178800,4.8821787109375,-18.4396501881361,-3.6957974684536454,-2.0991952159970997
1783170032432248800,4.892248779296875,-18.450982898533344,-3.709190618512034,-1.8901251800596712
1783170032442318800,4.90231884765625,-19.76991913321018,-3.5967639705106613,-1.4149533074080942
1783170032452387800,4.912387939453125,-21.05668328307867,-3.4408491861775516,-1.3556775270968675
1783170032462457900,4.922457763671875,-21.6778546952486,-2.8730858313292265,-1.2539341856732964
1783170032472527600,4.932527587890625,-22.05908220978975,-2.319283781816065,-1.783263326578587
1783170032482596900,4.942596923828125,-22.21725850931406,-1.7359096008598804,-2.159200041235238
1783170032492666600,4.95266650390625,-22.636309266293047,-1.191223024085909,-1.922838239876926
1783170032502737000,4.96273681640625,-22.686115207469463,-0.8148086089149117,-1.5401166873857377
1783170032512807000,4.972806884765625,-21.508429856479168,-0.6445828290261327,-1.2511778727024794
1783170032522876000,4.9828759765625,-18.826249458843467,-0.48817879987135526,-1.508246800394356
1783170032532946000,4.99294580078125,-15.607608899378775,-0.7274902448154985,-1.4079711934357881
1783170032543016000,5.003015869140625,-11.105943961095809,-1.2806190712422132,-0.8210608011774718
1783170032553085000,5.0130849609375,-6.027293373849988,-1.2011068508490919,0.10599120812639594
1783170032563155000,5.023155029296875,-0.9134913937240838,-0.6607889906786382,-0.04326762544885278
1783170032573224700,5.033224609375,4.053436602136492,0.011946896772831677,-0.8256855383686721
1783170032583295000,5.043294921875,7.7000915617585175,0.7276034959316253,-0.8160320132300257
1783170032593363700,5.05336376953125,9.35979295220673,0.8925660945951938,-0.4725065989650786
1783170032603433700,5.063433837890625,9.059106124323606,0.9272899097129702,-0.49994190104249864
1783170032613504000,5.07350390625,8.54321937944591,1.3446654269561171,-0.7966375769302249
1783170032623572700,5.08357275390625,9.22255013511777,1.2985321829430758,-1.238212592667341
1783170032633643000,5.09364306640625,11.470365302264689,1.0194269261404871,-1.0391549052435904
1783170032643712800,5.103712646484375,14.289701423227786,0.9382261681385338,-0.6749975487731397
1783170032653782800,5.11378271484375,15.97824955345392,0.863069804867357,-0.6542649957373738
1783170032663851800,5.123851806640625,15.686220079278945,0.6011958149813115,-0.6320763986743986
1783170032673921800,5.133921875,13.50359313135743,0.2931077709309757,-0.8304211155232042
1783170032683991800,5.14399169921875,10.662032319104672,0.3325776115320623,-0.6950041256219148
1783170032694061800,5.154061767578125,8.494726858955621,0.498916174723953,0.07971731451116502
1783170032704130800,5.164130859375,7.42593150627315,0.7945752375729381,0.648903980160877
1783170032714200800,5.174200927734375,6.830277397197484,1.0167543459303676,0.9710551824856549
1783170032724270800,5.184270751953125,6.622406800177693,0.9321868879742919,1.484740544861555
1783170032734339800,5.19433984375,6.769071525606512,0.9228454975247382,1.817303104954958
1783170032744409900,5.204409912109375,6.913075507393479,0.8010287976264953,1.8199368144594132
1783170032754479900,5.21447998046875,7.223671150350571,0.8210907579243183,1.914805447807908
1783170032764549600,5.224549560546875,7.595705304610728,0.8640838042154908,1.7426310180693865
1783170032774619000,5.234618896484375,7.745943796873092,0.956400414993614,1.3342397484011947
1783170032784689000,5.24468896484375,8.1666937589854,1.123074639880657,1.0225997109577059
1783170032794759000,5.254759033203125,8.730688408949971,1.0107679649971424,1.1332122222092003
1783170032804828000,5.264827880859375,8.620906430238485,0.8694849326066673,1.4534417357563971
1783170032814897700,5.274897705078125,8.266438327807187,0.9166839061550796,1.6393468769446013
1783170032824968000,5.284968017578125,8.300336505755782,0.9149629275813699,1.2700155519023537
1783170032835038000,5.295037841796875,8.568607503202557,1.068292371596396,1.020808005235344
1783170032845107000,5.30510693359375,8.72375247220695,1.1268341385446488,0.9776251354604959
1783170032855177000,5.315177001953125,8.931535975465177,1.1079729323387146,0.8045010768469423
1783170032865246700,5.325246826171875,9.093234019374847,1.2888074922643602,0.6276825476296246
1783170032875313700,5.335313720703125,9.08155118036568,1.3553750370189546,0.6354113883160054
1783170032885384000,5.345384033203125,9.130815854272246,1.4716357102252542,0.6774496181003749
1783170032895454000,5.355453857421875,9.078897450986505,1.6597838080346583,1.0790521774765103
1783170032905523000,5.36552294921875,8.966206306830047,1.9161904724255203,1.2440493359968066
1783170032915593000,5.375593017578125,8.504525783914326,2.183090766040981,1.2968889457806945
1783170032925662700,5.385662841796875,7.514507030826807,2.4353461559712883,1.2504228165514766
1783170032935732700,5.395732666015625,6.4088716015249485,2.524554133209586,1.0991690828319638
1783170032945801700,5.4058017578125,4.992101015561818,2.0125662954665717,0.7570864877864718
1783170032955871700,5.415871826171875,2.775194196897745,1.4479830319590865,0.48429494417533275
1783170032965942000,5.42594189453125,0.48989831714034077,0.9327480289883912,0.49382447760812936
1783170032976010800,5.4360107421875,-1.5437936223328113,-0.09532543720528483,0.32086466964557764
1783170032986080800,5.446080810546875,-3.1808266693770886,-0.9388187272042036,0.5111045521024614
1783170032996150800,5.45615087890625,-4.8946787522077555,-1.9591054850444196,0.7966758631139993
1783170033006220800,5.466220703125,-7.453996155762672,-3.046716889616847,1.0384111742042004
1783170033016290000,5.4762900390625,-11.044805309522152,-3.663375500537455,0.753732428118214
1783170033026359800,5.48635986328125,-15.80495517977476,-4.549474152684211,-0.4219313539166003
1783170033036429800,5.496429931640625,-21.65001274859905,-5.28195723735094,-1.9804604077622294
1783170033046499800,5.506499755859375,-26.706536259710788,-5.249270188757777,-3.122894120368361
1783170033056567800,5.51656787109375,-29.368460635781286,-4.711867777642607,-3.2388018884837626
1783170033066638000,5.52663818359375,-29.265037670707702,-3.877449336111545,-3.5349554568514225
1783170033076708000,5.5367080078125,-28.387268163228033,-2.7414439029872417,-4.244474722298979
1783170033086777000,5.546777099609375,-27.620034083175657,-1.7121591613076625,-4.319286509916186
1783170033096847000,5.55684716796875,-26.245640749692914,-1.54081679847911,-3.12759659897089
1783170033106916900,5.566916748046875,-23.691083692407606,-1.4202134198933838,-2.1488997426256535
1783170033116987000,5.57698681640625,-20.17509567861557,-1.4906770953036843,-2.309127421721816
1783170033127056100,5.58705615234375,-15.492797109806537,-1.5149273010715842,-2.3538901080340144
1783170033137126000,5.5971259765625,-10.247940645837783,-1.3198719080917536,-1.9807880322813987
1783170033147196200,5.607196044921875,-5.0004748761534685,-1.1928824817307293,-1.6327999395191668
1783170033157265000,5.617264892578125,-0.8163076153010129,-1.1487446493186055,-1.0914890497233718
1783170033167335000,5.6273349609375,0.6069277827620506,-0.9502692187622189,-0.5886655653625726
1783170033177405200,5.6374052734375,0.5717576851814985,-0.27510807692520317,-0.7858790862243622
1783170033187475000,5.647474853515625,0.9715180507570504,0.2142469271186739,-1.6696733338862657
1783170033197544200,5.657544189453125,1.913266401672363,0.21882380658015607,-1.4998203328326343
1783170033207614000,5.667614013671875,4.583768051952124,0.1455377672255039,-0.9639770607929676
1783170033217685000,5.67768505859375,8.12032772912979,-0.04816036592647433,-0.9755560741014778
1783170033227755000,5.687755126953125,12.083381465029715,-0.2969824204072356,-0.8453442516278475
1783170033237825000,5.697824951171875,15.269264248752593,-0.5155392466142773,-0.2596128400210291
1783170033247894000,5.70789404296875,16.300592332828042,-0.5619941237971187,0.1071169972859323
1783170033257963800,5.7179638671875,15.40979967764616,-0.2424886136755347,0.10755758066028356
1783170033268034000,5.728033935546875,13.953176973766087,0.21193156284838913,0.17944259411059318
1783170033278103000,5.73810302734375,12.66624214350581,0.49534489210844035,0.724155693565309
1783170033288173000,5.748173095703125,11.80664191444516,0.5919901797406375,1.312816875013709
1783170033298243000,5.7582431640625,11.344673222237825,0.6103140641994774,1.762688009931147
1783170033308312800,5.768312744140625,11.346245586121082,0.7635869557216763,2.227014955702424
1783170033318382000,5.778382080078125,11.023082138013839,0.728319389116019,2.6741949518397448
1783170033328452000,5.7884521484375,9.97466731005907,0.7345077223621308,2.673721781370044
1783170033338521900,5.79852197265625,8.875220798525215,1.110510049600899,2.211267059211433
1783170033348591000,5.808591064453125,8.137443114581703,1.5096053753964602,1.7592631500490008
1783170033358660900,5.818660888671875,7.7874980425328015,1.6736404839515686,1.527911870329082
1783170033368731100,5.828731201171875,7.789884060886502,1.769466271894425,1.5151181474685669
1783170033378801200,5.83880126953125,8.081894245839118,1.7114198872476816,1.8187839911624788
1783170033388870000,5.848869873046875,8.707864582723378,1.7671235081605612,1.7848577561631798
1783170033398940200,5.858940185546875,8.852647147667408,1.7763178913548587,1.5086694097205995
1783170033409010000,5.869010009765625,8.715839214864372,1.6970462017193435,1.2982958899691701
1783170033419079200,5.8790791015625,8.756376392436026,1.6597468370251356,1.0986979581888765
1783170033429149000,5.88914892578125,8.55925807557702,1.6791598318949341,0.8296291614279151
1783170033439219000,5.899218994140625,8.272769284394382,1.736281356781721,0.4962612032357603
1783170033449289000,5.9092890625,8.12722859455943,1.7958388766437767,0.40503874436989423
1783170033459358000,5.91935791015625,8.1643983415246,1.8601685793437062,0.34252471278980373
1783170033469428000,5.929427978515625,8.177289971801638,1.8623590751253067,0.2976198415279388
1783170033479498000,5.939498046875,8.090639862352608,1.972567462555319,0.47284189533405
1783170033489567000,5.94956689453125,7.917464146617054,1.997532100202888,0.5080880538254976
1783170033499637000,5.959636962890625,7.412587456053495,2.0938898030653594,0.17621223388724028
1783170033509707000,5.96970703125,6.5117006923586125,2.2679345567204057,-0.22148513474389908
1783170033519777000,5.979777099609375,5.118932328751683,2.021319949156046,-0.7604952002514154
1783170033529846000,5.989845947265625,3.573135549902916,1.3859211280606687,-0.7940077398832887
1783170033539916000,5.999916015625,2.3204262298494576,0.909912073932588,-0.49297918589040635
1783170033549986000,6.009986083984375,1.1274059470832347,0.03396466731354594,0.12718684862926602
1783170033560056000,6.02005615234375,-1.394724173849821,-0.3541685349628329,0.99067495197393
1783170033570125000,6.030125,-5.189198874154687,-0.812862004891783,0.8124646761372685
1783170033580195000,6.040195068359375,-9.353031787508726,-1.056166903386265,0.1657936426602304
1783170033590265000,6.05026513671875,-13.717089751565455,-1.5305359352223573,-0.7084143729455769
1783170033600333800,6.060333740234375,-17.008633050155638,-2.8893799635261295,-1.4957754413560032
1783170033610404000,6.070404052734375,-19.35137340314388,-3.7186022977188227,-1.0404860807821155
1783170033620474000,6.08047412109375,-20.571438929224012,-3.89094360845685,-0.10749861701466143
1783170033630544000,6.0905439453125,-22.25819374629259,-3.047669075775146,-0.05489749216176569
1783170033640613000,6.100613037109375,-24.792435160779952,-2.0604175954438744,-1.3362277073480189
1783170033650683000,6.110682861328125,-26.8839480055809,-0.6500032466396689,-2.4007190792262554
1783170033660753000,6.1207529296875,-29.636461584115025,0.3691777419157326,-4.035539126396179
1783170033670822000,6.13082177734375,-30.040796417999267,0.26771277904212476,-5.321280362957716
1783170033680892000,6.140891845703125,-27.663349493288994,-0.491400100005418,-4.337250621151924
1783170033690962200,6.150962158203125,-23.815149632537363,-1.9104051670223474,-2.561666012507677
1783170033701032000,6.161031982421875,-19.33441993025541,-2.815502826410532,-1.005485713745281
1783170033711101000,6.171100830078125,-14.429187050807474,-2.856179704713821,-0.0126315911013633
1783170033721171000,6.1811708984375,-9.252843566572666,-2.2413334039121864,0.2242874422809109
1783170033731241000,6.191240966796875,-4.824855274397135,-1.4084547391690312,0.02293930583242327
1783170033741310200,6.201310302734375,-1.6909323950141668,-0.30753698603883384,-0.4079479463474825
1783170033751380000,6.2113798828125,0.524680292186141,0.23657778219655154,-0.9738811996918171
1783170033761450000,6.221449951171875,2.7695751879721877,0.5886363392680883,-0.8839225502166896
1783170033771520000,6.23152001953125,4.854877487695217,0.5761211410880088,-0.28119229220971464
1783170033781589000,6.241589111328125,6.357026847997307,0.5878062451194972,-0.10419153829328716
1783170033791659000,6.251658935546875,7.180405424597859,0.781886509456858,-0.618193565402925
1783170033801729000,6.26172900390625,7.8734110698789355,0.9555747047591954,-0.8670899272289126
1783170033811798000,6.271798095703125,8.27980517438054,1.2447269429974257,-0.9549443709664046
1783170033821868000,6.281867919921875,9.328419324299693,1.325894383251667,-0.958490957532078
1783170033831938000,6.29193798828125,10.875289285337924,1.2783596018776298,-1.016649058924988
1783170033842008000,6.302008056640625,11.669205620610713,1.1588546860530973,-1.246896980512887
1783170033852077000,6.3120771484375,12.007160979658364,0.7245815908271819,-1.651196743083745
1783170033862147000,6.32214697265625,12.004190439414977,0.35323629561401904,-1.581219828277081
1783170033872216800,6.332216796875,11.476941173523663,-0.0684411566067487,-1.0231368135090917
1783170033882286000,6.3422861328125,10.612547864967585,-0.5679640650521963,-0.3111653691364452
1783170033892355800,6.35235595703125,10.103379030168055,-0.9738727971896529,0.35353213675543665
1783170033902426000,6.362426025390625,9.362450188717245,-1.0511951793882994,0.716902653697133
1783170033912496000,6.37249609375,8.567712015667556,-0.8102234000165015,0.9490930876549333
1783170033922564900,6.38256494140625,8.233211765509843,-0.41953437577746805,1.2316603945448994
1783170033932635100,6.39263525390625,8.029787626504898,-0.13601955890432,1.1179065895929932
1783170033942705000,6.402704833984375,7.865185093325376,0.1919101537566632,0.8491731622662395
1783170033952774100,6.412774169921875,7.508859380328655,0.45160658040791746,0.683208985344693
1783170033962844000,6.422843994140625,7.569364994695782,0.5578145730901509,0.6169610279332846
1783170033972914000,6.432913818359375,8.100778979051112,0.7344844876170158,0.6512647179428488
1783170033982984200,6.442984130859375,8.84066854058206,0.6746847564969212,0.6215118961706757
1783170033993053000,6.453052978515625,9.421559380289912,0.6290813085116446,0.709124567041546
1783170034003123000,6.463123046875,9.56671370115578,0.7369108379811048,0.6936829600207507
1783170034013193000,6.47319287109375,8.814013757890462,0.9482239036049693,0.4179891190968454
1783170034023262000,6.483261962890625,8.05346719277799,1.0884922059949487,0.26306502630151807
1783170034033332200,6.493332275390625,8.108836613300442,1.2987804586157201,0.3230790577594191
1783170034043402000,6.503402099609375,8.79820536338389,1.4457251700296998,0.26285072596371173
1783170034053472300,6.51347216796875,9.430209135213493,1.5107998458780347,0.2507626306219026
1783170034063541500,6.52354150390625,9.746563487827776,1.5612994684070347,0.3256143849233165
1783170034073611300,6.533611328125,9.606691491279005,1.4914162232331931,0.3953383113496005
1783170034083681300,6.543681396484375,8.783086704707145,1.5156860104843972,0.3814691047446802
1783170034093750300,6.553750244140625,7.967521432206034,1.6348573104403912,-0.01601005455851555
1783170034103820300,6.5638203125,7.103626136299967,1.7248554151430726,-0.5149958969851955
1783170034113890300,6.573890380859375,5.838049151366949,1.5432288280569015,-0.7182912585113197
1783170034123960300,6.583960205078125,4.744253797462583,1.1411669075407087,-0.39168709536567325
1783170034134029300,6.594029296875,3.9659506263852116,0.550571250898391,-0.12371822267062961
1783170034144099300,6.604099365234375,2.4414608394593,-0.3995136973381042,0.05510028472486883
1783170034154169300,6.61416943359375,-0.04527881914079189,-1.0428801363117992,0.9019342269212007
1783170034164238300,6.62423828125,-3.5716713225692507,-1.3833113839536904,1.7534882199093698
1783170034174308400,6.634308349609375,-7.39075673251748,-1.5557378887571394,1.6567895946547389
1783170034184378400,6.64437841796875,-10.318176796102524,-1.532648543462157,0.4164695813793689
1783170034194448100,6.6544482421875,-12.136982122313976,-1.5130612149387597,-0.7529289297156035
1783170034204517400,6.664517333984375,-14.626393045949936,-1.7184389722295104,-1.0170943915396928
1783170034214587400,6.67458740234375,-17.610274416947362,-2.00709180957824,-0.3574087224604562
1783170034224657400,6.684657470703125,-20.248135195863245,-2.448410074075311,0.4988115453056991
1783170034234726400,6.694726318359375,-22.281511493515968,-2.5931521608784793,0.8934930001817644
1783170034244796200,6.704796142578125,-23.589035522818563,-2.7494658814013,1.050212451961264
1783170034254866400,6.714866455078125,-23.690227952361106,-2.5896301242321726,0.5850562157589941
1783170034264936400,6.7249365234375,-23.803543365895745,-2.040871914105117,-0.7313042501457035
1783170034275005400,6.73500537109375,-23.97283960984945,-1.995107503404468,-1.744905392742157
1783170034285075500,6.745075439453125,-23.83858428413868,-1.9205618193775413,-2.313065784084052
1783170034295145200,6.755145263671875,-22.699947333467005,-1.8495155217736958,-2.7914322149932382
1783170034305214500,6.76521435546875,-20.40610574368238,-1.8673717887207864,-2.76012493032068
1783170034315284200,6.7752841796875,-17.192979563724993,-1.792050298015773,-2.1324024890720845
1783170034325354200,6.785354248046875,-13.45909815607071,-1.8298137730903923,-1.6136821282036602
1783170034335423200,6.79542333984375,-9.444300788930057,-1.6946292037054895,-1.118461739257723
1783170034345493200,6.8054931640625,-5.523553578361868,-1.2670948421500623,-0.5537962408268824
1783170034355563500,6.8155634765625,-3.1282588622719047,-0.6443765658643096,-0.6261041193317621
1783170034365633300,6.82563330078125,-2.006108936020732,0.05593596836403012,-1.2099835463963449
1783170034375702300,6.835702392578125,-0.7589987511485815,0.723103481098637,-1.6992787830770015
1783170034385772300,6.845772216796875,1.164580370223522,0.6437266505882143,-1.6397585264854133
1783170034395842300,6.85584228515625,3.7687937310814856,0.593751636455208,-1.2886306743927298
1783170034405912300,6.865912353515625,6.243250831213593,0.6868982683166861,-1.2943538743451237
1783170034415981300,6.875981201171875,8.380365151238442,0.6942898398727179,-1.3386650174975394
1783170034426051300,6.88605126953125,9.899273338639736,1.0442214679181576,-1.3335297004356979
1783170034436121300,6.896121337890625,10.265539430892467,1.4816254815809429,-1.1412272594258188
1783170034446190300,6.9061904296875,9.828512287718057,1.6995367033608257,-0.8786788774095475
1783170034456260400,6.91626025390625,9.672306411483884,1.8258698577702044,-0.7247589932207018
1783170034466330400,6.926330322265625,10.380484491455555,1.7020096693456173,-0.5530521809939295
1783170034476400400,6.936400390625,11.29805760153532,1.435904179369658,-0.1595598628371954
1783170034486469400,6.946469482421875,11.831402261692284,1.2079019178166985,0.24226401113942264
1783170034496539400,6.956539306640625,12.234357623916864,0.8269285241670906,0.7528581295017153
1783170034506609400,6.966609375,12.448255226141214,0.6032870881721377,1.4136556688129902
1783170034516678400,6.976678466796875,12.321426835560798,0.44940819358080625,1.784144639457762
1783170034526748400,6.98674853515625,12.143908706706762,0.34789851478263734,2.023669434891641
1783170034536818200,6.996818115234375,11.689162366968393,0.32973931936621664,2.2503309493601322
1783170034546888400,7.006888427734375,10.79950251520872,0.24645561761036514,2.2560120637364682
1783170034556957200,7.016957275390625,9.990546431714296,0.26666224707588554,2.338093550095707
1783170034567027500,7.02702734375,9.97793361837864,0.341936683768779,2.4309949750244617
1783170034577097500,7.037097412109375,10.29507415293455,0.6268870133377611,2.426075784931332
1783170034587166200,7.047166259765625,10.216408027976751,0.8785439989835023,2.3040736454635855
1783170034597236500,7.057236572265625,9.776778593349457,1.100117688793689,1.9380569979272781
1783170034607306200,7.06730615234375,9.085292704981565,1.3047495961531996,1.4424202832654118
1783170034617375500,7.07737548828125,8.216744614833592,1.321364046345651,1.005723468023911
1783170034627445200,7.0874453125,7.537073082900047,1.2748036629617214,0.891326469797641
1783170034637515300,7.097515380859375,7.381397952541708,1.2972726844012736,0.8485069534424692
1783170034647585300,7.107585205078125,7.5898752832829945,1.4155708547845482,0.6555421030011027
1783170034657654300,7.117654296875,8.182548330721259,1.5810754513703287,0.4325423259105533
1783170034667724300,7.127724365234375,8.828125869873165,1.7196762589395045,0.402021077049151
1783170034677794600,7.137794677734375,8.5867867184937,1.7486701521031558,0.11750950422361492
1783170034687863300,7.14786328125,7.9647689186275,1.697564818765968,-0.4923576929911971
1783170034697933300,7.157933349609375,7.344889299833774,1.3515208458088337,-0.6671487349689006
1783170034708003300,7.16800341796875,6.768221046257018,0.8286295559313148,-0.561032877549529
1783170034718073300,7.1780732421875,6.375331150972843,0.664055372063443,-0.6284155380792915
1783170034728142300,7.188142333984375,6.116859663006663,0.3870928994432091,-0.47461606539972123
1783170034738212400,7.19821240234375,5.425373774638771,-0.1002946039199829,-0.05881619997546077
1783170034748282400,7.208282470703125,3.7770746526926753,-0.301387815759331,0.03523644081503153
1783170034758351400,7.218351318359375,0.5999632044464349,-0.2537416829653084,0.18675269792824983
1783170034768421400,7.22842138671875,-3.5391403413206337,-0.43040246433764695,0.11361344663314521
1783170034778491100,7.2384912109375,-7.3201079097986215,-0.9271442176319659,-0.07275989658869803
1783170034788561400,7.2485615234375,-9.999192679506539,-1.411806679945439,-0.1596510482519865
1783170034798630100,7.258630126953125,-11.956588145762682,-1.9602119849815964,-0.5759931307941675
1783170034808700400,7.268700439453125,-13.475776903671026,-2.71422710249871,-1.1155634605329483
1783170034818770400,7.2787705078125,-14.867737458026408,-3.1913106539905067,-1.5000417204983532
1783170034828839400,7.28883935546875,-16.40806018937826,-3.070670596656203,-1.2046337098009883
1783170034838909400,7.298909423828125,-18.399486520051955,-2.3861007712870834,-1.2127790953990072
1783170034848979200,7.308979248046875,-20.719589509296416,-1.5466966502979398,-2.4566426265001295
1783170034859049200,7.31904931640625,-22.234438776695725,-1.0470561798874287,-3.685287180355191
1783170034869118500,7.329118408203125,-22.698944293904304,-0.7905038964807987,-4.10706005577445
1783170034879188200,7.339188232421875,-22.41623677482605,-0.6250882933527231,-3.5393823333829637
1783170034889258500,7.349258544921875,-21.875149537718293,-0.6761855164486914,-2.899781822814047
1783170034899327200,7.3593271484375,-21.2748665997982,-0.9491134728558361,-2.388479483117163
1783170034909397200,7.369397216796875,-21.007230393123624,-1.012505894705653,-1.8270631592079996
1783170034919467500,7.379467529296875,-20.766893696784972,-0.9048431731704621,-1.7782547046363353
1783170034929537300,7.389537353515625,-19.87937670227289,-0.9370304555479436,-1.4978265286669135
1783170034939606500,7.3996064453125,-17.732212697398662,-0.7801067864332347,-1.22207306651026
1783170034949676300,7.40967626953125,-14.33952606910467,-0.6331397170569747,-1.1181138026028872
1783170034959746300,7.419746337890625,-10.340072986090183,-0.4215058950461447,-0.5614323251958936
1783170034969815300,7.429815185546875,-6.261173441395163,-0.2960894170902669,0.04579634020887315
1783170034979885300,7.43988525390625,-2.5862515877097842,-0.25907310712113973,0.3798702547132969
1783170034989955300,7.449955322265625,0.44639819810986514,-0.36881621512696144,0.42171413096934557
1783170035000025300,7.460025390625,3.031563744148612,-0.3229229173496365,0.21470833408534526
1783170035010094300,7.47009423828125,4.798397475582361,0.004363017515093088,-0.14085136297494172
1783170035020164400,7.480164306640625,5.665600580862164,0.38238267592564223,-0.234052136176452
1783170035030234400,7.490234375,6.481881892678142,1.05317838909477,-0.02588971660323441
1783170035040303000,7.50030322265625,7.64490217397809,1.7347087006375193,0.09203742851056158
1783170035050373400,7.510373291015625,9.317676981011033,2.3563573749303814,-0.24151122001074254
1783170035060443000,7.52044287109375,11.22269051812291,2.759455652756989,-0.5557466807749122
1783170035070511900,7.530511962890625,12.986907345056533,2.9342990094438193,-0.8866232605427503
1783170035080582000,7.540581787109375,14.099728301948309,2.810680813081562,-1.0665475006904452
1783170035090652000,7.55065185546875,14.371132336723804,2.5426480083048344,-0.6855195273093879
1783170035100722000,7.560721923828125,14.29709796321988,2.098227686139196,-0.04597345034144819
1783170035110791000,7.570791015625,13.657600620764493,1.6114843258984386,0.5167494261216372
1783170035120861000,7.58086083984375,12.956746015548704,1.3446417538195847,0.9574708937693387
1783170035130931000,7.590930908203125,12.249853299212456,1.183357259146869,1.4303890692099928
1783170035140999700,7.600999755859375,11.891263148415089,0.9705195412389933,1.7428621964767574
1783170035151070000,7.611070068359375,11.81871229146719,0.9528769170425831,1.9300095928110181
1783170035161140000,7.621139892578125,11.460403880220651,1.0801024902470409,2.0519040341205894
1783170035171209700,7.631209716796875,10.720970830285548,1.2061620884120463,2.3673238823637366
1783170035181279000,7.641279052734375,9.962923096251487,1.2833381209425627,2.5494585651025177
1783170035191348700,7.6513486328125,9.280129048383236,1.4156237540155647,2.296911937140673
1783170035201418800,7.661418701171875,8.557891463398933,1.594511856048554,1.9024711591526864
1783170035211487700,7.67148779296875,7.883839524912834,1.505042013003677,1.4928779663488267
1783170035221557800,7.681557861328125,7.436459914550185,1.306083328974992,1.2537114828333258
1783170035231628000,7.6916279296875,7.491014511558413,1.2684579471968114,1.1676485986877232
1783170035241697800,7.70169775390625,7.918328654491901,1.3385742704741657,1.055979417990148
1783170035251767000,7.71176708984375,8.31410433434546,1.3956433345213533,0.8903140778847038
1783170035261836800,7.7218369140625,8.450576751583814,1.5501739710196851,0.6329908831708133
1783170035271906800,7.73190673828125,8.331801319077611,1.5874565307095645,0.1743093228753656
1783170035281976000,7.74197607421875,8.507256085661053,1.6379183054462074,-0.20505729316473006
1783170035292045800,7.7520458984375,8.960766746124625,1.613294590190798,-0.2611508632432669
1783170035302115800,7.76211572265625,9.344395476588605,1.3925269560664892,-0.35455643830187616
1783170035312185900,7.772185791015625,9.21327961794734,1.1803136536672711,-0.22819654201604425
1783170035322254800,7.7822548828125,8.268059791529177,0.8331454989857972,-0.19357867149077354
1783170035332324900,7.792324951171875,6.447279950374364,0.26634558234214784,-0.29839440609700973
1783170035342395000,7.802394775390625,4.565133494108915,0.08987944675907492,0.12471607460156083
1783170035352464000,7.8124638671875,2.2507938906967637,-0.17959873452037572,0.4702513673841953
1783170035362534000,7.822533935546875,-0.6092763917148113,-0.86160002457574,0.2815479737795889
1783170035372604000,7.83260400390625,-3.5602614552825687,-1.3079562832400202,0.993956677058339
1783170035382674000,7.842673828125,-6.599798078006506,-1.9348212308764456,1.6256319475859402
1783170035392743000,7.852742919921875,-9.446711357203126,-2.3204744529053567,1.4295359595119952
1783170035402813000,7.86281298828125,-11.720191126960515,-2.177420903711021,0.7371350021257996
1783170035412882700,7.872882568359375,-12.83159520279169,-2.369776390082389,-0.5026397983569652
1783170035422952000,7.882951904296875,-13.503717049998045,-2.936382829980552,-1.436695037486404
1783170035433021700,7.893021728515625,-14.30155786523819,-3.6449461098775267,-1.8732956258118152
1783170035443092000,7.903092041015625,-14.960780483382939,-4.228405631029606,-1.9716724134117363
1783170035453160700,7.91316064453125,-16.00624581388235,-4.4218063886702055,-1.757033345170319
1783170035463231000,7.92323095703125,-17.693475262725354,-3.7301860602676866,-1.503103300026059
1783170035473301000,7.933301025390625,-20.170641621816156,-2.300767443525046,-2.0980409313954413
1783170035483370800,7.943370849609375,-22.60596556595564,-1.2124777012996375,-3.149628105776012
1783170035493440000,7.95343994140625,-24.10863339717388,-0.8079395999282598,-3.0793194747969506
1783170035503510000,7.963510009765625,-25.201892744505404,-0.7400918061047792,-1.6147462503038346
1783170035513579800,7.973579833984375,-26.656851899087428,-0.8127309258580208,0.2112927534881979
1783170035523649000,7.98364892578125,-27.148198661470413,-0.9014122488737106,1.1102912192184478
1783170035533718800,7.99371875,-25.26752987654209,-1.0243423168413341,0.751389591319114
1783170035543788800,8.003788818359375,-20.852921290421484,-1.0485052827171981,0.038317492228187616
1783170035553859000,8.013859130859375,-15.499166060316561,-0.9578874386809766,-0.48146278948932886
1783170035563927800,8.023927734375,-10.13376949225664,-0.6518434676788747,-0.9080376583628356
1783170035573998000,8.033998046875,-5.270855997622013,-0.36312443322613835,-1.0729591212984173
1783170035584067800,8.04406787109375,-1.4959107581734656,-0.5328261892408133,-1.0590481579110025
1783170035594136800,8.05413671875,2.007546275347471,-0.2912266333594918,-0.8729802273765206
1783170035604206800,8.064206787109375,4.722264083972573,-0.034390491510182614,-0.49305078982189293
1783170035614276900,8.07427685546875,6.4988365346103905,0.05305500610023737,-0.4504219006679952
1783170035624347000,8.084346923828125,7.26246294555962,0.3799281223803758,-0.3428693980416283
1783170035634415900,8.094415771484375,7.862333795547485,0.917600728739053,-0.4423607592873275
1783170035644486000,8.10448583984375,9.137975078377128,1.5753854230351745,-1.2297431627467275
1783170035654556000,8.114555908203124,11.296465363907814,1.7876798278465866,-2.0105577321231363
1783170035664625000,8.124625,13.69388189445734,1.4502055303141475,-2.016776460507512
1783170035674694700,8.134694580078126,14.767805257678031,1.0117604831658302,-1.9087759583853183
1783170035684765000,8.144764892578126,14.72916368459463,0.9138580350793898,-1.7894599892616272
1783170035694835000,8.1548349609375,14.687795901417731,1.0171716945596039,-1.5737478849612176
1783170035704904000,8.164904052734375,14.28329973949194,1.2233211668752133,-0.8650026726260781
1783170035714974000,8.174973876953125,12.80444299197197,1.4945532060846685,0.11764957028143107
1783170035725043700,8.185043701171875,11.434676733767986,1.5832592251501976,1.1263063152782617
1783170035735113000,8.195113037109374,10.411342571055888,1.7971370997607707,1.8080510002240537
1783170035745183000,8.205182861328124,9.511019286462664,1.9286980718210338,2.008897982217371
1783170035755252700,8.215252685546876,8.451707801440358,1.741894082096964,1.8440218927934764
1783170035765322000,8.225322021484375,7.93067667941153,1.5493457035019993,1.5460266420818864
1783170035775391700,8.235391845703125,7.714305965071916,1.5614058513909577,1.3402404501207172
1783170035785462000,8.2454619140625,7.502171280866861,1.5865565131299197,0.9588324644461274
1783170035795532000,8.255531982421875,7.755024344429374,1.653656995717436,0.6900296251449733
1783170035805600800,8.265600830078125,8.64659616729021,1.8111407829329371,0.47709973544161766
1783170035815671000,8.275671142578124,9.586514964690805,1.9321549342766402,0.22366280757654458
1783170035825740800,8.28574072265625,9.607823710179328,1.9478880715899167,-0.004891863694787025
1783170035835810000,8.29581005859375,9.159667270225286,1.7544411367200314,-0.18053952250182628
1783170035845879800,8.3058798828125,9.259449832969903,1.6482288331888615,-0.1607264954637736
1783170035855949800,8.31594970703125,9.798497088682652,1.763162787836045,-0.24857816272228955
1783170035866019800,8.326019775390625,10.160767389297485,1.688029951570928,-0.1660164916306734
1783170035876088800,8.3360888671875,10.202238048326969,1.6234597181133925,-0.13313048639930783
1783170035886158800,8.346158935546875,10.024123707145453,1.7223520540200172,-0.12988759548794476
1783170035896228900,8.356228759765624,10.099703556525707,1.7467011901177465,-0.14840060931071639
1783170035906297900,8.3662978515625,10.045198059356212,1.746621987401694,-0.11147690952848642
1783170035916368000,8.376367919921876,9.265735196849704,1.7405393064871428,-0.0014684285847470164
1783170035926438000,8.38643798828125,8.225611811900139,1.6411171014875172,0.3282463408621028
1783170035936508000,8.3965078125,7.024015423968434,1.5157345258012414,0.39492593115642666
1783170035946577000,8.406576904296875,5.779537341165542,1.4732320395059884,0.3886803147651255
1783170035956647000,8.41664697265625,4.82691571405828,1.2919579191192985,0.047292095191963014
1783170035966716700,8.426716552734375,3.709270698010921,0.8212631918817758,-0.40801403385363516
1783170035976786000,8.436785888671874,2.4253946707993745,0.5183892292179167,-0.3352067544592544
1783170035986856000,8.44685595703125,0.9966472313165664,-0.5288116929024458,-0.31954368670750405
1783170035996926000,8.456926025390626,-1.1522218239098787,-1.614785851661861,-0.08476864308398216
1783170036006995000,8.466994873046875,-3.9529204644203184,-1.8571145986005664,0.740698247565329
1783170036017064700,8.477064697265625,-7.208174306011199,-2.0341377835445105,1.0477703925713897
1783170036027135000,8.487135009765625,-10.727819088745116,-2.1718941031135617,0.8148780939545482
1783170036037205000,8.497205078125,-13.50359663848877,-2.4862439840376376,0.4053283019009977
1783170036047274000,8.50727392578125,-14.47127262686491,-2.741215647189319,-0.010769523556530476
1783170036057344500,8.517344482421874,-14.275509231746195,-3.0249060398250815,-0.31634419654645024
1783170036067414500,8.52741455078125,-14.920683450794218,-3.4070848637416957,-0.752419299693033
1783170036077483500,8.5374833984375,-16.712700138801335,-3.314779797270894,-1.2619392129525542
1783170036087553500,8.547553466796876,-19.330567931002378,-2.4526462503403423,-2.2029266624979673
1783170036097623300,8.557623291015625,-21.362460712099075,-1.5838653743498026,-3.2159967669576406
1783170036107693300,8.567693359375,-23.057976343250274,-0.6562398029416799,-3.324925343710184
1783170036117762600,8.577762451171875,-25.225000063848494,-0.1344363813661039,-3.041767158254981
1783170036127832300,8.587832275390625,-27.510169686877727,-0.3873959740430116,-2.3660662835180757
1783170036137902600,8.597902587890625,-28.571474391543862,-0.5343944614708424,-1.7990600306473672
1783170036147971300,8.607971435546874,-27.845067996442317,-0.8884588054068386,-2.0334647065885365
1783170036158041600,8.61804150390625,-25.306856509280202,-1.652994001764059,-1.9508271937817334
1783170036168111600,8.628111572265626,-21.691184132421014,-2.3305232609719035,-1.5039039488844572
1783170036178180400,8.638180419921875,-17.507218531620502,-2.5622405975252387,-1.113762913917005
1783170036188250600,8.648250732421875,-12.742973501008748,-2.5667133590251208,-0.6251275293845683
1783170036198320400,8.6583203125,-7.5984046266973015,-2.086507876120508,-0.32887594400253145
1783170036208390400,8.668390380859375,-2.5797142948955294,-1.6781991701692343,-0.4977110732505098
1783170036218459400,8.67845947265625,2.702805837035179,-1.471613790654391,-0.9106265058122575
1783170036228529400,8.688529296875,7.572269483965635,-1.2214733470514416,-0.9060900314263999
1783170036238599400,8.698599365234376,10.153874707174301,-0.9145777276560664,-0.50600876333341
1783170036248668400,8.70866845703125,10.021291114068031,-0.4277734310083091,0.2338425120137632
1783170036258738400,8.718738525390625,8.888408196878432,0.09914937940761447,0.8899342117216438
1783170036268808400,8.728808349609375,8.778685254877805,0.7771801583968102,0.9265563347414135
1783170036278877400,8.73887744140625,9.129108465832472,1.4890077007867395,0.6730704531680792
1783170036288947500,8.748947509765625,9.826577520263195,1.9569377856165169,0.5033503577791154
1783170036299017500,8.759017578125,11.762860055863857,2.719939634926617,0.1819256430979818
1783170036309087500,8.76908740234375,13.657543337619304,3.008181699517369,-0.19134528641551732
1783170036319156500,8.779156494140626,14.749891999846696,2.5812960111290213,0.2180166549157351
1783170036329226500,8.7892265625,14.716647901892662,2.3039117329001426,0.4184283142317086
1783170036339296500,8.799296630859375,13.262284959638118,2.2121198766484858,0.46389388811625537
1783170036349365500,8.809365478515625,11.903435232245922,2.0727698581472036,0.4306324006360024
1783170036359435500,8.819435546875,10.918672499990462,2.355733982335031,0.7314953157383948
1783170036369505300,8.82950537109375,10.366396344870328,2.4943834513515233,1.2308144452400505
1783170036379575600,8.839575439453125,10.60045176898241,2.6405969258815047,1.7233073089182376
1783170036389644300,8.849644287109374,10.78486374900341,2.6275650103509425,2.183858389412612
1783170036399714600,8.859714599609376,10.445604906141757,2.4120766318038105,2.1986833258397875
1783170036409784600,8.86978466796875,9.704028998959064,2.4997189671605824,1.6871365098625422
1783170036419853600,8.879853515625,8.82299142959416,2.381037496548146,1.0758695288524032
1783170036429923600,8.889923583984375,8.279672487911581,2.064420401344448,0.7335260178484022
1783170036439993300,8.899993408203125,8.078938903164863,1.9232355686314402,0.5860295908357948
1783170036450062600,8.9100625,8.10507463041842,1.8219504923693834,0.3680131916483864
1783170036460132400,8.92013232421875,8.148091349846124,1.7348106997072696,0.4164495615046471
1783170036470202400,8.930202392578124,8.495963122752308,1.478830151773989,0.626298838186264
