time,seconds_elapsed,z,y,x
1783170027608845000,0.068844970703125,-0.029996052384376526,0.043171994388103485,0.1717437505722046
1783170027618915000,0.0789150390625,-0.014060375280678272,0.050108738243579865,0.162772998213768
1783170027628984800,0.08898486328125,0.0011641180608421564,0.06383706629276276,0.16075271368026733
1783170027639055000,0.09905517578125,0.01881060004234314,0.08710896223783493,0.17735877633094788
1783170027649123800,0.109123779296875,0.029915448278188705,0.09970198571681976,0.19446691870689392
1783170027659194000,0.119194091796875,0.03206947445869446,0.10094981640577316,0.20691247284412384
1783170027669264100,0.12926416015625,0.03598298877477646,0.0965510681271553,0.18899472057819366
1783170027679334000,0.139333984375,0.04212506115436554,0.08388321101665497,0.1761500984430313
1783170027689403100,0.149403076171875,0.06295923888683319,0.08458548784255981,0.15470817685127258
1783170027699473000,0.159472900390625,0.0866653099656105,0.08522184938192368,0.14255373179912567
1783170027709543000,0.16954296875,0.1143062561750412,0.06431123614311218,0.12974978983402252
1783170027719613200,0.17961328125,0.1422395408153534,0.04590320214629173,0.10449694842100143
1783170027729682000,0.189681884765625,0.1746736466884613,0.049104854464530945,0.08864074945449829
1783170027739752000,0.199751953125,0.21584764122962952,0.058502353727817535,0.08359251171350479
1783170027749822000,0.209822021484375,0.23880116641521454,0.048148781061172485,0.06552909314632416
1783170027759892000,0.21989208984375,0.2633360028266907,0.004845382645726204,0.0314677469432354
1783170027769961000,0.2299609375,0.2834324836730957,-0.05693143233656883,-0.006896153092384338
1783170027780031000,0.240031005859375,0.2898991107940674,-0.11081184446811676,-0.04032180458307266
1783170027790101000,0.25010107421875,0.3153160512447357,-0.14683669805526733,-0.051106806844472885
1783170027800171000,0.2601708984375,0.33387991786003113,-0.1440570205450058,-0.02134661190211773
1783170027810240000,0.270239990234375,0.3399873375892639,-0.12883545458316803,0.030475838109850883
1783170027820309800,0.280309814453125,0.33392706513404846,-0.10609658062458038,0.07362277805805206
1783170027830380000,0.290380126953125,0.32106879353523254,-0.10142193734645844,0.08195874094963074
1783170027840450000,0.300449951171875,0.31492406129837036,-0.09079006314277649,0.04382147267460823
1783170027850519000,0.31051904296875,0.3104339838027954,-0.08655829727649689,-0.002199282869696617
1783170027860589000,0.320589111328125,0.31140387058258057,-0.08797843009233475,-0.05071379989385605
1783170027870658800,0.330658935546875,0.3067880868911743,-0.07745681703090668,-0.07661677151918411
1783170027880729000,0.34072900390625,0.2931431829929352,-0.054520074278116226,-0.08243582397699356
1783170027890797800,0.3507978515625,0.2787594497203827,-0.045435499399900436,-0.09889309108257294
1783170027900867800,0.360867919921875,0.2669374942779541,-0.03789063170552254,-0.11360793560743332
1783170027910938000,0.370938232421875,0.26017147302627563,-0.035585932433605194,-0.10306394845247269
1783170027921007900,0.3810078125,0.24443310499191284,-0.027059024199843407,-0.09804724901914597
1783170027931077000,0.3910771484375,0.22662748396396637,-0.022728456184267998,-0.09865125268697739
1783170027941147000,0.40114697265625,0.2159614861011505,-0.038325127214193344,-0.12516780197620392
1783170027951217000,0.411216796875,0.210245281457901,-0.02602744847536087,-0.1829586625099182
1783170027961287000,0.421286865234375,0.2044828087091446,-0.014026574790477753,-0.24538064002990723
1783170027971356000,0.43135595703125,0.19914238154888153,0.021318897604942322,-0.29377904534339905
1783170027981426000,0.441426025390625,0.19116370379924774,0.048945195972919464,-0.340319961309433
1783170027991496000,0.451495849609375,0.1962844282388687,0.10467823594808578,-0.33031100034713745
1783170028001565000,0.46156494140625,0.19204629957675934,0.11703117191791534,-0.2778952717781067
1783170028011635000,0.471635009765625,0.17095085978507996,0.1080121099948883,-0.21932998299598694
1783170028021705000,0.481705078125,0.1454651802778244,0.07665778696537018,-0.17327004671096802
1783170028031775000,0.49177490234375,0.13048356771469116,0.06738919019699097,-0.1417294293642044
1783170028041844000,0.501843994140625,0.12394294887781143,0.0969509407877922,-0.1200638934969902
1783170028051914000,0.5119140625,0.11525145918130875,0.13764244318008423,-0.11457405239343643
1783170028061984000,0.52198388671875,0.11734882742166519,0.1785452663898468,-0.10357546806335449
1783170028072054300,0.53205419921875,0.12205357104539871,0.20409749448299408,-0.04724561795592308
1783170028082123000,0.542123046875,0.13766317069530487,0.2049463838338852,0.03413303196430206
1783170028092193000,0.552193115234375,0.16521649062633514,0.20132288336753845,0.1364591270685196
1783170028102263000,0.562262939453125,0.18412451446056366,0.19344018399715424,0.23234282433986664
1783170028112333000,0.5723330078125,0.18598952889442444,0.17044804990291595,0.26445573568344116
1783170028122402300,0.58240234375,0.19525572657585144,0.1610763967037201,0.22861546277999878
1783170028132472000,0.59247216796875,0.23451578617095947,0.15869899094104767,0.17458125948905945
1783170028142542000,0.6025419921875,0.29798051714897156,0.16772989928722382,0.15481562912464142
1783170028152612000,0.612612060546875,0.32530614733695984,0.20015229284763336,0.19773167371749878
1783170028162681000,0.62268115234375,0.32314062118530273,0.20972423255443573,0.25543832778930664
1783170028172751000,0.632751220703125,0.2765001356601715,0.13642524182796478,0.2684297561645508
1783170028182821000,0.642821044921875,0.20733541250228882,-0.022697165608406067,0.2031591832637787
1783170028192891100,0.65289111328125,0.11977839469909668,-0.2501939833164215,0.07037371397018433
1783170028202960100,0.662960205078125,0.09645786881446838,-0.3676436245441437,-0.053117673844099045
1783170028213030100,0.673030029296875,0.07014370709657669,-0.3794052302837372,-0.16058209538459778
1783170028223100200,0.68310009765625,0.03244874253869057,-0.2321436107158661,-0.2301727682352066
1783170028233170000,0.693169921875,0.0043966020457446575,-0.04456517845392227,-0.2573777437210083
1783170028243239200,0.7032392578125,-0.023678015917539597,0.12191367894411087,-0.30149319767951965
1783170028253309000,0.713308837890625,-0.011890865862369537,0.2884800136089325,-0.3866714835166931
1783170028263379200,0.723379150390625,0.04476047679781914,0.35869932174682617,-0.4728914201259613
1783170028273449200,0.73344921875,0.09279404580593109,0.2636830508708954,-0.538264811038971
1783170028283518000,0.74351806640625,0.10820852965116501,-0.04565174877643585,-0.5767233371734619
1783170028293588200,0.753588134765625,0.08950728178024292,-0.4962407648563385,-0.5834180116653442
1783170028303658000,0.763657958984375,0.04779502749443054,-0.8854578733444214,-0.5325077176094055
1783170028313728000,0.77372802734375,-0.07517030835151672,-1.1873050928115845,-0.4623180031776428
1783170028323797000,0.783796875,-0.22259625792503357,-1.349310278892517,-0.4731611907482147
1783170028333867000,0.793866943359375,-0.39971432089805603,-1.2478902339935303,-0.5825633406639099
1783170028343937300,0.803937255859375,-0.5884783864021301,-0.8411766290664673,-0.6958048939704895
1783170028354007000,0.814007080078125,-0.7415443658828735,-0.3197954297065735,-0.735596776008606
1783170028364076000,0.824075927734375,-0.8617882132530212,0.16927173733711243,-0.6362284421920776
1783170028374146000,0.83414599609375,-0.9210461974143982,0.6309384107589722,-0.4759620428085327
1783170028384216000,0.844216064453125,-0.8331700563430786,1.0055665969848633,-0.24031676352024078
1783170028394286000,0.8542861328125,-0.7310852408409119,1.1228700876235962,0.1901688426733017
1783170028404355000,0.86435498046875,-0.6606405973434448,1.1546273231506348,0.6881371140480042
1783170028414425000,0.874425048828125,-0.6710119843482971,1.061806082725525,1.0936883687973022
1783170028424495000,0.8844951171875,-0.7473989725112915,0.8389925956726074,1.0652748346328735
1783170028434565000,0.894565185546875,-0.6714035272598267,0.32863956689834595,0.45774465799331665
1783170028444634000,0.904634033203125,-0.3568462133407593,-0.4132048487663269,-0.16927093267440796
1783170028454704000,0.9147041015625,0.06971337646245956,-0.9209719300270081,-0.4006083011627197
1783170028464774100,0.924774169921875,0.4177280068397522,-0.8213932514190674,-0.19049538671970367
1783170028474844000,0.934843994140625,0.6763555407524109,-0.3567656874656677,0.20353899896144867
1783170028484913200,0.9449130859375,0.9381712675094604,0.08046823740005493,0.33296430110931396
1783170028494983200,0.954983154296875,1.1389144659042358,0.31848904490470886,0.111294224858284
1783170028505053000,0.965052978515625,1.16423499584198,0.3769218623638153,-0.17028656601905823
1783170028515123200,0.975123291015625,0.9651954174041748,0.21221362054347992,-0.26339757442474365
1783170028525192000,0.98519189453125,0.7194035053253174,-0.04219549894332886,-0.26066359877586365
1783170028535262200,0.99526220703125,0.6061341762542725,-0.18059785664081573,-0.198492631316185
1783170028545332200,1.005332275390625,0.5091015100479126,-0.20560026168823242,-0.1213950663805008
1783170028555402000,1.015402099609375,0.37737005949020386,-0.26820507645606995,0.0163127351552248
1783170028565471200,1.02547119140625,0.1769191026687622,-0.29771435260772705,0.10677570104598999
1783170028575541000,1.035541015625,-0.01025637611746788,-0.3526955842971802,0.1309012770652771
1783170028585611000,1.045611083984375,-0.15156948566436768,-0.37200284004211426,0.14241237938404083
1783170028595681300,1.055681396484375,-0.2607548236846924,-0.21567128598690033,0.17351198196411133
1783170028605750000,1.06575,-0.2662079334259033,0.021666303277015686,0.17713816463947296
1783170028615820300,1.0758203125,-0.20325694978237152,0.18109217286109924,0.10902995616197586
1783170028625890000,1.08589013671875,-0.15715095400810242,0.21634989976882935,0.04457763209939003
1783170028635959000,1.095958984375,-0.123243048787117,0.18311764299869537,-0.013833746314048767
1783170028646029000,1.106029052734375,-0.08182718604803085,0.15535005927085876,-0.028423510491847992
1783170028656099000,1.11609912109375,-0.03003801964223385,0.11157754808664322,-0.002837192267179489
1783170028666169000,1.126169189453125,0.0026109772734344006,0.0656484067440033,0.06410980969667435
1783170028676238000,1.136238037109375,0.02999786101281643,0.04457002133131027,0.18180714547634125
1783170028686308000,1.14630810546875,0.05382385477423668,0.08644982427358627,0.27937424182891846
1783170028696378000,1.156378173828125,0.10189390927553177,0.18409410119056702,0.27511265873908997
1783170028706448100,1.1664482421875,0.11047831177711487,0.1375672072172165,0.1899612993001938
1783170028716516900,1.176516845703125,0.08916476368904114,-0.03796600177884102,0.11188621819019318
1783170028726587100,1.186587158203125,0.05598979443311691,-0.2050205022096634,0.14611217379570007
1783170028736657200,1.1966572265625,0.024270212277770042,-0.2924691140651703,0.2616267800331116
1783170028746727000,1.206726806640625,0.007872138172388077,-0.33310043811798096,0.38324636220932007
1783170028756796200,1.216796142578125,-0.008604306727647781,-0.33814767003059387,0.44840008020401
1783170028766866200,1.2268662109375,0.013982228934764862,-0.3090822100639343,0.4475148320198059
1783170028776936000,1.23693603515625,0.041924379765987396,-0.20532436668872833,0.4019588232040405
1783170028787006200,1.247006103515625,0.05474485084414482,-0.02818300947546959,0.3321117162704468
1783170028797075000,1.257074951171875,0.08063237369060516,0.10654071718454361,0.3086916208267212
1783170028807145200,1.267145263671875,0.0934266448020935,0.13498447835445404,0.36552923917770386
1783170028817215200,1.27721533203125,0.05592294782400131,0.10804393887519836,0.4769050180912018
1783170028827285000,1.287284912109375,0.010749610140919685,0.02239374816417694,0.5299932360649109
1783170028837354200,1.297354248046875,-0.011746377684175968,-0.18617092072963715,0.4558873474597931
1783170028847424000,1.307424072265625,0.03264177218079567,-0.45392048358917236,0.26662886142730713
1783170028857494000,1.317493896484375,0.16249752044677734,-0.4745061695575714,-0.006996818818151951
1783170028867564300,1.327564208984375,0.4066268503665924,-0.045226577669382095,-0.33609142899513245
1783170028877633000,1.337633056640625,0.774826169013977,0.6464203000068665,-0.7126254439353943
1783170028887703300,1.347703369140625,1.1085805892944336,0.9591079354286194,-1.065256118774414
1783170028897773000,1.35777294921875,1.1865978240966797,0.45786774158477783,-1.133629560470581
1783170028907843000,1.367843017578125,1.0026546716690063,-0.6499504446983337,-0.7045797109603882
1783170028917912000,1.377912109375,0.712562620639801,-1.6191130876541138,0.20577472448349
1783170028927982000,1.387982177734375,0.4414067566394806,-1.9654515981674194,0.9956504702568054
1783170028938052000,1.398052001953125,0.1434248983860016,-1.898403525352478,1.1043511629104614
1783170028948121000,1.40812109375,-0.1481395810842514,-1.555070161819458,0.5021408796310425
1783170028958191000,1.418191162109375,-0.21921882033348083,-0.8273934125900269,-0.38541504740715027
1783170028968261000,1.42826123046875,-0.025551805272698402,-0.09675168246030807,-0.9860303401947021
1783170028978331100,1.4383310546875,0.31890544295310974,0.4238758087158203,-1.0528695583343506
1783170028988399900,1.44839990234375,0.5570691227912903,0.5820862054824829,-0.7060756683349609
1783170028998470100,1.45847021484375,0.6035170555114746,0.728966236114502,-0.2559257745742798
1783170029008540200,1.4685400390625,0.46271467208862305,0.9845923781394958,0.15081387758255005
1783170029018610000,1.47860986328125,0.12573586404323578,1.2268726825714111,0.5966364145278931
1783170029028679200,1.48867919921875,-0.36626753211021423,1.3601646423339844,1.0827574729919434
1783170029038749000,1.4987490234375,-0.8978248834609985,1.1924268007278442,1.5343966484069824
1783170029048819200,1.508819091796875,-1.0840340852737427,1.0857064723968506,1.6992816925048828
1783170029058889500,1.518889404296875,-1.0340356826782227,1.0082907676696777,1.4502105712890625
1783170029068958200,1.528958251953125,-0.8360725045204163,0.6815255880355835,0.8373879194259644
1783170029079028500,1.539028564453125,-0.5878493785858154,0.2080453634262085,0.15865813195705414
1783170029089098500,1.549098388671875,-0.3495364189147949,-0.17735226452350616,-0.43988728523254395
1783170029099168300,1.559168212890625,-0.16050364077091217,-0.3382183611392975,-0.8961496353149414
1783170029109237500,1.569237548828125,-0.12423009425401688,-0.3377830684185028,-1.021479606628418
1783170029119307300,1.579307373046875,-0.23157306015491486,-0.3575487732887268,-0.9637640714645386
1783170029129377300,1.589377197265625,-0.38585126399993896,-0.4625435173511505,-0.8315995931625366
1783170029139446500,1.599446533203125,-0.4937537610530853,-0.4353206753730774,-0.6663400530815125
1783170029149516300,1.609516357421875,-0.5452284216880798,-0.2035222053527832,-0.5110930800437927
1783170029159586300,1.61958642578125,-0.5301642417907715,0.15068887174129486,-0.3764825165271759
1783170029169656300,1.62965625,-0.4643711447715759,0.42078545689582825,-0.22405566275119781
1783170029179725300,1.639725341796875,-0.3862832486629486,0.5618581771850586,-0.12241852283477783
1783170029189795600,1.649795654296875,-0.2987813651561737,0.6020836234092712,-0.05983991175889969
1783170029199865300,1.659865234375,-0.23659737408161163,0.6107000112533569,-0.04243268817663193
1783170029209935400,1.669935302734375,-0.18153996765613556,0.5412691235542297,0.042376380413770676
1783170029220004400,1.68000439453125,-0.11106953024864197,0.3757709860801697,0.15175212919712067
1783170029230074400,1.690074462890625,-0.014602351002395153,0.23735904693603516,0.21142299473285675
1783170029240144400,1.700144287109375,0.11174333840608597,0.12230543792247772,0.16000907123088837
1783170029250214400,1.71021435546875,0.23464733362197876,0.02742086350917816,0.035125333815813065
1783170029260283400,1.720283447265625,0.35478705167770386,0.007647689897567034,-0.07803530991077423
1783170029270353400,1.730353515625,0.4139010012149811,0.01619603857398033,-0.07936565577983856
1783170029280423400,1.74042333984375,0.40029704570770264,0.02616930939257145,0.061129406094551086
1783170029290493400,1.750493408203125,0.3346383273601532,-0.009536223486065865,0.21612124145030975
1783170029300562400,1.7605625,0.24373479187488556,-0.11151957511901855,0.3117433786392212
1783170029310632400,1.770632568359375,0.17327284812927246,-0.19328221678733826,0.28171783685684204
1783170029320702200,1.7807021484375,0.14366967976093292,-0.24729378521442413,0.20945057272911072
1783170029330772500,1.7907724609375,0.1430635303258896,-0.24900807440280914,0.2280321717262268
1783170029340841200,1.80084130859375,0.1445423811674118,-0.22545906901359558,0.30350613594055176
1783170029350911500,1.810911376953125,0.13351193070411682,-0.14657530188560486,0.38908225297927856
1783170029360981500,1.8209814453125,0.13928647339344025,-0.04764685779809952,0.4233299791812897
1783170029371050200,1.83105029296875,0.1355726420879364,-0.04968910291790962,0.43685877323150635
1783170029381120500,1.84112060546875,0.10719558596611023,-0.1318201869726181,0.44958972930908203
1783170029391190300,1.851190185546875,0.0657210573554039,-0.269846111536026,0.4787476062774658
1783170029401260300,1.86126025390625,0.034453678876161575,-0.46235910058021545,0.4941398501396179
1783170029411329300,1.871329345703125,0.001617710804566741,-0.5873645544052124,0.4325275123119354
1783170029421399300,1.8813994140625,-0.05508844554424286,-0.5012504458427429,0.2661409378051758
1783170029431469600,1.891469482421875,-0.08190235495567322,-0.21893110871315002,0.07120645046234131
1783170029441539300,1.901539306640625,-0.02614562027156353,0.27196642756462097,-0.016415011137723923
1783170029451608300,1.9116083984375,0.007313209120184183,0.879420280456543,-0.048821475356817245
1783170029461678300,1.92167822265625,0.04020564258098602,0.88226717710495,-0.12613330781459808
1783170029471748400,1.931748291015625,0.10584302246570587,-0.013313917443156242,-0.07418686896562576
1783170029481818400,1.941818359375,0.07604118436574936,-1.173792839050293,0.19129326939582825
1783170029491887400,1.951887451171875,-0.11202695965766907,-1.7010536193847656,0.40406981110572815
1783170029501957400,1.961957275390625,-0.3740340769290924,-1.349856972694397,0.2845660448074341
1783170029512027100,1.972027099609375,-0.5801885724067688,-0.6149505376815796,0.033578816801309586
1783170029522096400,1.982096435546875,-0.6230849027633667,-0.1338384747505188,0.06685182452201843
1783170029532166400,1.99216650390625,-0.44839268922805786,0.19245189428329468,0.39709383249282837
1783170029542236400,2.002236328125,-0.25986167788505554,0.46606558561325073,0.7299790978431702
1783170029552306400,2.012306396484375,-0.1810462325811386,0.6728542447090149,0.784231424331665
1783170029562375400,2.02237548828125,-0.17465198040008545,0.6855769157409668,0.5466142892837524
1783170029572445400,2.032445556640625,-0.14789071679115295,0.5913648009300232,0.10035723447799683
1783170029582515500,2.042515380859375,-0.1552591472864151,0.5069588422775269,-0.2981882691383362
1783170029592585200,2.052585205078125,-0.2325233668088913,0.36875900626182556,-0.6122458577156067
1783170029602654500,2.062654541015625,-0.2933688759803772,0.15472902357578278,-0.963325023651123
1783170029612724200,2.07272412109375,-0.2853151559829712,-0.13018447160720825,-1.2552162408828735
1783170029622794500,2.08279443359375,-0.26994261145591736,-0.3216215670108795,-1.3325083255767822
1783170029632864500,2.092864501953125,-0.2562219500541687,-0.12394336611032486,-1.060291051864624
1783170029642933200,2.102933349609375,-0.2574736475944519,0.29585471749305725,-0.4648820161819458
1783170029653003500,2.11300341796875,-0.27380749583244324,0.5709879994392395,0.16270403563976288
1783170029663073300,2.1230732421875,-0.2711978554725647,0.6080243587493896,0.5680488348007202
1783170029673143300,2.133143310546875,-0.3150804936885834,0.38912835717201233,0.6442272067070007
1783170029683212300,2.14321240234375,-0.38211971521377563,0.14183437824249268,0.43049973249435425
1783170029693282300,2.1532822265625,-0.44523149728775024,0.05524730309844017,0.08359313011169434
1783170029703352600,2.1633525390625,-0.4138179123401642,0.15915824472904205,-0.2234930396080017
1783170029713421300,2.17342138671875,-0.33655381202697754,0.2747788727283478,-0.4025799036026001
1783170029723491300,2.1834912109375,-0.24632327258586884,0.35471710562705994,-0.45073598623275757
1783170029733561300,2.193561279296875,-0.13723169267177582,0.4067411422729492,-0.4227931499481201
1783170029743631400,2.20363134765625,-0.009040438570082188,0.4169125556945801,-0.39638736844062805
1783170029753700600,2.21370068359375,0.10301540046930313,0.36800599098205566,-0.4216555655002594
1783170029763770400,2.223770263671875,0.1921314299106598,0.22331300377845764,-0.4286620616912842
1783170029773840400,2.23384033203125,0.25656312704086304,0.06486397236585617,-0.3511105477809906
1783170029783910400,2.243910400390625,0.2801249325275421,-0.07263903319835663,-0.20063261687755585
1783170029793979400,2.2539794921875,0.2676931619644165,-0.15355265140533447,-0.014141013845801353
1783170029804049400,2.26404931640625,0.255401611328125,-0.18234939873218536,0.11566118896007538
1783170029814119400,2.274119384765625,0.24851880967617035,-0.21553905308246613,0.1422170102596283
1783170029824189400,2.284189453125,0.25910672545433044,-0.2584436535835266,0.10628324002027512
1783170029834258400,2.294258544921875,0.2961372435092926,-0.268538236618042,0.11283224076032639
1783170029844328400,2.304328369140625,0.3397238850593567,-0.24966758489608765,0.17956653237342834
1783170029854398500,2.3143984375,0.3704511523246765,-0.19833703339099884,0.24670375883579254
1783170029864467500,2.324467529296875,0.36685827374458313,-0.129042387008667,0.2906762659549713
1783170029874537500,2.334537353515625,0.3306065499782562,-0.1304546594619751,0.3166157305240631
1783170029884607200,2.344607177734375,0.29732075333595276,-0.24581080675125122,0.30550050735473633
1783170029894677500,2.354677490234375,0.27167877554893494,-0.40516212582588196,0.28361037373542786
1783170029904746200,2.364746337890625,0.23329676687717438,-0.479501336812973,0.31895026564598083
1783170029914816300,2.374816162109375,0.1911981701850891,-0.4342137575149536,0.3744797110557556
1783170029924886500,2.384886474609375,0.1670672744512558,-0.3652333617210388,0.4213806390762329
1783170029934956300,2.394956298828125,0.1466200202703476,-0.3447638750076294,0.4221732020378113
1783170029945025500,2.405025634765625,0.16976049542427063,-0.40135499835014343,0.4034669101238251
1783170029955095300,2.41509521484375,0.2468692511320114,-0.40111690759658813,0.4471982717514038
1783170029965165300,2.425165283203125,0.2947915196418762,-0.2851066589355469,0.5888475775718689
1783170029975235600,2.435235595703125,0.25655388832092285,-0.09229901432991028,0.7892533540725708
1783170029985304300,2.44530419921875,0.20672163367271423,0.07233200967311859,0.9262112379074097
1783170029995374300,2.455374267578125,0.17902575433254242,0.14098656177520752,0.7767817974090576
1783170030005444400,2.4654443359375,0.21854360401630402,0.22151176631450653,0.2858565151691437
1783170030015513300,2.475513427734375,0.3958436846733093,0.23930422961711884,-0.37375181913375854
1783170030025583400,2.485583251953125,0.6116888523101807,0.14387330412864685,-0.8463928699493408
1783170030035653400,2.4956533203125,0.7357496023178101,-0.11975886672735214,-0.7666721343994141
1783170030045723400,2.505723388671875,0.681878387928009,-0.45280900597572327,-0.30602842569351196
1783170030055792600,2.515792724609375,0.5184108018875122,-0.6891270875930786,0.046530548483133316
1783170030065862400,2.5258623046875,0.2709495723247528,-0.8663011193275452,0.0944296345114708
1783170030075932400,2.535932373046875,0.0044719199649989605,-0.8491582870483398,-0.14492352306842804
1783170030086002400,2.54600244140625,-0.18608790636062622,-0.6388087868690491,-0.3389579653739929
1783170030096071400,2.556071533203125,-0.3131065368652344,-0.31403061747550964,-0.32975274324417114
1783170030106141400,2.566141357421875,-0.38143470883369446,-0.16124746203422546,-0.17381082475185394
1783170030116211500,2.57621142578125,-0.41836148500442505,-0.1651279479265213,0.05177627503871918
1783170030126281500,2.586281494140625,-0.4300420880317688,-0.12432806193828583,0.2578333020210266
1783170030136350500,2.5963505859375,-0.43621301651000977,0.04529852792620659,0.4437389373779297
1783170030146420500,2.60642041015625,-0.4940933585166931,0.2371278703212738,0.5798022150993347
1783170030156490500,2.616490478515625,-0.5738716125488281,0.37856996059417725,0.5169517993927002
1783170030166559500,2.6265595703125,-0.6145681738853455,0.41190847754478455,0.28890907764434814
1783170030176629500,2.63662939453125,-0.5773665308952332,0.2954608201980591,-0.054007090628147125
1783170030186699300,2.64669921875,-0.42477190494537354,0.1925557553768158,-0.4997997581958771
1783170030196769500,2.65676953125,-0.2300080806016922,0.2869444489479065,-0.8781936764717102
1783170030206838300,2.66683837890625,-0.046020664274692535,0.4183826148509979,-1.0616437196731567
1783170030216908500,2.676908447265625,0.10992342978715897,0.5226590633392334,-0.9929631948471069
1783170030226978600,2.686978515625,0.142750084400177,0.6003149747848511,-0.7309560775756836
1783170030237048300,2.69704833984375,0.1257665753364563,0.6191427707672119,-0.3732549250125885
1783170030247117600,2.70711767578125,0.045246440917253494,0.5000776052474976,-0.09091724455356598
1783170030257187300,2.717187255859375,-0.06104693561792374,0.21297168731689453,0.08135143667459488
1783170030267257300,2.72725732421875,-0.1628236472606659,-0.07735201716423035,0.18099653720855713
1783170030277327600,2.73732763671875,-0.2482333481311798,-0.13809379935264587,0.1848400980234146
1783170030287396400,2.747396240234375,-0.2889663875102997,-0.01065408531576395,0.1093011423945427
1783170030297466600,2.757466552734375,-0.28888604044914246,0.16249172389507294,-0.015139376744627953
1783170030307536400,2.767536376953125,-0.2791931927204132,0.28984543681144714,-0.10292275995016098
1783170030317605400,2.77760546875,-0.2792876958847046,0.3820819854736328,-0.11155994236469269
1783170030327675600,2.787675537109375,-0.2560388445854187,0.3775293231010437,-0.06702390313148499
1783170030337745400,2.797745361328125,-0.2244923710823059,0.28510046005249023,-0.035368405282497406
1783170030347815400,2.8078154296875,-0.12698471546173096,0.12143643945455551,-0.08399426937103271
1783170030357884400,2.817884521484375,0.02144664153456688,-0.005750940181314945,-0.19898170232772827
1783170030367954400,2.827954345703125,0.15167388319969177,-0.013715389184653759,-0.327177494764328
1783170030378024700,2.838024658203125,0.28158169984817505,0.05536807328462601,-0.42878058552742004
1783170030388094500,2.848094482421875,0.40660300850868225,0.1472034603357315,-0.44455263018608093
1783170030398163500,2.85816357421875,0.49062997102737427,0.23093029856681824,-0.34880945086479187
1783170030408233500,2.8682333984375,0.5134039521217346,0.2376827448606491,-0.23398329317569733
1783170030418303500,2.878303466796875,0.5021134614944458,0.17183436453342438,-0.13400714099407196
1783170030428372500,2.88837255859375,0.44219154119491577,0.05859329551458359,-0.03069380111992359
1783170030438442500,2.8984423828125,0.36486518383026123,-0.08263134211301804,0.03959149122238159
1783170030448512500,2.908512451171875,0.3008374571800232,-0.198531836271286,0.08590226620435715
1783170030458582500,2.91858251953125,0.26024365425109863,-0.23742571473121643,0.1360909789800644
1783170030468651500,2.928651611328125,0.24182921648025513,-0.2075016349554062,0.153326153755188
1783170030478721300,2.93872119140625,0.24794037640094757,-0.1300438642501831,0.1718692183494568
1783170030488791600,2.94879150390625,0.23745684325695038,-0.09860312193632126,0.22043408453464508
1783170030498861600,2.958861572265625,0.21878667175769806,-0.1204783245921135,0.2565647065639496
1783170030508930600,2.9689306640625,0.20041991770267487,-0.1910851150751114,0.28786829113960266
1783170030519000600,2.97900048828125,0.19090957939624786,-0.2954944670200348,0.32831883430480957
1783170030529070300,2.9890703125,0.184827983379364,-0.4270647466182709,0.32962459325790405
1783170030539139600,2.9991396484375,0.18955285847187042,-0.5375840663909912,0.3122330605983734
1783170030549209300,3.009209228515625,0.16376014053821564,-0.588699221611023,0.2995268404483795
1783170030559279400,3.019279296875,0.14679311215877533,-0.6453789472579956,0.2630592882633209
1783170030569349600,3.029349609375,0.13164079189300537,-0.6495811939239502,0.164908766746521
1783170030579418400,3.03941845703125,0.09447726607322693,-0.5176320672035217,0.021540813148021698
1783170030589488400,3.04948828125,0.06402455270290375,-0.1978069394826889,-0.1997241973876953
1783170030599558400,3.059558349609375,0.0832301676273346,0.2885902523994446,-0.5515956878662109
1783170030609628400,3.06962841796875,0.2307458519935608,0.8707191944122314,-0.8670481443405151
1783170030619697700,3.07969775390625,0.414966881275177,1.035335898399353,-0.7869008779525757
1783170030629767400,3.089767333984375,0.5603771209716797,0.3761709928512573,-0.322616845369339
1783170030639837400,3.09983740234375,0.5546014904975891,-0.5830190777778625,0.21789610385894775
1783170030649907500,3.109907470703125,0.37162449955940247,-1.166752815246582,0.4780597686767578
1783170030659976400,3.1199765625,0.09590718150138855,-1.309203028678894,0.3587029278278351
1783170030670046500,3.13004638671875,-0.17257274687290192,-1.2590328454971313,0.17199908196926117
1783170030680116500,3.140116455078125,-0.32175952196121216,-1.0008132457733154,0.1424761563539505
1783170030690185500,3.150185546875,-0.3388764560222626,-0.4353248178958893,0.2295364886522293
1783170030700255500,3.16025537109375,-0.20986473560333252,0.11965571343898773,0.3197963535785675
1783170030710325500,3.170325439453125,-0.023972097784280777,0.45986655354499817,0.3546683192253113
1783170030720395500,3.1803955078125,0.15002070367336273,0.7125239968299866,0.35439085960388184
1783170030730464500,3.190464599609375,0.2738015055656433,0.8932090997695923,0.24518287181854248
1783170030740534500,3.200534423828125,0.3847721219062805,0.8254886269569397,-0.06806378066539764
1783170030750604300,3.210604248046875,0.5383273363113403,0.468628466129303,-0.5201656818389893
1783170030760674600,3.220674560546875,0.6685065627098083,0.009892197325825691,-0.7797803282737732
1783170030770743300,3.230743408203125,0.6859904527664185,-0.28427019715309143,-0.7815055251121521
1783170030780813600,3.2408134765625,0.5045520663261414,-0.3975360095500946,-0.6427508592605591
1783170030790883600,3.250883544921875,0.21380624175071716,-0.43001487851142883,-0.492091566324234
1783170030800952300,3.260952392578125,-0.014482048340141773,-0.36590486764907837,-0.3489261567592621
1783170030811022600,3.271022705078125,-0.10084756463766098,-0.23817458748817444,-0.22322869300842285
1783170030821092400,3.28109228515625,-0.14840157330036163,-0.07402773201465607,-0.13956359028816223
1783170030831162400,3.291162353515625,-0.21331265568733215,0.1148923859000206,-0.04055657982826233
1783170030841231400,3.3012314453125,-0.3034146726131439,0.24511350691318512,0.1268039345741272
1783170030851301400,3.31130126953125,-0.3809587359428406,0.2516992390155792,0.3374685049057007
1783170030861371400,3.321371337890625,-0.45974573493003845,0.10131798684597015,0.4487653076648712
1783170030871441400,3.33144140625,-0.5450531840324402,-0.11258737742900848,0.48774972558021545
1783170030881510400,3.341510498046875,-0.6035377383232117,-0.3074319660663605,0.42358970642089844
1783170030891580700,3.35158056640625,-0.6332205533981323,-0.4004335403442383,0.24792733788490295
1783170030901650400,3.361650390625,-0.6252803206443787,-0.3871639370918274,0.04251654073596001
1783170030911719700,3.3717197265625,-0.5876327753067017,-0.20587031543254852,-0.17207485437393188
1783170030921789400,3.38178955078125,-0.556442141532898,0.04484112933278084,-0.3107272684574127
1783170030931859500,3.391859375,-0.5042558908462524,0.2965221107006073,-0.31369614601135254
1783170030941929500,3.401929443359375,-0.3917692005634308,0.4539090692996979,-0.17666374146938324
1783170030951998500,3.41199853515625,-0.24262551963329315,0.49317362904548645,0.01789029687643051
1783170030962068500,3.422068359375,-0.09760748594999313,0.486773818731308,0.16695739328861237
1783170030972138500,3.432138427734375,0.020267218351364136,0.4530685842037201,0.1724778562784195
1783170030982208500,3.44220849609375,0.11420197784900665,0.36633753776550293,0.06477740406990051
1783170030992277500,3.452277587890625,0.1682998389005661,0.3173545300960541,-0.15683513879776
1783170031002347500,3.462347412109375,0.19083228707313538,0.3122383654117584,-0.3993684947490692
1783170031012417500,3.47241748046875,0.19681695103645325,0.2628374993801117,-0.5590230822563171
1783170031022486500,3.482486572265625,0.1996763050556183,0.11944559216499329,-0.5835786461830139
1783170031032556500,3.492556640625,0.191233828663826,-0.049905091524124146,-0.49797558784484863
1783170031042626300,3.502626220703125,0.14570583403110504,-0.20233909785747528,-0.36161696910858154
1783170031052696600,3.512696533203125,0.09350761026144028,-0.2722446620464325,-0.20275408029556274
1783170031062765300,3.522765380859375,0.03700760751962662,-0.2563474476337433,-0.021186066791415215
1783170031072835300,3.53283544921875,0.0018384361173957586,-0.1559945046901703,0.1273496150970459
1783170031082905300,3.5429052734375,-0.023639671504497528,-0.012784351594746113,0.1710328906774521
1783170031092975400,3.552975341796875,-0.02207772806286812,0.09454583376646042,0.14461113512516022
1783170031103044400,3.56304443359375,0.0026766080409288406,0.16393409669399261,0.08448398858308792
1783170031113114400,3.5731142578125,0.034962642937898636,0.1768925040960312,0.038893599063158035
1783170031123184400,3.583184326171875,0.05485818162560463,0.14744167029857635,0.09590454399585724
1783170031133253400,3.59325341796875,0.05334177613258362,0.08353805541992188,0.23116275668144226
1783170031143323400,3.603323486328125,0.026524707674980164,0.02218867838382721,0.3073174059391022
1783170031153393200,3.61339306640625,0.0036747863050550222,0.001245046965777874,0.2785232961177826
1783170031163463400,3.62346337890625,-0.03744545951485634,0.00427332753315568,0.165212020277977
1783170031173532400,3.633532470703125,-0.019003335386514664,0.10251867771148682,-0.0774427130818367
1783170031183602400,3.6436025390625,0.05403272435069084,0.2188030630350113,-0.427852988243103
1783170031193672400,3.65367236328125,0.13334672152996063,0.31617701053619385,-0.753250777721405
1783170031203742200,3.6637421875,0.224535271525383,0.3416970372200012,-0.812479555606842
1783170031213811500,3.6738115234375,0.3051089644432068,0.324077308177948,-0.5398059487342834
1783170031223881500,3.683881591796875,0.3189714848995209,0.21499261260032654,-0.12167301028966904
1783170031233951200,3.693951171875,0.15745848417282104,0.13248229026794434,0.17847110331058502
1783170031244020500,3.7040205078125,-0.05665801092982292,0.10837416350841522,0.35853147506713867
1783170031254090200,3.71409033203125,-0.30461347103118896,-0.02335590124130249,0.41626906394958496
1783170031264160500,3.724160400390625,-0.482164591550827,-0.3519851863384247,0.34042245149612427
1783170031274230500,3.73423046875,-0.5284705758094788,-0.6668978929519653,0.3004281520843506
1783170031284299300,3.74429931640625,-0.5056749582290649,-0.8173139691352844,0.3363678455352783
1783170031294369500,3.75436962890625,-0.43361034989356995,-0.8362756967544556,0.3335004150867462
1783170031304439300,3.764439208984375,-0.29346317052841187,-0.8404655456542969,0.21678918600082397
1783170031314509300,3.77450927734375,-0.12933042645454407,-0.7648868560791016,0.05689671263098717
1783170031324578300,3.784578369140625,-0.01864704303443432,-0.5112639665603638,-0.08592539280653
1783170031334648300,3.7946484375,0.010812046006321907,-0.17493277788162231,-0.168869286775589
1783170031344718300,3.80471826171875,-0.024002965539693832,0.06271613389253616,-0.27833741903305054
1783170031354787300,3.814787353515625,-0.026656806468963623,0.17907576262950897,-0.4829864203929901
1783170031364857300,3.824857421875,0.03588428720831871,0.1085018590092659,-0.6945887207984924
1783170031374927400,3.83492724609375,0.15311983227729797,-0.017472311854362488,-0.9354958534240723
1783170031384997400,3.844997314453125,0.23956075310707092,-0.1458214968442917,-1.1264395713806152
1783170031395066600,3.855066650390625,0.23138777911663055,-0.10223913937807083,-1.1748100519180298
1783170031405136400,3.865136474609375,0.20532597601413727,0.02038145810365677,-1.0556813478469849
1783170031415206400,3.875206298828125,0.1374228298664093,0.16440120339393616,-0.7632916569709778
1783170031425276200,3.885276123046875,0.009650768712162971,0.2532247006893158,-0.3971499800682068
1783170031435345400,3.895345458984375,-0.2119884192943573,0.31053248047828674,-0.09911218285560608
1783170031445415400,3.90541552734375,-0.4463612139225006,0.30037128925323486,0.09339591860771179
1783170031455485400,3.9154853515625,-0.6178227066993713,0.21471205353736877,0.23760849237442017
1783170031465554400,3.925554443359375,-0.7527961730957031,0.06408020108938217,0.3833008110523224
1783170031475624400,3.93562451171875,-0.7362361550331116,-0.09339331090450287,0.4858008325099945
1783170031485694500,3.945694580078125,-0.6797546744346619,-0.11223264783620834,0.4810834527015686
1783170031495764500,3.955764404296875,-0.6726943850517273,-0.0015625907108187675,0.414480984210968
1783170031505833500,3.96583349609375,-0.5900793075561523,0.13656079769134521,0.2839928865432739
1783170031515903500,3.975903564453125,-0.48984965682029724,0.10965461283922195,0.1781093180179596
1783170031525973200,3.98597314453125,-0.3268909156322479,0.03809241205453873,0.12074035406112671
1783170031536042500,3.99604248046875,-0.15627017617225647,0.042170509696006775,0.141487717628479
1783170031546112300,4.0061123046875,-0.03840652480721474,0.10135872662067413,0.14053229987621307
1783170031556182300,4.016182373046875,0.06639978289604187,0.15069910883903503,0.12321403622627258
1783170031566252500,4.02625244140625,0.13411177694797516,0.09791819751262665,0.1043936163187027
1783170031576321300,4.0363212890625,0.14143067598342896,-0.030623536556959152,0.09994134306907654
1783170031586391600,4.0463916015625,0.12901733815670013,-0.14306499063968658,0.12296724319458008
1783170031596461300,4.05646142578125,0.08287674188613892,-0.19471512734889984,0.15929940342903137
1783170031606531300,4.06653125,0.0331265814602375,-0.21860262751579285,0.20704561471939087
1783170031616600300,4.076600341796875,-0.020702028647065163,-0.2302401214838028,0.2963414192199707
1783170031626670300,4.08667041015625,-0.10181485861539841,-0.24014359712600708,0.4111512005329132
1783170031636740400,4.096740234375,-0.18454809486865997,-0.22597292065620422,0.5260202884674072
1783170031646809300,4.106809326171875,-0.2593460977077484,-0.15613339841365814,0.589934766292572
1783170031656879400,4.11687939453125,-0.3203125,-0.07351920008659363,0.5614578723907471
1783170031666949400,4.126949462890625,-0.35598671436309814,-0.06889315694570541,0.45611152052879333
1783170031677019400,4.137019287109375,-0.3404170870780945,-0.10116934031248093,0.3510061502456665
1783170031687088400,4.14708837890625,-0.2646320164203644,-0.12576057016849518,0.31989720463752747
1783170031697158400,4.157158447265625,-0.18281356990337372,-0.06867597997188568,0.4020485281944275
1783170031707228400,4.167228515625,-0.11030107736587524,0.03677134960889816,0.553221583366394
1783170031717298200,4.177298095703125,-0.05840645357966423,0.06790263205766678,0.6956315040588379
1783170031727367400,4.187367431640625,-0.0761052668094635,-0.027125341817736626,0.7550983428955078
1783170031737437400,4.1974375,-0.1462358832359314,-0.09732093662023544,0.7226344347000122
1783170031747507500,4.207507568359375,-0.25768229365348816,-0.08498171716928482,0.6362461447715759
1783170031757576400,4.217576416015625,-0.351164311170578,0.0757826641201973,0.4679327607154846
1783170031767646200,4.227646240234375,-0.3838811218738556,0.29093971848487854,0.15704530477523804
1783170031777716500,4.237716552734375,-0.3550417721271515,0.5061314105987549,-0.2902733087539673
1783170031787786500,4.247786376953125,-0.2998005151748657,0.6957536935806274,-0.6474351286888123
1783170031797855500,4.25785546875,-0.28393474221229553,0.5686652064323425,-0.626241147518158
1783170031807925500,4.267925537109375,-0.31181371212005615,0.1555604487657547,-0.1794959008693695
1783170031817995300,4.277995361328125,-0.28354984521865845,-0.25566092133522034,0.34679239988327026
1783170031828065300,4.288065185546875,-0.2465762346982956,-0.3900412321090698,0.6885303258895874
1783170031838134300,4.29813427734375,-0.2990354597568512,-0.26148325204849243,0.7332591414451599
1783170031848204300,4.308204345703125,-0.4127418100833893,-0.1748250424861908,0.6576833128929138
1783170031858274600,4.318274658203125,-0.5847072005271912,-0.22093342244625092,0.5320199131965637
1783170031868343300,4.32834326171875,-0.7210309505462646,-0.3446308672428131,0.3455672264099121
1783170031878413300,4.338413330078125,-0.7501035928726196,-0.49792909622192383,0.13658444583415985
1783170031888483300,4.3484833984375,-0.6786816120147705,-0.5486606955528259,-0.03420008718967438
1783170031898553300,4.35855322265625,-0.5614972114562988,-0.46893632411956787,-0.16558606922626495
1783170031908622300,4.368622314453125,-0.44594916701316833,-0.2634083330631256,-0.2663317918777466
1783170031918692400,4.3786923828125,-0.33325937390327454,0.007580306380987167,-0.40438127517700195
1783170031928762400,4.388762451171875,-0.18453970551490784,0.3195320665836334,-0.6292779445648193
1783170031938831400,4.398831298828125,0.037130363285541534,0.456338107585907,-0.7565706372261047
1783170031948901400,4.4089013671875,0.22272427380084991,0.4481039047241211,-0.7344012260437012
1783170031958971100,4.41897119140625,0.29765069484710693,0.3127780258655548,-0.4574178159236908
1783170031969041400,4.42904150390625,0.300771564245224,0.00870961882174015,-0.07755271345376968
1783170031979110400,4.4391103515625,0.235731303691864,-0.3996477723121643,0.26648402214050293
1783170031989180400,4.449180419921875,0.05692923814058304,-0.7362680435180664,0.4459097981452942
1783170031999250400,4.45925048828125,-0.13921470940113068,-0.9117535352706909,0.41642674803733826
1783170032009320400,4.469320556640625,-0.28629153966903687,-0.861046552658081,0.2630505859851837
1783170032019389400,4.479389404296875,-0.37135767936706543,-0.7135132551193237,0.131352499127388
1783170032029459500,4.48945947265625,-0.40195178985595703,-0.5174251198768616,0.06659018993377686
1783170032039529200,4.499529296875,-0.36450615525245667,-0.3390410244464874,0.08098537474870682
1783170032049599000,4.509598876953125,-0.3172345459461212,-0.17667901515960693,0.12627527117729187
1783170032059668700,4.519668701171875,-0.29667147994041443,-0.045196354389190674,0.2050635665655136
1783170032069738800,4.52973876953125,-0.31069642305374146,-0.06724054366350174,0.23234158754348755
1783170032079809000,4.53980908203125,-0.32605060935020447,-0.18938322365283966,0.17758220434188843
1783170032089877800,4.549877685546875,-0.3545153737068176,-0.2784157693386078,0.041041795164346695
1783170032099948000,4.559947998046875,-0.37479665875434875,-0.29737719893455505,-0.16240587830543518
1783170032110017800,4.570017822265625,-0.34237611293792725,-0.23379090428352356,-0.3402545154094696
1783170032120086800,4.580086669921875,-0.2827521860599518,-0.15400393307209015,-0.4643394351005554
1783170032130156800,4.59015673828125,-0.21299734711647034,-0.060004591941833496,-0.5067700743675232
1783170032140226800,4.600226806640625,-0.12301205843687057,0.02879052236676216,-0.485339879989624
1783170032150296800,4.610296875,0.01982727460563183,0.1328333020210266,-0.425320029258728
1783170032160365800,4.62036572265625,0.16376154124736786,0.2638317942619324,-0.28731608390808105
1783170032170435800,4.630435791015625,0.2539215385913849,0.3883475065231323,-0.15728528797626495
1783170032180505900,4.640505859375,0.3271443545818329,0.40107396245002747,-0.13218526542186737
1783170032190575900,4.650575927734375,0.3573719263076782,0.3209540545940399,-0.20031768083572388
1783170032200644600,4.66064453125,0.3452146053314209,0.20965339243412018,-0.2903628945350647
1783170032210715000,4.67071484375,0.3109695017337799,0.0779869556427002,-0.3644323945045471
1783170032220785000,4.680784912109375,0.2604408264160156,-0.0417889729142189,-0.3859259784221649
1783170032230854000,4.69085400390625,0.2221536785364151,-0.12870869040489197,-0.3149046301841736
1783170032240924000,4.700923828125,0.22117656469345093,-0.18716534972190857,-0.1760985553264618
1783170032250993700,4.71099365234375,0.19611619412899017,-0.15944541990756989,-0.012886902317404747
1783170032261064000,4.72106396484375,0.1336008906364441,-0.08015593886375427,0.09033162891864777
1783170032271133000,4.7311328125,0.0671161413192749,-0.09903215616941452,0.06709527969360352
1783170032281202700,4.74120263671875,0.0225721076130867,-0.13371768593788147,0.014304505661129951
1783170032291273000,4.75127294921875,-0.029241865500807762,-0.1013437807559967,0.07724763453006744
1783170032301341700,4.761341796875,-0.08617065846920013,-0.059366773813962936,0.253635972738266
1783170032311412000,4.771411865234375,-0.1480039805173874,-0.03664640709757805,0.39322370290756226
1783170032321482000,4.78148193359375,-0.21876710653305054,-0.02661534771323204,0.37889111042022705
1783170032331551700,4.7915517578125,-0.2909590005874634,0.10426890105009079,0.2063869833946228
1783170032341621000,4.80162109375,-0.32584348320961,0.3851812481880188,-0.08212976157665253
1783170032351690800,4.811690673828125,-0.2974856495857239,0.7242282032966614,-0.41789737343788147
1783170032361760800,4.8217607421875,-0.1796162724494934,1.0533770322799683,-0.6644693613052368
1783170032371829800,4.831829833984375,-0.0365910567343235,1.1928420066833496,-0.6778927445411682
1783170032381899800,4.841899658203125,0.0462644137442112,1.1111217737197876,-0.3778914511203766
1783170032391969800,4.8519697265625,0.10925474017858505,0.7552717328071594,0.06535591185092926
1783170032402039800,4.862039794921875,0.13051342964172363,0.22815169394016266,0.4090871810913086
1783170032412108800,4.87210888671875,0.0832395926117897,-0.16005316376686096,0.4175802171230316
1783170032422178800,4.8821787109375,-0.008836542256176472,-0.28700873255729675,0.22628001868724823
1783170032432248800,4.892248779296875,-0.07166321575641632,-0.1740700602531433,-0.035357967019081116
1783170032442318800,4.90231884765625,-0.04728783294558525,0.013149108737707138,-0.16510584950447083
1783170032452387800,4.912387939453125,0.009402304887771606,0.20279958844184875,-0.20645512640476227
1783170032462457900,4.922457763671875,0.13745933771133423,0.3119737505912781,-0.3092494308948517
1783170032472527600,4.932527587890625,0.22267946600914001,0.29251763224601746,-0.5575908422470093
1783170032482596900,4.942596923828125,0.2638647258281708,0.13169705867767334,-0.8127312660217285
1783170032492666600,4.95266650390625,0.27090907096862793,-0.07643163949251175,-0.9340897798538208
1783170032502737000,4.96273681640625,0.2754034101963043,-0.2485397607088089,-0.829910159111023
1783170032512807000,4.972806884765625,0.2646673321723938,-0.13660377264022827,-0.4808140695095062
1783170032522876000,4.9828759765625,0.13487738370895386,0.05707355588674545,-0.10149550437927246
1783170032532946000,4.99294580078125,0.022128142416477203,0.22396507859230042,0.27537330985069275
1783170032543016000,5.003015869140625,-0.03501184657216072,0.25978323817253113,0.5671178102493286
1783170032553085000,5.0130849609375,0.019320422783493996,0.15597082674503326,0.7343288064002991
1783170032563155000,5.023155029296875,0.07471870630979538,0.20763881504535675,0.7086521983146667
1783170032573224700,5.033224609375,0.10653048008680344,0.3781737983226776,0.47766122221946716
1783170032583295000,5.043294921875,0.1823006123304367,0.49424901604652405,0.15173958241939545
1783170032593363700,5.05336376953125,0.26906949281692505,0.44245705008506775,-0.1041935533285141
1783170032603433700,5.063433837890625,0.30464160442352295,0.18067020177841187,-0.13989055156707764
1783170032613504000,5.07350390625,0.2987997829914093,-0.3205537497997284,0.004717187024652958
1783170032623572700,5.08357275390625,0.19733066856861115,-0.9119169116020203,0.19852633774280548
1783170032633643000,5.09364306640625,0.08082111924886703,-1.2986904382705688,0.24697688221931458
1783170032643712800,5.103712646484375,-0.02769257314503193,-1.394608974456787,0.055389873683452606
1783170032653782800,5.11378271484375,-0.17773348093032837,-1.2485703229904175,-0.3019236922264099
1783170032663851800,5.123851806640625,-0.32382357120513916,-0.8198757171630859,-0.6528965830802917
1783170032673921800,5.133921875,-0.4776771664619446,-0.295288622379303,-0.7848590016365051
1783170032683991800,5.14399169921875,-0.5996198654174805,0.016373399645090103,-0.6921365261077881
1783170032694061800,5.154061767578125,-0.6023035645484924,0.08549348264932632,-0.5115228295326233
1783170032704130800,5.164130859375,-0.5353556871414185,0.06984581053256989,-0.3488902747631073
1783170032714200800,5.174200927734375,-0.42889484763145447,0.047421593219041824,-0.22770264744758606
1783170032724270800,5.184270751953125,-0.29285046458244324,0.06869332492351532,-0.1324554979801178
1783170032734339800,5.19433984375,-0.17442187666893005,0.11459703743457794,-0.04732707887887955
1783170032744409900,5.204409912109375,-0.08421448618173599,0.19505111873149872,0.018698543310165405
1783170032754479900,5.21447998046875,-0.019127899780869484,0.19620028138160706,0.027411339804530144
1783170032764549600,5.224549560546875,0.011081933975219727,0.13604426383972168,0.008622474037110806
1783170032774619000,5.234618896484375,-0.014452414587140083,-0.015451909974217415,0.009437653236091137
1783170032784689000,5.24468896484375,-0.0678863450884819,-0.15062598884105682,0.009509026072919369
1783170032794759000,5.254759033203125,-0.1222471371293068,-0.22610288858413696,0.012257701717317104
1783170032804828000,5.264827880859375,-0.12367060035467148,-0.2413148581981659,0.08234837651252747
1783170032814897700,5.274897705078125,-0.10296680778265,-0.24150875210762024,0.23054002225399017
1783170032824968000,5.284968017578125,-0.10786090046167374,-0.18742448091506958,0.3700513243675232
1783170032835038000,5.295037841796875,-0.10377895832061768,-0.12565924227237701,0.47650954127311707
1783170032845107000,5.30510693359375,-0.10763255506753922,-0.10009368509054184,0.5612140893936157
1783170032855177000,5.315177001953125,-0.12519416213035583,-0.09246067702770233,0.6340203881263733
1783170032865246700,5.325246826171875,-0.149652898311615,-0.07924127578735352,0.6749553084373474
1783170032875313700,5.335313720703125,-0.18657369911670685,-0.1433604657649994,0.6600077152252197
1783170032885384000,5.345384033203125,-0.19315624237060547,-0.21817319095134735,0.6164913773536682
1783170032895454000,5.355453857421875,-0.19316326081752777,-0.2622755169868469,0.5224089622497559
1783170032905523000,5.36552294921875,-0.19671617448329926,-0.2783418595790863,0.4558701515197754
1783170032915593000,5.375593017578125,-0.1945035457611084,-0.21886734664440155,0.42526373267173767
1783170032925662700,5.385662841796875,-0.18971598148345947,-0.16549253463745117,0.4056932330131531
1783170032935732700,5.395732666015625,-0.1954328864812851,-0.056577108800411224,0.3982301652431488
1783170032945801700,5.4058017578125,-0.18476825952529907,0.10862649232149124,0.4682968556880951
1783170032955871700,5.415871826171875,-0.14657659828662872,0.2549356520175934,0.5749605298042297
1783170032965942000,5.42594189453125,-0.09497599303722382,0.40778884291648865,0.6215522289276123
1783170032976010800,5.4360107421875,0.006316818296909332,0.49924537539482117,0.4953542649745941
1783170032986080800,5.446080810546875,0.15253527462482452,0.3981182277202606,0.1713929921388626
1783170032996150800,5.45615087890625,0.3165755867958069,0.08866024762392044,-0.3017789125442505
1783170033006220800,5.466220703125,0.47303470969200134,-0.4149978458881378,-0.8164459466934204
1783170033016290000,5.4762900390625,0.5461236238479614,-0.8509470820426941,-1.2146260738372803
1783170033026359800,5.48635986328125,0.4969158470630646,-1.0124226808547974,-1.3252897262573242
1783170033036429800,5.496429931640625,0.39991915225982666,-0.8686175346374512,-1.1482189893722534
1783170033046499800,5.506499755859375,0.36884936690330505,-0.4669068455696106,-0.8690078854560852
1783170033056567800,5.51656787109375,0.35552582144737244,0.02766573056578636,-0.739086925983429
1783170033066638000,5.52663818359375,0.23991161584854126,0.48524633049964905,-0.7463104724884033
1783170033076708000,5.5367080078125,0.07735031098127365,0.7385650277137756,-0.7145856618881226
1783170033086777000,5.546777099609375,-0.023727577179670334,0.7582058310508728,-0.6079428195953369
1783170033096847000,5.55684716796875,-0.07406947016716003,0.5636504292488098,-0.37674713134765625
1783170033106916900,5.566916748046875,-0.15745678544044495,0.2541631758213043,-0.17376817762851715
1783170033116987000,5.57698681640625,-0.23277878761291504,-0.059499263763427734,-0.08238675445318222
1783170033127056100,5.58705615234375,-0.28741753101348877,-0.18577836453914642,-0.09035786241292953
1783170033137126000,5.5971259765625,-0.2940366864204407,-0.0820077657699585,-0.25097882747650146
1783170033147196200,5.607196044921875,-0.1950554996728897,0.14209911227226257,-0.5135002136230469
1783170033157265000,5.617264892578125,-0.03931398689746857,0.24993368983268738,-0.5757312774658203
1783170033167335000,5.6273349609375,0.05075491964817047,0.2590630054473877,-0.37121856212615967
1783170033177405200,5.6374052734375,0.023787889629602432,0.28768453001976013,0.08535657823085785
1783170033187475000,5.647474853515625,-0.03353185951709747,0.20532894134521484,0.6395326852798462
1783170033197544200,5.657544189453125,-0.10419915616512299,0.052237384021282196,1.0526468753814697
1783170033207614000,5.667614013671875,-0.2615925073623657,-0.03469964116811752,1.2503793239593506
1783170033217685000,5.67768505859375,-0.4173339605331421,-0.030422069132328033,1.1273603439331055
1783170033227755000,5.687755126953125,-0.5176019668579102,-0.0018727164715528488,0.733062744140625
1783170033237825000,5.697824951171875,-0.5622771978378296,0.0624074712395668,0.331425279378891
1783170033247894000,5.70789404296875,-0.581457793712616,0.15732279419898987,0.08666399121284485
1783170033257963800,5.7179638671875,-0.560520350933075,0.20638807117938995,-0.032328490167856216
1783170033268034000,5.728033935546875,-0.49452245235443115,0.16176921129226685,-0.06735384464263916
1783170033278103000,5.73810302734375,-0.40237414836883545,0.12023653835058212,-0.051557138562202454
1783170033288173000,5.748173095703125,-0.31801319122314453,0.07204531133174896,-0.058713581413030624
1783170033298243000,5.7582431640625,-0.22976802289485931,0.05172978714108467,-0.16646632552146912
1783170033308312800,5.768312744140625,-0.11998187750577927,0.09968399256467819,-0.31136971712112427
1783170033318382000,5.778382080078125,-0.03738165646791458,0.20583853125572205,-0.36985668540000916
1783170033328452000,5.7884521484375,-0.00885866954922676,0.3516354262828827,-0.34925103187561035
1783170033338521900,5.79852197265625,-0.001687871292233467,0.4540395438671112,-0.2747635245323181
1783170033348591000,5.808591064453125,-0.013549325056374073,0.4432457685470581,-0.18615776300430298
1783170033358660900,5.818660888671875,-0.028248857706785202,0.2593829929828644,-0.12146543711423874
1783170033368731100,5.828731201171875,-0.012561239302158356,0.04176304489374161,-0.0890989750623703
1783170033378801200,5.83880126953125,-0.004564495757222176,-0.12902747094631195,-0.11534808576107025
1783170033388870000,5.848869873046875,-0.007701433263719082,-0.21462200582027435,-0.12991638481616974
1783170033398940200,5.858940185546875,-0.006390944588929415,-0.210126593708992,-0.12719692289829254
1783170033409010000,5.869010009765625,0.002220120746642351,-0.16565313935279846,-0.1303841918706894
1783170033419079200,5.8790791015625,0.004975916817784309,-0.11892011761665344,-0.10883521288633347
1783170033429149000,5.88914892578125,-0.011083211749792099,-0.060915131121873856,-0.036304015666246414
1783170033439219000,5.899218994140625,-0.033008426427841187,-0.008528093807399273,0.06151591241359711
1783170033449289000,5.9092890625,-0.08162975311279297,-0.010432788170874119,0.13575898110866547
1783170033459358000,5.91935791015625,-0.13378921151161194,-0.05306067317724228,0.2115543633699417
1783170033469428000,5.929427978515625,-0.1633942425251007,-0.10177254676818848,0.26486098766326904
1783170033479498000,5.939498046875,-0.16500943899154663,-0.12609320878982544,0.2819378972053528
1783170033489567000,5.94956689453125,-0.159379780292511,-0.11486105620861053,0.26832327246665955
1783170033499637000,5.959636962890625,-0.1545623540878296,-0.06893204152584076,0.2760584056377411
1783170033509707000,5.96970703125,-0.17426787316799164,0.03065047226846218,0.302925169467926
1783170033519777000,5.979777099609375,-0.2005392462015152,0.1487942934036255,0.3919728696346283
1783170033529846000,5.989845947265625,-0.2372157722711563,0.254186749458313,0.430470734834671
1783170033539916000,5.999916015625,-0.24223875999450684,0.30618152022361755,0.2909328043460846
1783170033549986000,6.009986083984375,-0.19742494821548462,0.2145107090473175,0.07597684115171432
1783170033560056000,6.02005615234375,-0.14527684450149536,0.06315368413925171,-0.12863612174987793
1783170033570125000,6.030125,-0.08681327104568481,-0.2262038290500641,-0.3051038384437561
1783170033580195000,6.040195068359375,-0.014636971056461334,-0.5934540033340454,-0.3469124734401703
1783170033590265000,6.05026513671875,-0.022355876863002777,-0.8390608429908752,-0.2474101185798645
1783170033600333800,6.060333740234375,-0.029759706929326057,-0.9491636157035828,-0.09936198592185974
1783170033610404000,6.070404052734375,0.00353300292044878,-0.7278717160224915,-0.21805214881896973
1783170033620474000,6.08047412109375,0.07184212654829025,-0.350768119096756,-0.4705706238746643
1783170033630544000,6.0905439453125,0.13629622757434845,0.1852031648159027,-0.711471676826477
1783170033640613000,6.100613037109375,0.2497197538614273,0.5177250504493713,-0.8092514872550964
1783170033650683000,6.110682861328125,0.29313382506370544,0.5686907768249512,-0.655963659286499
1783170033660753000,6.1207529296875,0.21107874810695648,0.49503517150878906,-0.3969216048717499
1783170033670822000,6.13082177734375,0.1528410017490387,0.4681718647480011,-0.11448803544044495
1783170033680892000,6.140891845703125,0.10510053485631943,0.46056070923805237,0.12719173729419708
1783170033690962200,6.150962158203125,0.1428186297416687,0.5434185862541199,0.29531845450401306
1783170033701032000,6.161031982421875,0.24157588183879852,0.6588121056556702,0.3223905861377716
1783170033711101000,6.171100830078125,0.3468594253063202,0.6483845114707947,0.181046262383461
1783170033721171000,6.1811708984375,0.44957494735717773,0.5899453163146973,-0.05785574018955231
1783170033731241000,6.191240966796875,0.5050557851791382,0.5234270095825195,-0.2589334547519684
1783170033741310200,6.201310302734375,0.4804433584213257,0.4265751838684082,-0.4063391387462616
1783170033751380000,6.2113798828125,0.4191807806491852,0.29038217663764954,-0.5431846380233765
1783170033761450000,6.221449951171875,0.38578441739082336,0.19661280512809753,-0.6550191640853882
1783170033771520000,6.23152001953125,0.29957178235054016,0.13297177851200104,-0.7032088041305542
1783170033781589000,6.241589111328125,0.13547208905220032,0.10775244981050491,-0.6354984045028687
1783170033791659000,6.251658935546875,-0.019325479865074158,0.03983943909406662,-0.446968138217926
1783170033801729000,6.26172900390625,-0.16388143599033356,-0.06673680245876312,-0.16838397085666656
1783170033811798000,6.271798095703125,-0.23820839822292328,-0.124185711145401,0.040360718965530396
1783170033821868000,6.281867919921875,-0.27401936054229736,-0.17270144820213318,0.08141592144966125
1783170033831938000,6.29193798828125,-0.31866565346717834,-0.1873544305562973,0.02567010000348091
1783170033842008000,6.302008056640625,-0.409395307302475,-0.12099912017583847,-0.05738776922225952
1783170033852077000,6.3120771484375,-0.48724907636642456,-0.04046725109219551,-0.15304452180862427
1783170033862147000,6.32214697265625,-0.5418938994407654,-0.018351299688220024,-0.22013215720653534
1783170033872216800,6.332216796875,-0.5752508044242859,-0.007710373029112816,-0.23949041962623596
1783170033882286000,6.3422861328125,-0.5599825978279114,0.07271896302700043,-0.2485918551683426
1783170033892355800,6.35235595703125,-0.5108587145805359,0.1911630630493164,-0.1917908787727356
1783170033902426000,6.362426025390625,-0.4349497854709625,0.27778860926628113,-0.10976571589708328
1783170033912496000,6.37249609375,-0.31205421686172485,0.30123695731163025,-0.042992543429136276
1783170033922564900,6.38256494140625,-0.19958502054214478,0.27139490842819214,-0.02141398936510086
1783170033932635100,6.39263525390625,-0.12226200848817825,0.191630557179451,-0.013952077366411686
1783170033942705000,6.402704833984375,-0.07286440581083298,0.08834558725357056,0.04101531207561493
1783170033952774100,6.412774169921875,-0.05603162944316864,-0.06463970243930817,0.11490178853273392
1783170033962844000,6.422843994140625,-0.06279052048921585,-0.22395505011081696,0.15997402369976044
1783170033972914000,6.432913818359375,-0.07622456550598145,-0.31169554591178894,0.12522244453430176
1783170033982984200,6.442984130859375,-0.07434721291065216,-0.31080299615859985,0.03760698810219765
1783170033993053000,6.453052978515625,-0.06489059329032898,-0.23294229805469513,-0.03525816649198532
1783170034003123000,6.463123046875,-0.06746319681406021,-0.13608220219612122,0.03867615386843681
1783170034013193000,6.47319287109375,-0.0671292394399643,-0.08445734530687332,0.2212614119052887
1783170034023262000,6.483261962890625,-0.05282917991280556,-0.13124242424964905,0.3925973176956177
1783170034033332200,6.493332275390625,-0.07119087874889374,-0.20519307255744934,0.46457749605178833
1783170034043402000,6.503402099609375,-0.088099405169487,-0.2697559595108032,0.4458821415901184
1783170034053472300,6.51347216796875,-0.11085078865289688,-0.3417563736438751,0.3731144666671753
1783170034063541500,6.52354150390625,-0.11424034088850021,-0.38060083985328674,0.3100191056728363
1783170034073611300,6.533611328125,-0.12035895138978958,-0.39949944615364075,0.3036882281303406
1783170034083681300,6.543681396484375,-0.15145243704319,-0.3198931813240051,0.3172917366027832
1783170034093750300,6.553750244140625,-0.22486940026283264,-0.18323224782943726,0.33853256702423096
1783170034103820300,6.5638203125,-0.3109796643257141,-0.07933541387319565,0.36076417565345764
1783170034113890300,6.573890380859375,-0.38739243149757385,0.007809337228536606,0.35535928606987
1783170034123960300,6.583960205078125,-0.44500601291656494,0.17132489383220673,0.2922097444534302
1783170034134029300,6.594029296875,-0.480974406003952,0.39985156059265137,0.1834006905555725
1783170034144099300,6.604099365234375,-0.4297710359096527,0.5603994131088257,0.016616204753518105
1783170034154169300,6.61416943359375,-0.2988295257091522,0.5264379382133484,-0.12435875833034515
1783170034164238300,6.62423828125,-0.12431693822145462,0.214508056640625,-0.16948732733726501
1783170034174308400,6.634308349609375,-0.004736216738820076,-0.2035999745130539,-0.21884874999523163
1783170034184378400,6.64437841796875,0.0718909427523613,-0.42114773392677307,-0.30369192361831665
1783170034194448100,6.6544482421875,0.09443726390600204,-0.2931796610355377,-0.2874777913093567
1783170034204517400,6.664517333984375,0.08865007758140564,-0.07405810058116913,-0.18763940036296844
1783170034214587400,6.67458740234375,0.07427193224430084,0.07596148550510406,-0.1450439989566803
1783170034224657400,6.684657470703125,0.06725302338600159,0.09516727179288864,-0.11814159899950027
1783170034234726400,6.694726318359375,0.13821427524089813,0.06693749874830246,-0.1191868856549263
1783170034244796200,6.704796142578125,0.23833036422729492,-0.018283387646079063,-0.22580879926681519
1783170034254866400,6.714866455078125,0.28209754824638367,-0.1493774950504303,-0.35874447226524353
1783170034264936400,6.7249365234375,0.27933067083358765,-0.21275845170021057,-0.36832836270332336
1783170034275005400,6.73500537109375,0.25218480825424194,-0.14681565761566162,-0.2076110988855362
1783170034285075500,6.745075439453125,0.18644477427005768,-0.009304134175181389,0.01017000898718834
1783170034295145200,6.755145263671875,0.09895621240139008,0.0892924815416336,0.18759113550186157
1783170034305214500,6.76521435546875,0.028429094702005386,0.10145140439271927,0.28351569175720215
1783170034315284200,6.7752841796875,-0.03245369717478752,0.06250853836536407,0.2883458435535431
1783170034325354200,6.785354248046875,-0.06659772247076035,0.050617389380931854,0.20873001217842102
1783170034335423200,6.79542333984375,-0.013411464169621468,0.04894945025444031,0.0685470774769783
1783170034345493200,6.8054931640625,0.09079667180776596,0.0933600515127182,0.05149077624082565
1783170034355563500,6.8155634765625,0.16498993337154388,0.12334032356739044,0.1744595766067505
1783170034365633300,6.82563330078125,0.20931874215602875,0.06591751426458359,0.36961400508880615
1783170034375702300,6.835702392578125,0.2529969811439514,-0.07899493724107742,0.5269311666488647
1783170034385772300,6.845772216796875,0.2711333632469177,-0.2707458734512329,0.564989447593689
1783170034395842300,6.85584228515625,0.23853573203086853,-0.3783514201641083,0.46993720531463623
1783170034405912300,6.865912353515625,0.14785830676555634,-0.41516974568367004,0.2654995620250702
1783170034415981300,6.875981201171875,0.03365263715386391,-0.3783946931362152,0.045444440096616745
1783170034426051300,6.88605126953125,-0.0582084022462368,-0.36324676871299744,-0.10057416558265686
1783170034436121300,6.896121337890625,-0.09149712324142456,-0.3558242619037628,-0.07332470268011093
1783170034446190300,6.9061904296875,-0.10562923550605774,-0.2994779050350189,0.08126898109912872
1783170034456260400,6.91626025390625,-0.12684956192970276,-0.22915714979171753,0.18548992276191711
1783170034466330400,6.926330322265625,-0.1438901275396347,-0.12647975981235504,0.22569310665130615
1783170034476400400,6.936400390625,-0.171405628323555,-0.05090218037366867,0.22134843468666077
1783170034486469400,6.946469482421875,-0.18149606883525848,0.006486942991614342,0.15417622029781342
1783170034496539400,6.956539306640625,-0.14820308983325958,0.0603504404425621,0.04266247898340225
1783170034506609400,6.966609375,-0.08909563720226288,0.12463928014039993,-0.0622221939265728
1783170034516678400,6.976678466796875,-0.01506854873150587,0.19886770844459534,-0.17057636380195618
1783170034526748400,6.98674853515625,0.07908026874065399,0.23983830213546753,-0.2580299377441406
1783170034536818200,6.996818115234375,0.1510695070028305,0.21499846875667572,-0.26259058713912964
1783170034546888400,7.006888427734375,0.2125242054462433,0.1326395571231842,-0.20083780586719513
1783170034556957200,7.016957275390625,0.2717384994029999,0.060176536440849304,-0.18187315762043
1783170034567027500,7.02702734375,0.35193225741386414,0.01849380135536194,-0.2276802808046341
1783170034577097500,7.037097412109375,0.4350665807723999,0.008588972501456738,-0.28968772292137146
1783170034587166200,7.047166259765625,0.49065643548965454,0.01791030541062355,-0.3491658866405487
1783170034597236500,7.057236572265625,0.5077826380729675,0.041283804923295975,-0.3760417103767395
1783170034607306200,7.06730615234375,0.48667070269584656,0.0395897701382637,-0.3224954903125763
1783170034617375500,7.07737548828125,0.45613303780555725,-0.04146433621644974,-0.198594331741333
1783170034627445200,7.0874453125,0.42390313744544983,-0.1240517646074295,-0.08008798956871033
1783170034637515300,7.097515380859375,0.3845685124397278,-0.19503353536128998,0.013448089361190796
1783170034647585300,7.107585205078125,0.3370774984359741,-0.23592609167099,0.026669781655073166
1783170034657654300,7.117654296875,0.3053150475025177,-0.24312834441661835,-0.029360730201005936
1783170034667724300,7.127724365234375,0.2597104609012604,-0.21515130996704102,-0.05614670366048813
1783170034677794600,7.137794677734375,0.170319601893425,-0.14857228100299835,-0.01769544743001461
1783170034687863300,7.14786328125,0.08435308933258057,-0.1116398349404335,0.06886277347803116
1783170034697933300,7.157933349609375,0.014709826558828354,-0.05985226482152939,0.15502402186393738
1783170034708003300,7.16800341796875,-0.07838620990514755,0.005936067551374435,0.1803743690252304
1783170034718073300,7.1780732421875,-0.1473652869462967,0.027524184435606003,0.07089713960886002
1783170034728142300,7.188142333984375,-0.1258513182401657,0.07709559798240662,-0.1532011777162552
1783170034738212400,7.19821240234375,-0.06949936598539352,0.13191677629947662,-0.4197889268398285
1783170034748282400,7.208282470703125,0.01060381717979908,0.09239372611045837,-0.6053320169448853
1783170034758351400,7.218351318359375,0.07210127264261246,-0.06449441611766815,-0.6398463249206543
1783170034768421400,7.22842138671875,0.10596739500761032,-0.19617295265197754,-0.5287832021713257
1783170034778491100,7.2384912109375,0.12993638217449188,-0.24095986783504486,-0.35390883684158325
1783170034788561400,7.2485615234375,0.09465223550796509,-0.19753223657608032,-0.20802916586399078
1783170034798630100,7.258630126953125,-0.009835824370384216,-0.18695390224456787,-0.1528812199831009
1783170034808700400,7.268700439453125,-0.1256253719329834,-0.20707686245441437,-0.17729882895946503
1783170034818770400,7.2787705078125,-0.1510351300239563,-0.20825238525867462,-0.2700263559818268
1783170034828839400,7.28883935546875,-0.09343796968460083,-0.23875384032726288,-0.3371596336364746
1783170034838909400,7.298909423828125,-0.07801800221204758,-0.22810599207878113,-0.2849116027355194
1783170034848979200,7.308979248046875,-0.1061583086848259,-0.16558469831943512,-0.13609115779399872
1783170034859049200,7.31904931640625,-0.15420493483543396,-0.11881212890148163,0.056111838668584824
1783170034869118500,7.329118408203125,-0.17857837677001953,-0.11730383336544037,0.18113960325717926
1783170034879188200,7.339188232421875,-0.21917401254177094,-0.1311671882867813,0.22254616022109985
1783170034889258500,7.349258544921875,-0.2674003541469574,-0.05695514753460884,0.22068938612937927
1783170034899327200,7.3593271484375,-0.29306256771087646,0.09392037987709045,0.2401142120361328
1783170034909397200,7.369397216796875,-0.35074764490127563,0.21712979674339294,0.3384515047073364
1783170034919467500,7.379467529296875,-0.3562082052230835,0.2653244733810425,0.5425550937652588
1783170034929537300,7.389537353515625,-0.3535078167915344,0.23229171335697174,0.770643949508667
1783170034939606500,7.3996064453125,-0.36531680822372437,0.11980803310871124,0.9317393898963928
1783170034949676300,7.40967626953125,-0.3358955383300781,-0.042392317205667496,0.9804139733314514
1783170034959746300,7.419746337890625,-0.24558934569358826,-0.20635461807250977,0.9178587198257446
1783170034969815300,7.429815185546875,-0.12272435426712036,-0.39601564407348633,0.784343421459198
1783170034979885300,7.43988525390625,0.005557978991419077,-0.4991776943206787,0.6546735763549805
1783170034989955300,7.449955322265625,0.08871850371360779,-0.413044273853302,0.5179638862609863
1783170035000025300,7.460025390625,0.12318219989538193,-0.20855319499969482,0.41874197125434875
1783170035010094300,7.47009423828125,0.12671218812465668,0.05860486999154091,0.4267413318157196
1783170035020164400,7.480164306640625,0.12487299740314484,0.230463445186615,0.5161550641059875
1783170035030234400,7.490234375,0.12037034332752228,0.2764407992362976,0.5977621674537659
1783170035040303000,7.50030322265625,0.0765237882733345,0.22793397307395935,0.621506929397583
1783170035050373400,7.510373291015625,0.010636121965944767,0.12241260707378387,0.5398908853530884
1783170035060443000,7.52044287109375,-0.09925975650548935,0.00613420270383358,0.3669643700122833
1783170035070511900,7.530511962890625,-0.2550068497657776,-0.07731807976961136,0.18340560793876648
1783170035080582000,7.540581787109375,-0.42807504534721375,-0.11324198544025421,0.0516534298658371
1783170035090652000,7.55065185546875,-0.5887237191200256,-0.09187398850917816,-0.060469530522823334
1783170035100722000,7.560721923828125,-0.7325046062469482,-0.03981770947575569,-0.12381042540073395
1783170035110791000,7.570791015625,-0.8229528665542603,0.0225595161318779,-0.15481166541576385
1783170035120861000,7.58086083984375,-0.8340686559677124,0.13155950605869293,-0.14070916175842285
1783170035130931000,7.590930908203125,-0.7680208683013916,0.2672186493873596,-0.16000878810882568
1783170035140999700,7.600999755859375,-0.6680830717086792,0.39230573177337646,-0.2661632001399994
1783170035151070000,7.611070068359375,-0.5475929379463196,0.4409361183643341,-0.41506412625312805
1783170035161140000,7.621139892578125,-0.39365053176879883,0.43035006523132324,-0.5218150615692139
1783170035171209700,7.631209716796875,-0.24074207246303558,0.4015353322029114,-0.5929026007652283
1783170035181279000,7.641279052734375,-0.11416283249855042,0.37005117535591125,-0.6365214586257935
1783170035191348700,7.6513486328125,-0.030002878978848457,0.27278226613998413,-0.6278005838394165
1783170035201418800,7.661418701171875,0.0022695751395076513,0.11234119534492493,-0.562828540802002
1783170035211487700,7.67148779296875,-0.0029884502291679382,-0.049848102033138275,-0.4687787592411041
1783170035221557800,7.681557861328125,0.0006531564285978675,-0.210724338889122,-0.39415138959884644
1783170035231628000,7.6916279296875,-0.0021293272729963064,-0.32075244188308716,-0.33759161829948425
1783170035241697800,7.70169775390625,0.0062266066670417786,-0.325663298368454,-0.3048717677593231
1783170035251767000,7.71176708984375,0.005136960651725531,-0.27771642804145813,-0.2551780045032501
1783170035261836800,7.7218369140625,-0.01651453785598278,-0.16903069615364075,-0.15016718208789825
1783170035271906800,7.73190673828125,-0.06286857277154922,-0.08114783465862274,-0.027002327144145966
1783170035281976000,7.74197607421875,-0.1173430010676384,-0.09340876340866089,0.019033074378967285
1783170035292045800,7.7520458984375,-0.19888606667518616,-0.18020837008953094,-0.027888894081115723
1783170035302115800,7.76211572265625,-0.280597448348999,-0.25659608840942383,-0.12536725401878357
1783170035312185900,7.772185791015625,-0.3610634505748749,-0.25912702083587646,-0.17187821865081787
1783170035322254800,7.7822548828125,-0.4479757249355316,-0.11672434210777283,-0.18729472160339355
1783170035332324900,7.792324951171875,-0.44106584787368774,0.027874384075403214,-0.26401767134666443
1783170035342395000,7.802394775390625,-0.4045579135417938,0.07450926303863525,-0.31604304909706116
1783170035352464000,7.8124638671875,-0.4038238227367401,0.11960577219724655,-0.3059811294078827
1783170035362534000,7.822533935546875,-0.32367652654647827,0.06391534954309464,-0.23492266237735748
1783170035372604000,7.83260400390625,-0.18962368369102478,-0.018941055983304977,-0.10563524067401886
1783170035382674000,7.842673828125,-0.061367977410554886,-0.1414017230272293,0.10980863124132156
1783170035392743000,7.852742919921875,0.035019196569919586,-0.3365938365459442,0.3365400731563568
1783170035402813000,7.86281298828125,0.05355772748589516,-0.5040944814682007,0.43853381276130676
1783170035412882700,7.872882568359375,0.018278101459145546,-0.611494243144989,0.43682387471199036
1783170035422952000,7.882951904296875,-0.02279157005250454,-0.5741345882415771,0.4042701721191406
1783170035433021700,7.893021728515625,-0.03833898901939392,-0.3588714599609375,0.2860206961631775
1783170035443092000,7.903092041015625,0.002488605212420225,-0.0515325590968132,0.13591164350509644
1783170035453160700,7.91316064453125,0.14628395438194275,0.3178376257419586,-0.02746007964015007
1783170035463231000,7.92323095703125,0.26214316487312317,0.6294349431991577,-0.1230342760682106
1783170035473301000,7.933301025390625,0.2848441004753113,0.7203944325447083,-0.19898855686187744
1783170035483370800,7.943370849609375,0.23726166784763336,0.6386585235595703,-0.3476818799972534
1783170035493440000,7.95343994140625,0.17303600907325745,0.5217491984367371,-0.44725656509399414
1783170035503510000,7.963510009765625,0.13112211227416992,0.48047980666160583,-0.3030831515789032
1783170035513579800,7.973579833984375,0.10004029422998428,0.49504250288009644,0.0861722007393837
1783170035523649000,7.98364892578125,0.05927448347210884,0.5686216950416565,0.5609040856361389
1783170035533718800,7.99371875,0.06901957839727402,0.6661442518234253,0.8689177632331848
1783170035543788800,8.003788818359375,0.124320387840271,0.8038467168807983,1.0435534715652466
1783170035553859000,8.013859130859375,0.1956987977027893,1.0719678401947021,1.0436440706253052
1783170035563927800,8.023927734375,0.2764016091823578,1.2128524780273438,0.8973579406738281
1783170035573998000,8.033998046875,0.30750158429145813,1.0299229621887207,0.6794381737709045
1783170035584067800,8.04406787109375,0.3288215100765228,0.4813237488269806,0.3908174932003021
1783170035594136800,8.05413671875,0.35238412022590637,-0.06773562729358673,0.14619825780391693
1783170035604206800,8.064206787109375,0.3263882100582123,-0.3677346110343933,0.02471284195780754
1783170035614276900,8.07427685546875,0.2997886538505554,-0.5892909169197083,0.10687485337257385
1783170035624347000,8.084346923828125,0.30536186695098877,-0.7208604216575623,0.29815587401390076
1783170035634415900,8.094415771484375,0.2582002580165863,-0.7981393933296204,0.45851385593414307
1783170035644486000,8.10448583984375,0.13359706103801727,-0.6708033084869385,0.4986940324306488
1783170035654556000,8.114555908203124,0.012041643261909485,-0.3219316899776459,0.3925502598285675
1783170035664625000,8.124625,-0.12894397974014282,0.030575228855013847,0.26559603214263916
1783170035674694700,8.134694580078126,-0.27545562386512756,0.28540900349617004,0.20375797152519226
1783170035684765000,8.144764892578126,-0.4344732165336609,0.4187987446784973,0.09256939589977264
1783170035694835000,8.1548349609375,-0.536083996295929,0.4643216133117676,-0.09298199415206909
1783170035704904000,8.164904052734375,-0.5452580451965332,0.41202324628829956,-0.21477554738521576
1783170035714974000,8.174973876953125,-0.4391056001186371,0.31537312269210815,-0.3062441051006317
1783170035725043700,8.185043701171875,-0.2503303587436676,0.1567414253950119,-0.3984973132610321
1783170035735113000,8.195113037109374,-0.043027229607105255,0.05001337453722954,-0.4498462677001953
1783170035745183000,8.205182861328124,0.1303834468126297,0.05490000545978546,-0.4205048978328705
1783170035755252700,8.215252685546876,0.24303367733955383,0.07524323463439941,-0.38203075528144836
1783170035765322000,8.225322021484375,0.3074134588241577,0.06697731465101242,-0.31986644864082336
1783170035775391700,8.235391845703125,0.3112391531467438,-0.0037487875670194626,-0.22760190069675446
1783170035785462000,8.2454619140625,0.28381815552711487,-0.10362958163022995,-0.1660061776638031
1783170035795532000,8.255531982421875,0.23673105239868164,-0.1601559817790985,-0.1892823725938797
1783170035805600800,8.265600830078125,0.19028258323669434,-0.1364554464817047,-0.2682221829891205
1783170035815671000,8.275671142578124,0.13211427628993988,-0.08388836681842804,-0.2787019610404968
1783170035825740800,8.28574072265625,0.061478715389966965,-0.02972792461514473,-0.19478122889995575
1783170035835810000,8.29581005859375,-0.0024056441616266966,0.04039816930890083,-0.09956259280443192
1783170035845879800,8.3058798828125,-0.06619181483983994,0.06772459298372269,-0.08264725655317307
1783170035855949800,8.31594970703125,-0.12745049595832825,-0.001513865776360035,-0.11474987119436264
1783170035866019800,8.326019775390625,-0.18123967945575714,-0.09741003811359406,-0.14274901151657104
1783170035876088800,8.3360888671875,-0.2155742198228836,-0.14685001969337463,-0.136295348405838
1783170035886158800,8.346158935546875,-0.2306639552116394,-0.14016655087471008,-0.1740158349275589
1783170035896228900,8.356228759765624,-0.22654218971729279,-0.12932255864143372,-0.24947591125965118
1783170035906297900,8.3662978515625,-0.22772543132305145,-0.14408019185066223,-0.2866773307323456
1783170035916368000,8.376367919921876,-0.21373870968818665,-0.14347445964813232,-0.2430698573589325
1783170035926438000,8.38643798828125,-0.21968290209770203,-0.1916092336177826,-0.135216623544693
1783170035936508000,8.3965078125,-0.21880359947681427,-0.273468941450119,-0.01033113431185484
1783170035946577000,8.406576904296875,-0.23710164427757263,-0.3919130265712738,0.10824238508939743
1783170035956647000,8.41664697265625,-0.28503724932670593,-0.4451441764831543,0.21063323318958282
1783170035966716700,8.426716552734375,-0.29661163687705994,-0.4646877646446228,0.24055518209934235
1783170035976786000,8.436785888671874,-0.2784781754016876,-0.3595910370349884,0.14420637488365173
1783170035986856000,8.44685595703125,-0.2514875531196594,-0.1774342954158783,0.025905292481184006
1783170035996926000,8.456926025390626,-0.12688767910003662,-0.06931554526090622,-0.10463307052850723
1783170036006995000,8.466994873046875,0.03690631315112114,-0.1090640276670456,-0.20405739545822144
1783170036017064700,8.477064697265625,0.1762455403804779,-0.24254898726940155,-0.12392864376306534
1783170036027135000,8.487135009765625,0.26161372661590576,-0.36994075775146484,0.11528926342725754
1783170036037205000,8.497205078125,0.29020431637763977,-0.4051761031150818,0.2934955954551697
1783170036047274000,8.50727392578125,0.24582701921463013,-0.345164954662323,0.24936753511428833
1783170036057344500,8.517344482421874,0.15962614119052887,-0.18995527923107147,0.0625990554690361
1783170036067414500,8.52741455078125,0.11292175948619843,0.06979534029960632,-0.11855555325746536
1783170036077483500,8.5374833984375,0.049956418573856354,0.3307722210884094,-0.22059617936611176
1783170036087553500,8.547553466796876,-0.04351680725812912,0.40684273838996887,-0.37891897559165955
1783170036097623300,8.557623291015625,-0.13239027559757233,0.25445348024368286,-0.597061038017273
1783170036107693300,8.567693359375,-0.2468492090702057,-0.013344689272344112,-0.7109678983688354
1783170036117762600,8.577762451171875,-0.32895153760910034,-0.1425398290157318,-0.5734780430793762
1783170036127832300,8.587832275390625,-0.41534528136253357,-0.1306227147579193,-0.24171210825443268
1783170036137902600,8.597902587890625,-0.5545386075973511,-0.03734523057937622,0.14198149740695953
1783170036147971300,8.607971435546874,-0.6760266423225403,0.07684952020645142,0.5088364481925964
1783170036158041600,8.61804150390625,-0.7615951895713806,0.19217385351657867,0.8472755551338196
1783170036168111600,8.628111572265626,-0.8136200308799744,0.19306707382202148,1.1483467817306519
1783170036178180400,8.638180419921875,-0.800918459892273,0.08155571669340134,1.3582472801208496
1783170036188250600,8.648250732421875,-0.7244292497634888,-0.12366427481174469,1.432326078414917
1783170036198320400,8.6583203125,-0.6127972602844238,-0.3132830858230591,1.3676806688308716
1783170036208390400,8.668390380859375,-0.49406686425209045,-0.3340882360935211,1.0931322574615479
1783170036218459400,8.67845947265625,-0.34680187702178955,-0.19678069651126862,0.5878024697303772
1783170036228529400,8.688529296875,-0.17496885359287262,-0.10975179076194763,0.06400368362665176
1783170036238599400,8.698599365234376,0.003942478913813829,-0.12324429303407669,-0.1830427348613739
1783170036248668400,8.70866845703125,0.16467222571372986,-0.18237844109535217,-0.12682074308395386
1783170036258738400,8.718738525390625,0.24639956653118134,-0.2615843117237091,0.04481750354170799
1783170036268808400,8.728808349609375,0.25910070538520813,-0.29553377628326416,0.29821595549583435
1783170036278877400,8.73887744140625,0.253847599029541,-0.35493531823158264,0.5318794846534729
1783170036288947500,8.748947509765625,0.18160110712051392,-0.3235819339752197,0.5641207695007324
1783170036299017500,8.759017578125,0.052737392485141754,-0.2609851062297821,0.4114401340484619
1783170036309087500,8.76908740234375,-0.056540362536907196,-0.09344938397407532,0.1296904981136322
1783170036319156500,8.779156494140626,-0.1880107820034027,0.04008617252111435,-0.168313667178154
1783170036329226500,8.7892265625,-0.3133053183555603,0.1444661170244217,-0.29519543051719666
1783170036339296500,8.799296630859375,-0.40301984548568726,0.32344505190849304,-0.2804786264896393
1783170036349365500,8.809365478515625,-0.40647608041763306,0.4974360167980194,-0.19361910223960876
1783170036359435500,8.819435546875,-0.3393768072128296,0.6257522106170654,-0.13764169812202454
1783170036369505300,8.82950537109375,-0.21817022562026978,0.660759449005127,-0.19774605333805084
1783170036379575600,8.839575439453125,-0.05577836185693741,0.5998250842094421,-0.3530321419239044
1783170036389644300,8.849644287109374,0.07813390344381332,0.5013656616210938,-0.5329720377922058
1783170036399714600,8.859714599609376,0.1229657530784607,0.4045087397098541,-0.6639631986618042
1783170036409784600,8.86978466796875,0.0892711728811264,0.3016017973423004,-0.6904571056365967
1783170036419853600,8.879853515625,0.014923157170414925,0.22691838443279266,-0.6538641452789307
1783170036429923600,8.889923583984375,-0.0767042338848114,0.16609391570091248,-0.565672755241394
1783170036439993300,8.899993408203125,-0.1859617531299591,0.1367207020521164,-0.4472426772117615
1783170036450062600,8.9100625,-0.29756686091423035,0.1389756053686142,-0.3507579565048218
1783170036460132400,8.92013232421875,-0.33369413018226624,0.06787732988595963,-0.3467060625553131
1783170036470202400,8.930202392578124,-0.3504595160484314,0.044638048857450485,-0.32844263315200806
