time,seconds_elapsed,z,y,x
1783169878950866200,0.0728662109375,0.8818690517529845,-0.18686872552335262,-0.053082259433344006
1783169878960935400,0.082935302734375,0.47267041122466324,-0.17357377514243125,-0.15152948192097246
1783169878971005200,0.093005126953125,0.45276831766366954,-0.29254736056923863,-0.07128244444727898
1783169878981074400,0.103074462890625,0.7212003508910536,-0.2783908249229193,0.06915361572504043
1783169878991144200,0.113144287109375,0.41240532761514187,-0.3412432946771383,-0.07832746758796275
1783169879001213400,0.12321337890625,0.31857875066548585,-0.42480537498295307,-0.09470182541422545
1783169879011283500,0.133283447265625,0.4963181210547685,-0.39612288585603234,-0.16958156370110808
1783169879021352200,0.143352294921875,0.49723961981385945,-0.38125323350429535,-0.22295528036169707
1783169879031422500,0.15342236328125,0.5456500149786472,-0.40028701979815956,-0.16908566994294524
1783169879041491200,0.1634912109375,0.5832087612614035,-0.35365912413597106,-0.09639679276384412
1783169879051561500,0.1735615234375,0.5978399286821484,-0.31649814499914647,0.0034035978984087705
1783169879061630200,0.183630126953125,0.5093161343157291,-0.2634030991494655,0.11663739756420254
1783169879071700200,0.1937001953125,0.4715504672840237,-0.15810732594132423,0.17442695790566504
1783169879081769200,0.203769287109375,0.582805148896575,-0.07663023521602154,0.2687321852177381
1783169879091839200,0.213839111328125,0.7445359260320663,-0.024307342782616613,0.3405277668189257
1783169879101908200,0.223908203125,0.8290726965889335,0.05708557679057121,0.1882511197924614
1783169879111978200,0.233978271484375,0.8273656004101038,0.18375322385132312,0.13220029287710786
1783169879122047200,0.244047119140625,0.833683697515726,0.2633955003648996,0.06286204130016267
1783169879132117200,0.2541171875,0.7832797904461621,0.3168909437090158,-0.07546542922034859
1783169879142186500,0.2641865234375,0.6886959653884172,0.30757600287497044,-0.09463570137545466
1783169879152256300,0.27425634765625,0.5309092497035861,0.2293587907284498,-0.07565123411603271
1783169879162325500,0.284325439453125,0.2451011342614889,0.11894377481043338,-0.015482085161656141
1783169879172395300,0.294395263671875,-0.08068097191154956,0.00953062941133976,-0.06675926793441175
1783169879182464300,0.30446435546875,-0.15617869596630335,-0.03352934463620186,-0.13936974611505865
1783169879192534300,0.3145341796875,-0.1571013637691736,-0.030021044254302978,-0.2855626162484288
1783169879202603300,0.324603271484375,-0.11361556552499533,0.010457096606492996,-0.3839088625796139
1783169879212673300,0.33467333984375,-0.07607815429121255,0.013550386446714401,-0.5431834787346422
1783169879222742300,0.3447421875,-0.04419131616503,-0.08035013252198696,-0.6179512810796499
1783169879232812300,0.354812255859375,-0.1783417201966047,-0.19105740938484667,-0.6654710110150277
1783169879242881300,0.36488134765625,-0.32452684541493654,-0.3037169893592596,-0.6224980576638132
1783169879252951300,0.374951416015625,-0.42549744890034197,-0.410131537464261,-0.510994515856728
1783169879263020300,0.385020263671875,-0.4491413593381643,-0.3855295956492424,-0.5115242388192563
1783169879273090300,0.39509033203125,-0.46210459354668854,-0.2982651536941528,-0.6213745335265993
1783169879283159300,0.4051591796875,-0.3040782238870859,-0.18650866003930566,-0.7529531143087893
1783169879293229300,0.415229248046875,-0.07733487635403871,-0.04083469921350479,-0.8768107454501092
1783169879303298300,0.42529833984375,0.09939327116608619,0.029376316609978675,-0.9382093631342053
1783169879313368300,0.435368408203125,0.15962123763561248,0.09554419452250003,-1.055230791579932
1783169879323437300,0.445437255859375,-0.02814531351029873,0.13134089956879616,-1.1969548457361756
1783169879333507300,0.45550732421875,-0.35726211706399913,0.12960370051264763,-1.1829892295520752
1783169879343576300,0.465576416015625,-0.6706260556906462,0.06690963619053364,-1.0548515830039977
1783169879353646300,0.475646240234375,-0.7323556588947773,-0.06600947248041629,-1.0203860534962266
1783169879363715300,0.48571533203125,-0.5588707310795784,-0.15576280864179134,-1.0254937518987803
1783169879373785300,0.495785400390625,-0.1848088703840971,-0.09534136542677879,-1.0857798052310943
1783169879383854300,0.505854248046875,0.02238952646255493,0.006868132203817367,-1.2345508552893996
1783169879393924400,0.51592431640625,0.0497182628929615,0.0792939014673233,-1.3243249419778584
1783169879403993300,0.525993408203125,0.020640344707667825,0.12628127809166909,-1.3410976514719426
1783169879414063000,0.53606298828125,-0.08183774073123931,0.18448329169154165,-1.3092827095381914
1783169879424132400,0.54613232421875,-0.23950901334285735,0.2111813290029764,-1.2297042920410632
1783169879434202000,0.5562021484375,-0.2892033108383417,0.15907178705930708,-1.125383136018738
1783169879444271400,0.566271240234375,-0.13367255738675593,0.18261925138533114,-1.0052748474735766
1783169879454341400,0.57634130859375,0.01588058295994997,0.21335867304205894,-1.0624904073193668
1783169879464410400,0.586410400390625,0.1832102030158043,0.2337111407190561,-1.1009664145775138
1783169879474480400,0.59648046875,0.3468032668918371,0.3022784809887409,-1.088755679236725
1783169879484549400,0.60654931640625,0.4215951807647943,0.22782032911479472,-1.1002844967279584
1783169879494619400,0.616619384765625,0.17501403707861898,0.13170739479362964,-1.1293827270489185
1783169879504688400,0.6266884765625,0.04196194967776537,0.044401451784372326,-0.9888472981553524
1783169879514758400,0.63675830078125,0.4625675348833203,0.10113514639735222,-0.704980233778432
1783169879524827100,0.6468271484375,0.7771765051349997,0.21858897491097448,-0.44736609329394994
1783169879534897400,0.6568974609375,0.7143804417431354,0.26975626756846904,-0.11169672629162669
1783169879544966100,0.666966064453125,0.5103302797943353,0.30296529420912266,0.2211144748006016
1783169879555036400,0.677036376953125,0.24877047042399644,0.20930735182464122,0.5355988688245416
1783169879565105200,0.687105224609375,0.20569266845881937,0.024196283623576162,0.6053704703174531
1783169879575175200,0.697175048828125,0.29378683923631904,-0.19309914434552192,0.5668904444713145
1783169879585244200,0.707244140625,0.5914958203524351,-0.2570832484781742,0.4913781073693186
1783169879595314200,0.717314208984375,0.8117600349992513,-0.24147476045787333,0.22430801014490423
1783169879605383400,0.727383544921875,0.8869774808079004,-0.3141822692722082,0.04432100695930421
1783169879615453200,0.737453125,0.9320335971087217,-0.38316520460546016,-0.1352352035935968
1783169879625522400,0.7475224609375,0.9310197438910603,-0.43357612593770023,-0.17450002314187585
1783169879635592200,0.75759228515625,0.901155936025083,-0.5210252768099307,-0.07479220613390207
1783169879645661400,0.767661376953125,0.6924839594945311,-0.5364063858151435,0.042324060988426206
1783169879655731200,0.777731201171875,0.26054566389173267,-0.48691082576215267,0.028104177782312036
1783169879665800400,0.787800537109375,0.025809564039111135,-0.3720832540988922,-0.09553834930360317
1783169879675870200,0.7978701171875,0.15994915441572666,-0.21417700368762016,-0.24081403152681885
1783169879685939200,0.807939208984375,0.276231601062417,-0.1749520777583122,-0.2610522982396185
1783169879696009500,0.818009521484375,0.2654492180243134,-0.16821137132644653,-0.24726518042758105
1783169879706078200,0.828078125,0.15225392373800276,-0.11921382392346858,-0.23698351345323024
1783169879716148500,0.8381484375,0.02439677463173866,-0.024742227068543433,-0.19459347455650566
1783169879726217200,0.84821728515625,-0.07407967395037413,0.0907663125962019,-0.2320544595532119
1783169879736287200,0.858287353515625,-0.027538872049748895,0.15206336960196495,-0.2581958128299564
1783169879746356200,0.868356201171875,-0.004929857617616653,0.1909352443099022,-0.18231493467651305
1783169879756426200,0.87842626953125,-0.14011983382999896,0.18273264863193034,-0.032746231434494254
1783169879766495200,0.8884951171875,-0.2887503063738346,0.25355156722068783,0.05847220884338021
1783169879776565200,0.898565185546875,-0.3499018174290657,0.28792379242181776,0.2051500129494816
1783169879786634200,0.90863427734375,-0.3022425328925252,0.301713248321414,0.40000747220441696
1783169879796704300,0.918704345703125,-0.2724316242575645,0.36312136448621746,0.410262178106606
1783169879806773200,0.928773193359375,-0.27082097419053314,0.3573047871619463,0.41358861911557615
1783169879816843300,0.93884326171875,-0.2620385327979922,0.28735037644803524,0.3720697370301932
1783169879826912500,0.94891259765625,-0.23787702822685242,0.16624796229898928,0.2102484320670366
1783169879836982300,0.958982177734375,-0.16843085929602383,0.033327684584259984,-0.03990355584323406
1783169879847051300,0.96905126953125,-0.09343202467411756,-0.05510872375965118,-0.2632174403842538
1783169879857121300,0.979121337890625,-0.0800257228732109,-0.023469138392806052,-0.4255389499545097
1783169879867190300,0.989190185546875,-0.07321107442229986,-0.07552841145396232,-0.4516513693977147
1783169879877260300,0.99926025390625,0.09382599242776632,-0.04053074783086776,-0.4700841210585087
1783169879887329300,1.009329345703125,0.19900106186568736,-0.032821488627791405,-0.5212378966473042
1783169879897399300,1.0193994140625,0.18502602026611564,0.05586860221624374,-0.614761106736213
1783169879907468300,1.02946826171875,0.15618103405386208,0.05802782607674598,-0.6038762131717056
1783169879917538000,1.0395380859375,0.14209288746863602,-0.037927871856093406,-0.4406486946724355
1783169879927607300,1.049607177734375,0.080517890304327,-0.10694412493705749,-0.23811105617843567
1783169879937677000,1.059677001953125,0.006489069758355617,-0.1076233393728733,-0.08909669888354838
1783169879947746300,1.069746337890625,0.00931143370270729,-0.039219665232300756,0.05553893187046051
1783169879957816300,1.07981640625,0.0819254190146923,0.015417933884263038,0.08980046323873102
1783169879967885300,1.08988525390625,0.09663023619353771,0.08412380584180354,0.20515651575550437
1783169879977955300,1.099955322265625,0.22644670267403125,0.14308335981070994,0.24360709631145
1783169879988024300,1.1100244140625,0.34738369712829587,0.16405834330022334,0.24090024850554762
1783169879998094300,1.12009423828125,0.415795554575324,0.14423779054284094,0.22162541999742388
1783169880008163300,1.130163330078125,0.4161591271907091,0.12402911525070666,0.15061404757648705
1783169880018233300,1.1402333984375,0.3884007671713829,0.04868658175766468,0.17221929179355502
1783169880028302000,1.150302001953125,0.2437415363460779,-0.038244098198413845,0.19289141987897454
1783169880038372400,1.160372314453125,0.11851093635112046,-0.1356347973704338,0.31556174093186856
1783169880048441000,1.170441162109375,0.1265320379823446,-0.12550211041271686,0.3660844520755112
1783169880058511400,1.180511474609375,0.2047214853391051,-0.025931729114055634,0.3340886006169021
1783169880068580000,1.190580078125,0.21073387749642133,0.0010369418323040009,0.31239903911724687
1783169880078650000,1.200650146484375,0.16420768864303825,-0.04493804287910461,0.28083368803039194
1783169880088719400,1.21071923828125,0.049612756691873074,0.011332125875353812,0.16173070407025514
1783169880098789000,1.2207890625,0.040403906580805775,0.0006838906109333038,0.025235782739147544
1783169880108858400,1.2308583984375,0.034299159964919085,-0.025510873353481293,-0.05202829340100288
1783169880118928100,1.24092822265625,0.07640548654943705,-0.08550678463280201,-0.12883410437963902
1783169880128997400,1.250997314453125,0.08360153553336858,-0.10293138216435908,-0.23748985554017124
1783169880139067100,1.261067138671875,-0.02661854233443737,-0.1299661040842533,-0.2290111463345587
1783169880149136400,1.271136474609375,-0.14731880542337894,-0.04524725495874882,-0.13210370063483715
1783169880159206100,1.2812060546875,-0.12558365121632814,0.007712766334414482,-0.044657910763472315
1783169880169275400,1.291275390625,-0.11955489244610071,0.07621113302111625,-0.025489099913090466
1783169880179345400,1.301345458984375,-0.15434505079835653,0.11062427475452423,0.022157179011404512
1783169880189414100,1.3114140625,-0.18639350922703743,0.12641338003873825,0.0436269602805376
1783169880199484400,1.321484375,-0.16772563363611698,0.16258885526955127,0.017507380444183946
1783169880209553200,1.33155322265625,-0.1667705248683691,0.22089900541901586,-0.0903883461292833
1783169880219623400,1.34162353515625,-0.13937924459576606,0.21924539299309254,-0.11653766351677476
1783169880229692200,1.351692138671875,-0.08283727316260338,0.16853987262845038,-0.0724566027931869
1783169880239762400,1.361762451171875,-0.05337532409578562,0.14352701192498207,-0.0695064477507025
1783169880249831200,1.3718310546875,-0.00281944133490324,0.18703589878380297,-0.13313333594352006
1783169880259901200,1.381901123046875,0.052281683640182014,0.19532734178900718,-0.18452318531051276
1783169880269970200,1.39197021484375,0.08445464523136616,0.11439268737733363,-0.1793386953447014
1783169880280040200,1.402040283203125,0.08260171084105968,0.015524316868185997,-0.16526158161014318
1783169880290109200,1.412109130859375,0.043889995130896566,-0.06505553275644779,-0.13805084553621708
1783169880300179200,1.42217919921875,-0.03814034556299448,-0.008846154278516769,-0.11738843512721359
1783169880310248400,1.43224853515625,-0.10862842476218938,0.03158522483110428,-0.09647409578375518
1783169880320318200,1.442318115234375,-0.04466068724244833,0.06334989788234234,-0.03909391996078193
1783169880330387500,1.452387451171875,0.06837064865380525,0.04835398880243301,0.03169233846738934
1783169880340457200,1.462457275390625,0.14873042578697204,-0.058198506468534465,0.10832783438041806
1783169880350526200,1.472526123046875,0.19258301151692866,-0.0340156668484211,0.1643921783644706
1783169880360596200,1.48259619140625,0.11404811172336339,-0.011654197436571121,0.14655943842343985
1783169880370665200,1.492665283203125,0.06914338659197092,0.007712766334414482,0.13451967573538423
1783169880380735200,1.5027353515625,0.03189268334507942,0.10860299805998802,0.10845138769485056
1783169880390804200,1.51280419921875,0.03863689690828323,0.08300269285738468,0.0829150876391679
1783169880400874200,1.522874267578125,0.11716682826578616,0.09315700712502002,0.007825871320068836
1783169880410943200,1.532943115234375,0.12792875303775073,0.01523965470790863,-0.031157208677381275
1783169880421013200,1.54301318359375,0.15442074638307093,-0.12581658318936825,0.002315985324792564
1783169880431082200,1.553082275390625,0.09084814566075801,-0.18687573978602884,0.019816534169390797
1783169880441152300,1.56315234375,0.05234159713387489,-0.1367149938225746,0.013585457760095596
1783169880451221200,1.57322119140625,0.04040858275592327,-0.010241408029198646,0.009276216258853673
1783169880461291300,1.583291259765625,0.027873510831594464,0.03166413528621197,0.007984167154319584
1783169880471360300,1.5933603515625,0.03026712796986103,-0.005581015002727508,0.019492343716323374
1783169880481430300,1.60343017578125,0.02759060223698616,0.0017921441137790678,0.03375924440193921
1783169880491499300,1.613499267578125,0.0442784099265933,0.02748246568739414,-0.01270834613200277
1783169880501569300,1.6235693359375,0.0807426389709115,0.06551029078662395,-0.06575915098115802
1783169880511638300,1.63363818359375,0.09872048647105693,0.07038871047794819,-0.03234247293919325
1783169880521708300,1.643708251953125,0.10267068540155887,0.03741992233395576,0.04034008409697562
1783169880531777000,1.653777099609375,0.02969195843040943,0.02277589543163776,0.08651040871739386
1783169880541847300,1.663847412109375,-0.03259235604703426,0.07691957355141639,0.07730181433465332
1783169880551916300,1.673916259765625,-0.012747253370285034,0.13236556644141673,0.06256645588707178
1783169880561986300,1.683986328125,0.04457213217616081,0.18478841211795805,-0.029395751962810752
1783169880572055300,1.69405517578125,0.002951251021027565,0.1659691453576088,-0.023583996944129465
1783169880582125300,1.704125244140625,0.02506517541259527,0.15576222411990165,-0.009745769999362528
1783169880592194300,1.7141943359375,0.044182840597629544,0.17435002021193502,-0.006343121949024498
1783169880602264000,1.72426416015625,0.031681086421012875,0.1339490362405777,-0.013306238959915935
1783169880612333300,1.734333251953125,0.03634498657882213,0.07571019776165484,0.006116729314625263
1783169880622403000,1.744403076171875,0.008665244753658772,0.0785135647445917,0.013574096115864813
1783169880632472300,1.754472412109375,0.112070089648664,0.11350187601745128,0.10253332275748252
1783169880642542300,1.764542236328125,0.04122691340148449,0.021101824739575385,0.024197927591390906
1783169880652611300,1.774611328125,-0.059089025567471976,0.015510288342833517,-0.053288522595167157
1783169880662681300,1.784681396484375,0.009627660045027733,-0.01859013417959213,-0.04579787457883358
1783169880672750300,1.794750244140625,-0.034952070915699004,-0.01480477042198181,-0.007007906000688672
1783169880682820400,1.8048203125,-0.08357815465778112,-0.0024438860207796095,-0.026348018297366795
1783169880692889000,1.81488916015625,-0.11439034928977489,0.009843933144211768,-0.025294600254297254
1783169880702958300,1.824958251953125,-0.05824380691498517,0.03920388314127922,-0.0014597703542560338
1783169880713028000,1.835028076171875,-0.017500585377216337,0.04581248762607574,-0.05586947899907827
1783169880723098400,1.845098388671875,0.02554360657930374,0.0900777458101511,-0.14791921900194138
1783169880733167000,1.8551669921875,0.03608984277397394,0.12286883929967879,-0.17190288278814403
1783169880743236400,1.865236328125,0.03509674008339643,0.13709551757276056,-0.18637765407077966
1783169880753306000,1.87530615234375,0.08048457255661487,0.10231295800507068,-0.14882581245284526
1783169880763375400,1.885375244140625,0.11677724442631006,0.11464578535556792,-0.12272055340278892
1783169880773445400,1.8954453125,0.08309037114083767,0.1255085401535034,-0.05024338274560868
1783169880783514400,1.905514404296875,0.0422916200235486,0.06902618995308876,0.037249424605257805
1783169880793584400,1.91558447265625,-0.02173544646799564,0.013887071055173873,0.12397902903128415
1783169880803653000,1.925653076171875,-0.05805120695233345,0.011674071180820464,0.0863357462702319
1783169880813723400,1.935723388671875,-0.10255348876267671,0.045377603340148925,0.021592202072404323
1783169880823792000,1.945792236328125,-0.0483762006342411,0.049234863290190695,-0.03663680913224816
1783169880833862400,1.9558623046875,-0.04276303692758083,0.051827802392840384,-0.0941742944087833
1783169880843931100,1.96593115234375,-0.023824527701735494,0.038079847547411914,-0.11809771590773016
1783169880854001400,1.97600146484375,0.04517682007104158,-0.01281973408460617,-0.09906166459154338
1783169880864070100,1.986070068359375,0.06037351242005825,-0.04766308392882347,-0.09798493873812257
1783169880874140200,1.99614013671875,0.022858605279028416,-0.008192658805847167,-0.09292623057644814
1783169880884209200,2.006209228515625,0.031760873658955094,-0.0022165070056915284,-0.050241483049467205
1783169880894279200,2.016279052734375,0.027065701580047605,0.07212941666543483,-0.10116758736222982
1783169880904348400,2.026348388671875,0.08807721964269875,0.11194880135655402,-0.11776399044133722
1783169880914419200,2.036419189453125,0.04939443776607513,0.05567454094886779,-0.07527271965984254
1783169880924488200,2.04648828125,0.04025309993326664,0.06080547409653663,-0.07735734391417354
1783169880934558200,2.05655810546875,0.056823126462101935,0.04621756129562855,-0.026947737756185232
1783169880944627000,2.066626953125,0.06514934851974248,0.033546295771002765,0.0012389672104269266
1783169880954697200,2.076697265625,0.10213730917721986,0.049776130560040474,0.02842763758301735
1783169880964766000,2.086765869140625,0.11371990268230438,0.0851104787915945,-0.02390720101650804
1783169880974836200,2.096836181640625,0.06722001731395721,0.040513796696066855,-0.06988839627299458
1783169880984905200,2.1069052734375,0.13000877418220042,0.0319675021469593,-0.08281082354709506
1783169880994975000,2.11697509765625,0.08973258563429116,0.005275310054421425,-0.09434738595336675
1783169881005044200,2.127044189453125,0.09569617021381854,0.010723054066300391,-0.0894856616685167
1783169881015114000,2.137114013671875,0.03517915766984224,0.01303892979323864,-0.025913645468093452
1783169881025183200,2.147183349609375,0.014824644166231155,0.07067804881334304,0.019164061610028146
1783169881035253000,2.1572529296875,-0.022498539794981478,0.13261807989776134,0.045998840511031445
1783169881045322200,2.167322265625,-0.05107639950364828,0.11859949141740798,0.045268297746777535
1783169881055392000,2.17739208984375,-0.0016378303349018097,0.047504678496718404,-0.01584269863497466
1783169881065461200,2.187461181640625,0.05309270776212215,-0.007405307820439338,-0.07035378529503941
1783169881075531300,2.19753125,0.044131694932281966,-0.025657588347792623,-0.16857534580063074
1783169881085600300,2.207600341796875,0.043614685320854184,-0.06078209322094917,-0.17100980640593916
1783169881095670300,2.217670166015625,0.02277121925652027,-0.03753448862433433,-0.1701305758859962
1783169881105739000,2.227739013671875,0.002680617386102676,-0.0167746091902256,-0.1761441736197099
1783169881115809300,2.237809326171875,0.002806289592385292,-0.0453133059322834,-0.10715312804523855
1783169881125878000,2.2478779296875,0.0036596915513277053,0.016882745739817618,-0.1064506788643077
1783169881135948300,2.2579482421875,0.05432020373046398,0.05163432564735412,-0.05416947014816105
1783169881146017000,2.26801708984375,0.07817483430951833,0.0904606076478958,-0.03322780440635979
1783169881156087000,2.278087158203125,0.06854658974260092,0.1254126785635948,-0.051602286541275674
1783169881166156000,2.288156005859375,0.10361498051434755,0.13549801924824714,-0.04446322844158858
1783169881176226000,2.29822607421875,0.11691460707038641,0.12524082912802695,-0.11233648549988866
1783169881186295000,2.308294921875,0.11129618266671895,0.11952362052500247,-0.16904442461710423
1783169881196365000,2.318364990234375,0.029343583384156224,0.04589958138763904,-0.18122534934151915
1783169881206434300,2.328434326171875,0.009172317492961882,-0.016087211447954178,-0.17022844676990062
1783169881216504000,2.338504150390625,0.03231529267132282,-0.0372831442117691,-0.14632168414480984
1783169881226573300,2.3485732421875,0.044893911476433276,-0.06179740774333477,-0.11274232635442166
1783169881236643000,2.35864306640625,0.04623246660381555,-0.0013853168785572052,-0.11531071553770451
1783169881246712300,2.36871240234375,-0.006527940464019775,0.0213408941924572,-0.08719678354635835
1783169881256782000,2.378781982421875,-0.0006084872871637344,0.05059796833693981,-0.050391047587990755
1783169881266851000,2.38885107421875,-0.018014964640140532,0.08495265788137912,-0.04960040866695344
1783169881276921000,2.398921142578125,-0.04520107772946357,0.07231471010446548,-0.09128138597887009
1783169881286990000,2.408989990234375,-0.019728782820701597,0.04481412423849106,-0.08011577577684074
1783169881297060000,2.41906005859375,0.06953940017223358,0.01287117201089859,-0.08839198468029498
1783169881307129000,2.429129150390625,0.0384402052924037,0.018337620723247527,-0.07568265216760336
1783169881317199000,2.43919921875,-0.03068359981626272,0.06398819578588008,-0.09528309590090066
1783169881327268000,2.44926806640625,-0.003058510787785053,0.1042681837260723,-0.13585165499150753
1783169881337338000,2.459338134765625,0.03941401876062155,0.0511690462231636,-0.10641652086637914
1783169881347407000,2.469406982421875,0.06082476331889629,0.04206862492263317,-0.08558595081623643
1783169881357477000,2.47947705078125,0.06181202079057693,0.03960954133272171,-0.08615881880074738
1783169881367546000,2.489546142578125,0.09086100514233111,0.13727964196801185,-0.041922786711156367
1783169881377616100,2.4996162109375,0.105697339746356,0.10251754066646099,-0.07001724681705236
1783169881387685000,2.50968505859375,0.007352116328477859,0.0724748691022396,-0.16322781076021492
1783169881397755100,2.519755126953125,0.0933390856936574,0.05738251391053199,-0.1290526425011456
1783169881407824100,2.52982421875,0.12317103711664676,0.015984920117259025,-0.13577625166773796
1783169881417894100,2.53989404296875,0.1178752687960863,-0.026979776862263678,-0.1286516604848206
1783169881427963100,2.549963134765625,0.14337386718988418,-0.012328151175379753,-0.13144231411665677
1783169881438033200,2.560033203125,0.14160218134224414,0.01015022261440754,-0.0941782764641568
1783169881448102100,2.57010205078125,0.15987901178896427,0.05454758274555206,-0.057374001810513435
1783169881458172200,2.580172119140625,0.03845335703492164,0.06974222926795483,0.010455562236532568
1783169881468241200,2.5902412109375,-0.1099827619805932,0.12457447417378426,-0.009303579189814627
1783169881478311200,2.600311279296875,-0.041672319081425664,0.13359072432219982,-0.038266821486875414
1783169881488380200,2.610380126953125,0.027243103973567485,0.062197805237770076,-0.06400167632196098
1783169881498450000,2.620449951171875,-0.06528057368397712,0.03841770119965076,-0.07592855322007089
1783169881508519200,2.630519287109375,-0.1316688163489103,0.024997078612446783,-0.06366108272336422
1783169881518589000,2.6405888671875,-0.012422259199619293,0.04276829762458801,-0.11355693067293614
1783169881528658200,2.650658203125,0.10500643487274647,0.0930319194406271,-0.23720150358546524
1783169881538728200,2.660728271484375,0.10906798522323369,0.07370645672380924,-0.27612477968707677
1783169881548797200,2.670797119140625,0.1373494923338294,0.06180734461545944,-0.30547950551975517
1783169881558867200,2.6808671875,0.105667529129982,0.0052735564887523645,-0.2699485022049397
1783169881568936200,2.690936279296875,0.06624328123629093,-0.011992051088809966,-0.2139444735733792
1783169881579005200,2.701005126953125,0.058792380708456035,-0.02787292630970478,-0.12969006362184882
1783169881589075200,2.7110751953125,0.038924773938953876,-0.02599719556570053,-0.07397873432654888
1783169881599145200,2.721145263671875,-0.00468815781623125,0.017573066091537474,-0.03828713362254202
1783169881609214000,2.7312138671875,-0.07920067022591828,0.06196691909134388,0.013978987122327088
1783169881619284200,2.7412841796875,-0.05801701242178678,0.09232873960733413,0.030360140015557407
1783169881629353000,2.75135302734375,-0.053129240380227566,0.06138941146433353,0.02812164037376642
1783169881639423200,2.76142333984375,-0.03703706049621105,0.07403203541636466,-0.04888495387397706
1783169881649492000,2.771491943359375,0.036978023785352705,0.07253098320364952,-0.13828008771482855
1783169881659561200,2.781561279296875,0.08735212023854255,0.075254855209589,-0.2274088987696916
1783169881669631200,2.79163134765625,0.08782587523013353,0.060575172472000116,-0.3217532525157556
1783169881679700200,2.8017001953125,0.0808884771823883,0.09683306528925895,-0.3549293632674962
1783169881689770200,2.811770263671875,0.05086012640446424,0.07713292404115199,-0.2784991806682199
1783169881699839200,2.821839111328125,0.030111937408149242,0.09550035538077353,-0.17739421021342278
1783169881709909200,2.8319091796875,0.05246697707921266,0.09676292266249656,-0.08474336251225321
1783169881719978000,2.84197802734375,-0.06562573385983705,0.09818915607333183,-0.041964580026268954
1783169881730048300,2.85204833984375,-0.08545330087989568,0.09480477433204651,0.04410250537041575
1783169881740117000,2.862116943359375,0.01687836182564497,0.030115152278542518,0.054670405407622455
1783169881750187300,2.872187255859375,0.06183715523183345,-0.012167407655715941,0.010242869333922863
1783169881760256000,2.882256103515625,0.030866847428679463,0.02852349917292595,-0.03443539009783417
1783169881770326000,2.892325927734375,0.0599094020396471,0.07888707423210144,-0.13075787551645188
1783169881780395000,2.90239501953125,0.08670826937705278,0.08396598493158816,-0.16568477545827626
1783169881790465000,2.912465087890625,0.13927783004790545,0.06917056685984134,-0.16385569686759263
1783169881800534300,2.9225341796875,0.0932344562754035,0.030502105769515037,-0.09281349091697484
1783169881810604000,2.93260400390625,0.06233370657712221,0.040568741753697395,-0.06574413607511669
1783169881820673300,2.94267333984375,0.1015907812103629,0.00594341857433319,0.00932615634780377
1783169881830743000,2.952742919921875,0.08819792341291904,0.004760930791497231,0.001285619363747537
1783169881840812300,2.962812255859375,0.022047288896143435,-0.02085807911157608,0.0267922549335286
1783169881850882000,2.972882080078125,-0.005320318239927292,0.012387772408127783,0.013600618796609341
1783169881860951300,2.982951416015625,-0.043536067126691336,0.05778524949252605,-0.04622238360121846
1783169881871021000,2.99302099609375,-0.04933247844576835,0.047640872097015376,-0.08089019421543925
1783169881881090000,3.003090087890625,-0.037728257630765434,0.057636196410655975,-0.11596961783785373
1783169881891160300,3.013160400390625,0.00935585736632347,0.029758009403944012,-0.15403927278481422
1783169881901229000,3.02322900390625,0.10475888985246419,0.013162263911962508,-0.10989154003318398
1783169881911298600,3.033298583984375,0.10575988358855247,0.0333750308573246,-0.14737104706726967
1783169881921367300,3.0433671875,0.036139819395542144,0.058064650955796236,-0.1399850650018081
1783169881931437600,3.0534375,0.007990706492960452,0.05416004473268986,-0.11440010349880904
1783169881941506600,3.063506591796875,0.025628946775197982,0.05084346753060817,-0.07938340638168155
1783169881951576600,3.07357666015625,0.05869622685760259,0.008583703950047492,-0.035258798777312035
1783169881961645600,3.0836455078125,0.04111702328622341,-0.009682605102658271,-0.019268691028282044
1783169881971715300,3.09371533203125,0.030478724893927573,-0.0037619828820228576,-0.026305275134183466
1783169881981784600,3.10378466796875,0.06926175227463245,0.01269113926887512,0.0021349296694621444
1783169881991854300,3.113854248046875,0.10179127221852541,0.023709376889467237,-0.00231386643294245
1783169882001923600,3.123923583984375,0.1038739237114787,0.03565758883655071,-0.027195757700502872
1783169882011993300,3.133993408203125,0.07597498617768288,0.04698562305867671,-0.02039875450413674
1783169882022062600,3.1440625,0.06506196249723434,0.05976736322045326,-0.05360551612246781
1783169882032132400,3.15413232421875,0.0994061306476593,-0.0016325696378946303,-0.040326822756603355
1783169882042201600,3.16420166015625,0.05866290910989046,-0.00324818814098835,-0.06512830573171377
1783169882052271600,3.174271728515625,0.014414309799671171,0.009943301865458488,-0.06590330869220197
1783169882062340600,3.184340576171875,-0.042110710498690605,0.02607084532380104,-0.04194339110776782
1783169882072410600,3.19441064453125,-0.03910013050585985,0.07722118684649466,-0.05989836918897926
1783169882082479400,3.204479248046875,0.02773088749051094,0.10345686734318732,-0.09813183639552443
1783169882092549600,3.214549560546875,0.0877183232024312,0.08291326100826263,-0.115416587064974
1783169882102618400,3.224618408203125,0.07579904508888721,0.0900339066684246,-0.12277579072136431
1783169882112688600,3.234688720703125,0.09137041596919297,0.07411971369981765,-0.10934983437191695
1783169882122757400,3.24475732421875,0.11590367646217345,0.036837154009938235,-0.07130304884389042
1783169882132827600,3.25482763671875,0.03349778045415878,0.03925181393623352,-0.06377769484035671
1783169882142896400,3.264896484375,0.0765098237067461,0.04498831176161766,-0.01095952970329672
1783169882152966400,3.27496630859375,0.09132686908841132,0.03777706520855426,-0.031424627441912885
1783169882163035400,3.285035400390625,0.03221475490629673,0.027880525094270706,-0.10810513154044747
1783169882173105400,3.29510546875,-0.04406242908835411,0.014353519523143768,-0.11780150944013147
1783169882183174700,3.305174560546875,0.007201309680938721,-0.008528174370527266,-0.05457567632887512
1783169882193244400,3.315244384765625,0.08310849131941794,-0.02656009014546871,0.0011303922694176434
1783169882203313700,3.325313720703125,0.055707566435635084,-0.03718143740296364,0.004986665838770568
1783169882213383400,3.335383544921875,0.034411972689628596,-0.0518137738674879,-0.02939849190916866
1783169882223452700,3.34545263671875,0.06358312211632729,-0.023715222108364103,0.0025446429815143344
1783169882233522400,3.3555224609375,0.11887363218367099,0.0661398208618164,-0.04054536087810993
1783169882243591400,3.36559130859375,0.13390256675034762,0.11958324175775051,-0.0683689681533724
1783169882253661400,3.375661376953125,0.15119652363955974,0.09348609294891357,-0.041784255023300645
1783169882263730400,3.38573046875,0.10004968924820423,0.06801555160582065,-0.05871953466795385
1783169882273800700,3.39580078125,0.046454877182841296,0.06550035391449928,-0.05993468261137604
1783169882283869400,3.405869384765625,0.022323183228075503,0.025163082829117774,-0.061543067656084895
1783169882293939700,3.415939697265625,-0.03463467552959919,0.01678103893101215,-0.09822079332061111
1783169882304008400,3.426008544921875,-0.06289484759122133,0.024159458744525908,-0.09332418038547038
1783169882314078500,3.436078369140625,-0.0069184010863304135,0.024442951861023902,-0.1051370024498552
1783169882324147500,3.4461474609375,0.022707798631489275,0.014959668722748756,-0.10661843664664775
1783169882334217500,3.456217529296875,0.038816637389361856,0.024014497315883634,-0.10946213563997298
1783169882344286500,3.466286376953125,-0.011940613162517547,0.07260229487419129,-0.10199282267261296
1783169882354356500,3.4763564453125,0.02346533900052309,0.09154723384082317,-0.055483767617121336
1783169882364425500,3.486425537109375,0.09858020121753215,0.0510644168049097,-0.028819303781725463
1783169882374495500,3.49649560546875,0.0861737241089344,0.014869652351737022,-0.010506123379990458
1783169882384564500,3.506564453125,0.08759732717126607,0.003103226712346077,0.024900340239703653
1783169882394634500,3.516634521484375,0.056824880027770995,0.05432137277424335,-0.004400938372686505
1783169882404703700,3.526703857421875,0.05267477461099624,0.06830722802877426,-0.02346110121682286
1783169882414773500,3.5367734375,0.05162205068767071,0.06432488039433956,-0.018976320485584435
1783169882424842500,3.546842529296875,0.03483224392831325,0.04047930990457534,-0.05360036502331495
1783169882434912500,3.55691259765625,0.038247605329751966,0.02944412114918232,-0.07485204656235873
1783169882444981500,3.5669814453125,0.06223521463871002,0.036301731958985325,-0.07809676410462707
1783169882455051500,3.577051513671875,0.055582186490297315,-0.0018359832555055618,-0.0443310534292832
1783169882465120500,3.58712060546875,0.08183715620934963,-0.01488017374575138,-0.023819047809019684
1783169882475190500,3.5971904296875,0.08963467821776866,0.03621405367553234,-0.07002206912264228
1783169882485259500,3.607259521484375,0.03280015357881784,0.08049567847251891,-0.09429244089573621
1783169882495329500,3.61732958984375,0.0014355857610702514,0.031181320205330848,-0.08621102391202003
1783169882505398500,3.6273984375,0.1024886068329215,0.04879354926347732,-0.11792758350521325
1783169882515468500,3.637468505859375,0.0894715966105461,0.04685293658971786,-0.09138261786364019
1783169882525537500,3.64753759765625,-0.007587094128131866,0.06312368791103362,-0.04464760856516659
1783169882535607600,3.657607666015625,-0.020002923586964608,0.06177753399908542,-0.021928265626356004
1783169882545676500,3.667676513671875,-0.01223024375885725,0.042456162935495374,-0.03472768757529557
1783169882555745500,3.67774560546875,-0.01605097109079361,0.057956514406204224,-0.05654076585676521
1783169882565815600,3.687815673828125,0.01649403868317604,0.05062602538764476,-0.1480665185181424
1783169882575884500,3.697884521484375,0.09783288998156785,0.03725859429240227,-0.27144659527558834
1783169882585954300,3.707954345703125,0.14569851074516774,-0.017054010653495787,-0.2959873449552804
1783169882596023600,3.7180234375,0.16894085464477537,-0.05512742846012115,-0.21244455387182531
1783169882606093300,3.72809326171875,0.12886983328014612,-0.08788052802681923,-0.12401442913822829
1783169882616162600,3.73816259765625,0.03853402105569839,-0.08997603900134563,0.04390245275367051
1783169882626232600,3.748232666015625,0.03533756310194731,-0.023226561808586118,0.18487872074991463
1783169882636301600,3.758301513671875,-0.029141923332214353,0.06931494376659393,0.18429642734993248
1783169882646371600,3.76837158203125,0.013424421979486942,0.09927578226625919,0.1495889423124492
1783169882656440600,3.778440673828125,0.1051768230035901,0.07781506108641624,0.06466624117791653
1783169882666510600,3.788510498046875,0.08512363053411245,0.050481063959002495,-0.017211612368002532
1783169882676579600,3.79857958984375,0.09972060342431067,0.025861586487293243,-0.11280081507600843
1783169882686649600,3.808649658203125,0.11256897908151149,-0.0008919804036617279,-0.18974271005708723
1783169882696718300,3.81871826171875,0.12176087805777787,0.008080430603027343,-0.18829959857668727
1783169882706788600,3.82878857421875,0.0890206379726529,0.048743280380964274,-0.16963102886602283
1783169882716857300,3.838857421875,0.02885024690926075,0.06083586923480033,-0.14622096371669321
1783169882726927600,3.848927734375,-0.008281506133079528,0.0424462260633707,-0.052132703623548146
1783169882736996400,3.858996337890625,-0.05803980877548456,0.05572597887516021,-0.0027088936325162646
1783169882747066600,3.869066650390625,-0.03805120597481727,0.06334989788234234,0.06255001620892435
1783169882757135400,3.87913525390625,0.0075146134138107295,0.06074526834189892,0.055130497200042004
1783169882767205400,3.889205322265625,0.02389233224093914,0.07652619031965732,-0.048167891645804047
1783169882777274600,3.899274658203125,0.02426262685805559,0.05556698892116546,-0.10243786302637309
1783169882787344400,3.909344482421875,0.0746229870468378,0.014366379004716873,-0.15612433543056248
1783169882797413600,3.91941357421875,0.10759177519083023,0.03153027977347374,-0.20242723692208528
1783169882807483400,3.9294833984375,0.10948854872286319,0.015398060140013693,-0.15494429533313958
1783169882817552600,3.939552734375,0.0976239234060049,0.03749415661394596,-0.0668587097208947
1783169882827622400,3.949622314453125,0.009319617009162902,0.07778057429492473,-0.01996865599118173
1783169882837691600,3.959691650390625,-0.041269583499431606,0.10631517938375472,0.021919570863246918
1783169882847761400,3.969761474609375,-0.011196516796946525,0.09510171145200728,0.06908424028325826
1783169882857830400,3.979830322265625,-0.019508418068289755,0.04988426710963249,0.039850912340544165
1783169882867900700,3.989900634765625,-0.007190788286924362,0.030909517526626584,-0.029904797463491558
1783169882877969400,3.999969482421875,0.05931348197311163,0.04642389752268791,-0.13446900499407202
1783169882888039700,4.010039794921875,0.1623980088725686,0.030859833166003225,-0.2149921925280243
1783169882898108400,4.0201083984375,0.1234723581507802,-0.007413491126894951,-0.24223021846767515
1783169882908178400,4.030178466796875,0.01868687255233526,0.014862053567171097,-0.23119601609297094
1783169882918247200,4.0402470703125,0.007183774024248123,0.02595101833641529,-0.1301367844760418
1783169882928317200,4.050317138671875,0.05298953964859247,0.01371814422905445,-0.02070471518076956
1783169882938386200,4.06038623046875,0.05489245066046714,-0.04573766882419586,0.06734163439963013
1783169882948456200,4.070456298828125,0.06294628551751374,-0.05622048439383506,0.11678886179886758
1783169882958525200,4.080525146484375,0.03759264855235815,0.03281038271188736,0.08089340908583253
1783169882968595200,4.09059521484375,0.09378712172210216,0.06175590668916702,-0.0015118658676743506
1783169882978664200,4.100664306640625,0.16446955444961786,0.03917524156868458,-0.027624212245643136
1783169882988734200,4.110734130859375,0.16034487573504447,-0.0043874213039875026,-0.0668628013741225
1783169882998803200,4.12080322265625,0.09725596687644719,0.02701075652241707,-0.1189209419241175
1783169883008873200,4.130873291015625,0.06096212596297264,0.06443593955338,-0.1181433086151257
1783169883018942500,4.1409423828125,0.0361745984479785,0.0668850862711668,-0.0835416220396757
1783169883029012200,4.15101220703125,0.02169248410910368,0.030161329507827756,-0.04085738596934825
1783169883039081200,4.161081298828125,0.024431553684175013,0.039977790123224256,0.015751147894002497
1783169883049151200,4.171151123046875,-0.07734802809655666,0.11035071851015091,-0.038144912140257656
1783169883059220200,4.18122021484375,-0.08061638224273919,0.13242284958660602,-0.12789649473596362
1783169883069290200,4.191290283203125,0.015955401761829854,0.08192775710225104,-0.15859978563338517
1783169883079359200,4.201359130859375,0.0323097397133708,0.07641454663872718,-0.1994663412898779
1783169883089429200,4.21142919921875,0.08293781092762946,0.07587678650021552,-0.2362298820743337
1783169883099498200,4.221498291015625,0.11781681660711765,0.0481669417977333,-0.19160744448304176
1783169883109568300,4.231568359375,0.11600655231475829,0.03058160074651241,-0.14250877479314802
1783169883119637200,4.24163720703125,0.0813394358202815,0.01242109015583992,-0.0796267866834998
1783169883129707300,4.251707275390625,0.11912059268206357,-0.010157236877083777,-0.0008540960786864162
1783169883139776300,4.2617763671875,0.14747428824603556,-0.03539923016130924,0.03129771312661469
1783169883149846300,4.27184619140625,0.10572685810178517,-0.05125321737527847,0.0367700801230967
1783169883159915300,4.281915283203125,0.07389817990362643,-0.02553893040418625,0.048789603740721936
1783169883169985300,4.2919853515625,0.06530278551578521,0.01601473073363304,0.047496166396699846
1783169883180054300,4.30205419921875,0.05813859297484159,0.027252164062857628,0.012077391284704208
1783169883190124300,4.312124267578125,0.10828063423782587,0.008441665130853652,0.013963205031305551
1783169883200193300,4.322193359375,0.15064853436797856,0.03194879744648933,-0.016903130940720438
1783169883210263300,4.33226318359375,0.09577303484231232,0.04668868593871593,-0.014669307474046945
1783169883220332000,4.34233203125,0.02879004115462303,0.07256956164836884,-0.08113240547347814
1783169883230402300,4.35240234375,-0.006107376964390277,0.10164309591948985,-0.16625380751788615
1783169883240471300,4.36247119140625,0.010522855319082737,0.04757423660159111,-0.15276976430565117
1783169883250541300,4.372541259765625,-0.0016740706920623778,0.016496376770734785,-0.14217851992547512
1783169883260610300,4.3826103515625,-0.08384557342231273,0.06991290965974331,-0.15047657533455638
1783169883270680000,4.39268017578125,-0.1298538758814335,0.11534662710130214,-0.14084091464616358
1783169883280749300,4.402749267578125,-0.0948871919184923,0.14754033921957016,-0.08972977262269705
1783169883290819000,4.412819091796875,-0.013990823690593242,0.14238193354308604,-0.049902898744866246
1783169883300888300,4.422888427734375,0.027259178325533866,0.1210129822999239,-0.06276088248062879
1783169883310958000,4.4329580078125,0.06283961027264595,0.09189151723384857,-0.09118873925935476
1783169883321027300,4.44302734375,0.06964812124371528,0.0772679485976696,-0.11719251069631427
1783169883331097300,4.453097412109375,0.060710781550407406,0.07296820557713508,-0.19329185390602796
1783169883341166300,4.463166259765625,0.04454875130057335,0.020804303097724915,-0.08563176271934062
1783169883351236400,4.473236328125,0.04317658616453409,0.05211188003122806,-0.0949539004791528
1783169883361305300,4.483305419921875,-0.007659867103397846,0.0685235011279583,-0.06591072481367737
1783169883371374300,4.493374267578125,-0.004556932651996613,0.03631283787488937,-0.029876375086605546
1783169883381444000,4.503444091796875,-0.006334171457588672,0.02442074002921581,-0.023442944505624473
1783169883391513300,4.513513427734375,-0.001584346581995487,0.0012619827598333358,-0.02109945011939853
1783169883401583000,4.5235830078125,0.058389060604572295,-0.011412205374240874,-0.0744603438310325
1783169883411652400,4.53365234375,0.07697305730432272,0.0037894554108381267,-0.09408486255966127
1783169883421722000,4.54372216796875,0.0894809489607811,0.04071428770422935,-0.08410247079282998
1783169883431791400,4.553791259765625,0.01959317374229431,0.11638649154305457,-0.06535345625709742
1783169883441861000,4.563861083984375,-0.07073124030530452,0.15695698686242102,-0.06795267897006124
1783169883451930400,4.573930419921875,-0.0974275240510702,0.15594050329625606,-0.05184380367957055
1783169883462000400,4.58400048828125,-0.0552493012741208,0.10699497834146023,-0.061477345476113256
1783169883472069400,4.5940693359375,-0.04059066132456064,0.06832943986058235,-0.09229772341456263
1783169883482139400,4.604139404296875,-0.018082476918399332,0.06733984430134296,-0.15277316183913497
1783169883492208000,4.6142080078125,0.016630232283473014,0.06454992132186889,-0.20778375898655502
1783169883502278400,4.6242783203125,0.010759002162516117,0.04404664699733257,-0.19282270202431825
1783169883512347100,4.63434716796875,-0.017070669527351857,0.05802314990162849,-0.1821208003439009
1783169883522417400,4.64441748046875,-0.03265285406261682,0.06791852097213268,-0.11125778688509017
1783169883532486100,4.654486083984375,-0.04932546418309212,0.06696633481383324,-0.018710070764832196
1783169883542556200,4.66455615234375,-0.08737930050641297,0.04941840316355228,0.018966785472258923
1783169883552625200,4.674625244140625,-0.0769777334794402,0.062087330600619314,0.037377069572918115
1783169883562695200,4.684695068359375,-0.009313479529321192,0.040489831298589705,0.05774020477440208
1783169883572764200,4.69476416015625,0.014811200162768363,0.041920740884542465,0.00265120862852782
1783169883582834200,4.704834228515625,0.03900602248162031,0.05395721563696861,-0.052611536649055775
1783169883592903200,4.714903076171875,0.030796120280027386,0.09106617232561111,-0.07326013772841543
1783169883602973200,4.72497314453125,0.006533493421971797,0.09966273575723171,-0.10648111053518951
1783169883613042400,4.73504248046875,-0.010398936678469181,0.08539864808320999,-0.07834314008112997
1783169883623112200,4.7451123046875,-0.048204351198673244,0.0674602558106184,-0.09094214408714324
1783169883633181400,4.755181396484375,-0.07190408347696066,0.038304303953051566,-0.07089775597862899
1783169883643251200,4.765251220703125,-0.1055623151898384,0.043268648362159726,-0.05348696777671575
1783169883653320200,4.7753203125,-0.08284107255488633,0.04079845885634422,-0.03775985834542662
1783169883663390200,4.78539013671875,-0.05339987401515245,0.01598725820481777,-0.030304573903419077
1783169883673459200,4.795459228515625,0.002415244448184967,0.008806991311907767,0.002541318513266742
1783169883683529200,4.805529296875,0.04665010749399662,0.03437748589813709,-0.0117776046205312
1783169883693598200,4.81559814453125,0.07076455805301665,0.05230769486427307,-0.05706815073173493
1783169883703668500,4.82566845703125,0.09961655852794647,0.06760287915170192,-0.08393131547700614
1783169883713737200,4.8357373046875,0.10294394938498735,0.07243219900429249,-0.0672375164380297
1783169883723807200,4.84580712890625,0.062195759411156175,0.06425006159245968,-0.08678776435405015
1783169883733876200,4.855876220703125,0.038382629886269566,0.015029811349511146,-0.0458196114866063
1783169883743946200,4.8659462890625,-0.002481587682664394,-0.005257774397730827,-0.015392105323262512
1783169883754015200,4.87601513671875,-0.0575607930868864,-0.01462181507050991,-0.011815854271687567
1783169883764085200,4.886085205078125,-0.06144874043613672,-0.05188508553802967,0.007084770629182458
1783169883774154200,4.896154296875,-0.04249181877076626,-0.049554596763849254,-0.00012439356464892626
1783169883784224300,4.906224365234375,-0.00829407335370779,-0.009483283138275145,-0.006170943719893693
1783169883794293200,4.916293212890625,0.01983399676084518,0.053280339288711544,-0.032500841838680204
1783169883804363300,4.92636328125,0.015296937853097915,0.10616554177999496,-0.04312697486914694
1783169883814432300,4.936432373046875,-0.0367255103290081,0.1348766724795103,-0.07388627027012408
1783169883824502300,4.946502197265625,-0.007380757901072501,0.1126297693580389,-0.022981062614917752
1783169883834571300,4.9565712890625,0.022694354628026485,0.11959551671743392,-0.043004736728966236
1783169883844641300,4.966641357421875,0.006266366918385028,0.09507365440130233,-0.08102032340113073
1783169883854710300,4.976710205078125,0.013504793739318847,0.06609013650119304,-0.07968801535144447
1783169883864780300,4.9867802734375,-0.014963175854086875,0.039226679494977,-0.0888410070894286
1783169883874849300,4.996849365234375,0.0638984716758132,0.05369418078660965,-0.15326507354192434
1783169883884919000,5.0069189453125,0.04511866014301777,0.03459843517243862,-0.12804456143714488
1783169883894988300,5.01698828125,0.05438420887738466,0.004119125756621361,-0.06125924574602395
1783169883905058000,5.02705810546875,-0.002495323947072029,0.05454933631122112,-0.05985778145026415
1783169883915128000,5.037128173828125,-0.019431845700740812,0.05119885683953762,-0.03132697575371712
1783169883925198000,5.047197998046875,0.019086685524880884,0.06683247930109501,-0.011003040051460265
1783169883935267000,5.05726708984375,0.001536123526096344,0.059066521474719046,0.010204875411093235
1783169883945337000,5.067337158203125,0.025908055977523325,0.04589841234385967,-0.040017354948632414
1783169883955405800,5.07740576171875,0.08903642006367445,0.014659224471449852,-0.04326097651235759
1783169883965476000,5.08747607421875,0.10759762040972709,0.0005225625693798065,-0.0961400780564174
1783169883975544800,5.097544921875,0.021672025842964647,0.023901100069284437,-0.12078560328483581
1783169883985615000,5.107614990234375,-0.02697743877470493,0.017840777117013932,-0.06154708624407649
1783169883995683800,5.117683837890625,0.015395137530565262,-0.04211889380514622,-0.022799605100788174
1783169884005754000,5.127754150390625,0.046320729409158226,-0.027546763095259663,0.007875263419747352
1783169884015822800,5.13782275390625,-0.00701660076379776,0.042645548027753825,0.006362776497565209
1783169884025892900,5.147892822265625,0.026172552132606504,0.10017068527936934,0.025914266522601245
1783169884035962000,5.157962158203125,0.0037429859206080432,0.12344517788290976,0.02297448674365878
1783169884046032000,5.168031982421875,0.05729688145369291,0.12476210570037365,-0.003681245796009898
1783169884056101000,5.17810107421875,0.048672845493257046,0.12411679353415965,-0.07000562944449484
1783169884066171000,5.1881708984375,0.020943127046525477,0.08151099299490451,-0.13099679883886128
1783169884076240100,5.198240234375,0.06163169578760862,0.04580079718828201,-0.1591021821975708
1783169884086310000,5.208309814453125,0.07646744586974381,0.01424362940788269,-0.16975750478990376
1783169884096379100,5.218379150390625,0.08632306945174932,-0.010704349365830422,-0.17209946480616925
1783169884106449000,5.228448974609375,0.10293255120813846,-0.005422025048732757,-0.13101747630070895
1783169884116518100,5.23851806640625,0.07060118418484926,0.020528408765792844,-0.10124755726326257
1783169884126588200,5.248588134765625,0.06669716248363255,0.035703181543946264,-0.007549757792428135
1783169884136657000,5.258656982421875,0.08731266501098871,0.04125321688652038,0.040797326345182953
1783169884146727200,5.26872705078125,0.07031155358850956,0.009593173253536223,0.03874123406559229
1783169884156796000,5.2787958984375,0.026682255220413207,0.04150689938664436,0.08080876300968229
1783169884166865200,5.288865234375,-0.009687281277775763,0.061056818509101864,0.007535729267075657
1783169884176935000,5.298934814453125,0.03018441812247038,0.032277883270382876,-0.06460548743400722
1783169884187004200,5.309004150390625,0.08705664442330599,0.014255904367566108,-0.1337445997096598
1783169884197074000,5.319073974609375,0.11412614539563655,0.018269816184043882,-0.13542659797985107
1783169884207143200,5.32914306640625,0.07048311076313257,0.01329553490281105,-0.12317490957416594
1783169884217213000,5.339212890625,0.0046133390143513675,0.032333997371792794,-0.1026344450443983
1783169884227282000,5.349281982421875,0.03425970473736525,0.02172901672720909,-0.045370004555582995
1783169884237352000,5.35935205078125,0.03517798862606287,0.013368600139021873,-0.043378538477420805
1783169884247421000,5.3694208984375,-0.030922084747254847,0.03868424318134785,-0.06789046392142772
1783169884257491200,5.3794912109375,-0.01840893239378929,0.047747839602828024,-0.04913359487280249
1783169884267560000,5.389559814453125,0.01645604476034641,0.08249298976957797,-0.018821239521726964
1783169884277630200,5.399630126953125,0.014160627299547195,0.11615735896229744,-0.06407346291653812
1783169884287699000,5.409698974609375,0.03830839560627937,0.09598609307110309,-0.05348108602520078
1783169884297769000,5.41976904296875,0.06811521258801222,0.0857727420926094,-0.0550609390951693
1783169884307838000,5.429837890625,0.1261950611129403,0.07931260616779327,-0.047650589773431416
1783169884317908000,5.439907958984375,0.10115385109782218,0.06794716254472732,-0.0947480391761288
1783169884327977000,5.44997705078125,0.09053484192788601,0.04306874187588691,-0.10342691059634089
1783169884338047000,5.460046875,0.08046879046559334,0.018085107266902923,-0.09343805255610495
1783169884348116000,5.470115966796875,0.029771745668351647,0.01953530607521534,-0.06697334907650947
1783169884358186000,5.48018603515625,0.004155366113781929,0.004824059155583382,-0.052885092893429096
1783169884368255000,5.4902548828125,0.011997019524872303,0.007175006195902824,-0.03145593589562923
1783169884378325000,5.500324951171875,0.02128594913482666,-0.006329787543416023,0.01833634208161384
1783169884388394200,5.510394287109375,0.037921149854362006,-0.0011339724659919738,0.006073584292642772
1783169884398464000,5.520464111328125,0.047022447937726974,0.03492927456200123,-0.02661835967134684
1783169884408533000,5.530532958984375,0.0804220287144184,0.058582537350058556,-0.0786606815977022
1783169884418603000,5.54060302734375,0.09461626602262257,0.06323650063574314,-0.09412994381040334
1783169884428672000,5.550672119140625,0.06733721395283937,0.04666004436612129,-0.08656089679561554
1783169884438742000,5.560741943359375,0.06205781224519014,0.02537935592830181,-0.042569742845185096
1783169884448811000,5.57081103515625,0.04210252719223499,0.048231823727488514,-0.0542035185482353
1783169884458881000,5.580881103515625,-0.009393559028208254,0.051419806113839145,-0.008278327795304357
1783169884468950000,5.590949951171875,-0.002238134315609932,0.030464696368575093,-0.023109145973995326
1783169884479020000,5.60102001953125,0.026576164497435092,0.0036561844199895855,-0.06270677767321467
1783169884489089000,5.611089111328125,0.061222238203883166,0.0186176067084074,-0.07768569908570498
1783169884499159000,5.621158935546875,0.09148702808618545,0.03580488835275173,-0.11391739801578223
1783169884509228000,5.63122802734375,0.04883943423181772,0.04087386218011379,-0.09924735988937318
1783169884519298000,5.641298095703125,0.05180179116874933,0.05789280152022838,-0.08354322947487235
1783169884529367000,5.651366943359375,0.056312838852405546,0.068788874065876,-0.045420492633804675
1783169884539437000,5.66143701171875,0.007001987716555595,0.06908931831717491,-0.040973998086340724
1783169884549506000,5.671506103515625,-0.03113192810565233,0.0977764836192131,-0.042521665919758374
1783169884559576000,5.681576171875,0.005405073913931847,0.07454816824495791,-0.06147756467182189
1783169884569644800,5.691644775390625,0.04598404480069875,0.03024316257238388,-0.10468151376731694
1783169884579716900,5.701716796875,0.008825696012377739,-0.014963175854086875,-0.1433370423108339
1783169884589786000,5.7117861328125,0.03574877425134182,-0.006852934634685516,-0.09981412692666053
1783169884599855900,5.72185595703125,0.058708209556341165,0.027692309045791626,-0.03944375631175935
1783169884609925000,5.731925048828125,0.036977439263463016,0.07860650372505187,0.020246632682345805
1783169884619995100,5.7419951171875,0.002848082907497883,0.10475509046018124,0.0925215952983126
1783169884630064000,5.752064208984375,0.020192893201112744,0.14305296467244624,0.05347304884921759
1783169884640134100,5.762134033203125,0.06098726040422916,0.12776947082281112,0.006365224182978272
1783169884650203000,5.772202880859375,0.08368044598847627,0.09976794969737529,-0.0642766208058223
1783169884660273200,5.782273193359375,0.09483429268747567,0.036700375887751574,-0.1335088912576437
1783169884670342000,5.792341796875,0.08742664677947759,-0.012173837396502494,-0.14098163829110563
1783169884680412200,5.802412109375,0.0550163693010807,-0.026737784799933433,-0.126369285168685
1783169884690481000,5.81248095703125,-0.006802373491227627,-0.012522796964645385,-0.1110743566095829
1783169884700551000,5.822551025390625,-0.007313245622813701,0.011223404803872107,-0.07187273849062621
1783169884710620000,5.832619873046875,0.0227612823843956,0.00043371524214744564,-0.00093655019775033
1783169884720690000,5.84268994140625,-0.0002671265035867691,0.050852235358953474,-0.008796506450511514
1783169884730759000,5.852759033203125,-0.018833587546646595,0.04927519530057907,-0.012610840574279426
1783169884740829000,5.862828857421875,-0.007012801371514797,0.044562195304036135,-0.003419453054666519
1783169884750898200,5.872898193359375,0.0358256388798356,0.0609767390102148,-0.023114589334093032
1783169884760968000,5.882968017578125,0.019496727630496025,0.03296586553454399,-0.06666329674664885
1783169884771037200,5.893037109375,-0.00023497779965400695,0.007975216662883759,-0.07948814539778977
1783169884781107000,5.90310693359375,0.016852058340609072,0.009573884031176566,-0.0969745195865631
1783169884791176200,5.91317626953125,0.049098085168004034,0.022055179941654204,-0.09040299570914358
1783169884801246000,5.923245849609375,0.07689911528527736,0.025838790133595465,-0.10667999410815536
1783169884811315000,5.93331494140625,0.08644465000480413,0.02888590274453163,-0.043370647431910034
1783169884821385000,5.943385009765625,0.11563830352425575,0.039105098941922184,0.016580365259759127
1783169884831454000,5.953453857421875,0.09800561619997024,0.08603226981163024,-0.019491832259669897
1783169884841524200,5.963524169921875,0.0837967658445239,0.10303016636371612,0.012677147276140749
1783169884851593000,5.973593017578125,0.09251315626353025,0.06694646106958389,0.034990612827800215
1783169884861663000,5.9836630859375,0.062191375496983524,0.07105155830085277,0.002744622533023357
1783169884871732000,5.99373193359375,0.00395487510561943,0.01790215191543102,-0.030281887147575615
1783169884881802000,6.003802001953125,-0.0030438977405428886,-0.031799744364619256,-0.05332925646435469
1783169884891871000,6.01387109375,0.05756166986972093,-0.02103051306903362,-0.09908650677185506
1783169884901941000,6.02394091796875,0.04930325235128402,-0.00905132146179676,-0.10131967265140264
1783169884912009700,6.034009765625,0.024869652840495107,0.016289456021785734,-0.09359408336803317
1783169884922079700,6.044079833984375,0.04125497045218944,0.053339960521459576,-0.07659878063183277
1783169884932148700,6.054148681640625,0.08016659264862537,0.06037701955139636,-0.030773287393711504
1783169884942218800,6.06421875,0.09317629634737967,0.05588087717592716,0.016232940061576665
1783169884952287700,6.074287841796875,0.1321107148975134,0.04687865555286407,0.03457304500285536
1783169884962357800,6.084357666015625,0.1270192369773984,0.033488428103923794,0.04017758701164275
1783169884972426800,6.0944267578125,0.07367021636664867,0.05258475823998451,-0.02181158044412732
1783169884982496800,6.104496826171875,0.05230623355954885,0.009606032735109328,-0.05845134871844202
1783169884992565800,6.114565673828125,0.05974632043242454,-0.015565817922353743,-0.06871584536228328
1783169885002634800,6.124634765625,0.07053104155808687,-0.0011614449948072433,-0.061518992660753426
1783169885012704800,6.134704833984375,0.038113165295124055,0.019610124877095222,-0.08949596386682242
1783169885022774800,6.14477490234375,0.03694236795008182,0.04951484927535057,-0.007729790534451603
1783169885032843800,6.15484375,0.026679624871909616,0.05700374372601509,0.02619129336569458
1783169885042913800,6.164913818359375,0.04811725743710994,0.08065700651407241,0.03210786046572029
1783169885052982800,6.174982666015625,0.16322656865119933,0.10754384439587593,0.01103453116826713
1783169885063051800,6.1850517578125,0.104865565097332,0.11685820070803164,-0.08088135332185775
1783169885073121800,6.195121826171875,0.09241729467362166,0.05281856699585914,-0.06605495558995753
1783169885083190800,6.205190673828125,0.15117080467641353,0.01251519818007946,-0.06600658640358596
1783169885093260800,6.2152607421875,0.08105214331150054,0.021579963645339012,-0.04871431001480669
1783169885103329500,6.22532958984375,0.07651216179430484,-0.02575754159092903,-0.0063986149959266185
1783169885113399800,6.23539990234375,0.039791035379469396,-0.10955167708694934,0.139146677948907
1783169885123468500,6.245468505859375,-0.0037640287086367604,-0.050833530658483506,0.05078172740601003
1783169885133538800,6.255538818359375,-0.07185498363822698,-0.010337269619107246,-0.02223776996694505
1783169885143607800,6.26560791015625,0.05385960048139095,0.05273264227807521,-0.06796561151687056
1783169885153677800,6.275677734375,0.11553484314978121,0.041997313252091405,-0.10818714726809411
1783169885163746800,6.285746826171875,0.011946458381414412,0.01890051530301571,-0.13439995834585278
1783169885173816600,6.295816650390625,-0.06878127528131008,0.06307867972552776,-0.2003197067162022
1783169885183885800,6.3058857421875,-0.040184710872173304,0.03030453737080097,-0.13897610715497286
1783169885193955600,6.31595556640625,0.05951338845938444,0.02892740379869938,-0.10101524634473025
1783169885204024800,6.32602490234375,0.056905836309492586,0.06819499982595444,-0.06273125452734529
1783169885214094600,6.336094482421875,0.06267243701219559,0.06485153461694718,-0.006425977926887571
1783169885224163800,6.346163818359375,0.08811784391403198,0.08821078289449215,0.017402824091166256
1783169885234233900,6.35623388671875,0.055037996610999104,0.10616963343322276,-0.00006692775636911391
1783169885244302800,6.366302734375,0.07147212180048226,0.09546996024250984,0.003995353246480226
1783169885254372900,6.376372802734375,0.07538403454720974,0.08248772907257079,-0.0011267390076071023
1783169885264441900,6.38644189453125,0.048284430697560304,0.07436345932781696,-0.06369973423331976
1783169885274512000,6.396511962890625,0.00632774171680212,0.07114683536887169,-0.15227737767882643
1783169885284580600,6.40658056640625,0.023188567885756493,-0.003249357184767723,-0.11234868739433586
1783169885294651000,6.41665087890625,0.025601474246382712,-0.008819850793480872,-0.08710475788135082
1783169885304719600,6.4267197265625,-0.05510813923776149,0.0036982699960470197,-0.10649221645109355
1783169885314790000,6.436789794921875,-0.023866905538737774,0.0019406126737594603,-0.0811942917285487
1783169885324858600,6.446858642578125,0.06096621761620044,0.0024070611417293547,-0.022990305367298423
1783169885334928600,6.4569287109375,-0.013378829272091388,0.016926000359654424,-0.007604374056495725
1783169885344997600,6.46699755859375,-0.06407733537405728,0.07483984466791152,-0.07326061265245079
1783169885355067600,6.477067626953125,-0.013094751633703708,0.11113456236422062,-0.09312193581163883
1783169885365137000,6.487136962890625,0.053175417609512804,0.08219254551827906,-0.10430007670167833
1783169885375206700,6.49720654296875,0.03703530693054199,0.05622983674407005,-0.09681863490510731
1783169885385276000,6.50727587890625,0.04633212758600712,0.01778057136237621,-0.0593112900160253
1783169885395345700,6.517345703125,0.027281390157341955,0.05796820484399795,-0.06832739403396844
1783169885405415000,6.527414794921875,0.02630874573290348,0.08427870414257049,-0.06135605718400329
1783169885415484700,6.537484619140625,0.032898060995340345,0.07972177149057388,-0.056238969898596405
1783169885425554000,6.547553955078125,0.05469926617592573,0.08870295032560825,-0.09631411944907158
1783169885435623700,6.557623779296875,0.09459639227837324,0.07700082209408282,-0.05731741278506815
1783169885445692700,6.567692626953125,0.07132365324050188,0.0457446830868721,-0.03658270432483405
1783169885455763000,6.577762939453125,0.04627367539703846,0.06052724167704582,-0.018050583942793307
1783169885465831700,6.587831787109375,0.0479427776530385,0.05985445698201656,0.004118029778078198
1783169885475902000,6.59790185546875,0.04397708889245987,0.07242460021972656,-0.022687121169641614
1783169885485970700,6.607970703125,-0.018597732964158058,0.09169687144458294,-0.06841777573116123
1783169885496040700,6.618040771484375,-0.040675709259510036,0.06482289304435253,-0.11227083638515323
1783169885506109700,6.628109619140625,-0.015816285552084444,0.027818565773963928,-0.1149082356840372
1783169885516179700,6.6381796875,-0.02662058816105127,-0.011187164446711539,-0.11000997878108174
1783169885526248700,6.648248779296875,0.0005012275204062461,0.010664017355442047,-0.11985767478495836
1783169885536318700,6.658318603515625,0.04454875130057335,0.0017389526218175887,-0.12740973413232712
1783169885546387700,6.6683876953125,0.05524053344577551,-0.006390577819943428,-0.10467325739562511
1783169885556457700,6.678457763671875,-0.005927051961421966,0.03639467093944549,-0.09314937180783599
1783169885566526700,6.688526611328125,0.012047580668330192,0.03549859888255596,-0.036727190829440946
1783169885576596700,6.6985966796875,0.03190846543610096,0.04198562281429767,0.013092851937562227
1783169885586666000,6.708666015625,-0.012879939839243888,0.06910042423307895,0.013244462302699685
1783169885596735700,6.71873583984375,-0.03259323282986879,0.09564473228752612,-0.015507767592184245
1783169885606804700,6.7288046875,0.05367752191275358,0.052553194057941434,-0.04227839521579444
1783169885616874800,6.738874755859375,0.10723492457717657,0.022082067948579788,-0.07907777449861168
1783169885626943700,6.74894384765625,0.0662464961066842,0.05888941134214401,-0.11622286194656044
1783169885637013800,6.759013671875,0.03174421478509903,0.0598006809681654,-0.12356146120633929
1783169885647082800,6.769082763671875,0.02030249105542898,0.034007483541965484,-0.07823321343325078
1783169885657152800,6.77915283203125,0.019796002838015556,0.04238777387440204,-0.0512561034521088
1783169885667221800,6.7892216796875,0.008087444865703583,0.06887129165232181,-0.07058693646378815
1783169885677291800,6.799291748046875,0.0314773805424571,0.061876318198442457,-0.0483660445664078
1783169885687360800,6.80936083984375,0.02960954084396362,0.033111996006965634,-0.04214877748675644
1783169885697430800,6.8194306640625,-0.048860184758901595,0.02607785958647728,-0.04161130960918963
1783169885707499800,6.829499755859375,-0.007589432215690612,0.03153787855803966,-0.03334861777443439
1783169885717569800,6.83956982421875,-0.03677636373341083,0.051319268348813056,-0.06915843803063035
1783169885727638800,6.849638671875,0.012202478969097137,0.06239595815837383,-0.07984444802217185
1783169885737708800,6.859708740234375,0.08691782047450541,0.06595628098845481,-0.06876333776582032
1783169885747777800,6.86977783203125,0.08785217871516943,0.07954056970477104,-0.12740187961943447
1783169885757847800,6.879847900390625,0.07657412111461162,0.06442074198424816,-0.09358005484268068
1783169885767916800,6.889916748046875,0.05580722741782665,0.01613455772101879,-0.08482446492444723
1783169885777986800,6.89998681640625,0.03482815227508545,-0.0035071313381195065,-0.04300068160835653
1783169885788055600,6.9100556640625,0.06674713910520076,-0.021680501410365104,-0.0325743819989264
1783169885798125800,6.920125732421875,0.05654693986922502,-0.004153028026223182,-0.019005217786505817
1783169885808194600,6.930194580078125,0.048183892932534216,0.02037877116203308,0.005425203386507928
1783169885818264800,6.940264892578125,0.04824935938417911,0.05726560953259468,0.05233622683901339
1783169885828333800,6.950333740234375,0.03012859628200531,0.0715641839981079,0.035264936257153746
1783169885838403600,6.960403564453125,0.015222703573107718,0.06405833841264248,-0.006946677332744002
1783169885848472800,6.970472900390625,0.007324059277772903,0.09089081575870514,-0.0898132131224498
1783169885858541800,6.980541748046875,0.043510932685434815,0.07847498629987239,-0.08560911249611526
1783169885868611800,6.99061181640625,0.035792905654013156,0.06063304013907909,-0.10333795367125422
1783169885878681600,7.000681640625,-0.02140928325355053,0.06376315485835075,-0.13125848198235035
1783169885888750800,7.010750732421875,-0.06128741239458322,0.06007540625631809,-0.13356003692299126
1783169885898819600,7.020819580078125,-0.02212473804652691,0.02138356429040432,-0.12036693948134779
1783169885908889900,7.030889892578125,0.00210837045609951,0.01593406671285629,-0.074697221326828
1783169885918958800,7.040958740234375,-0.010417349117994308,0.019454057532548905,-0.08062029123287648
1783169885929028900,7.05102880859375,0.004985679458081722,0.04627776705026626,-0.056711884639970955
1783169885939097900,7.061097900390625,0.01484276434481144,0.06264028830826282,-0.05026745774094015
1783169885949167900,7.07116796875,0.052123570469021795,0.06623334436416625,-0.044553464008308945
1783169885959236900,7.08123681640625,0.06193652395308017,0.051315761217474935,-0.057571241415664554
1783169885969307000,7.091306884765625,0.09510755667090415,0.030290508845448493,-0.01961436266079545
1783169885979375900,7.1013759765625,0.08143354384452105,0.028047698354721068,-0.027441183828935026
1783169885989446000,7.11144580078125,0.023940847557783126,0.0450824197858572,-0.04743303803261369
1783169885999515000,7.121514892578125,0.03169394590258598,0.02165361340343952,-0.045951384640112516
1783169886009585000,7.1315849609375,0.049775253777205944,0.022930209210515022,-0.028219803518615662
1783169886019654000,7.14165380859375,0.04328033879995346,0.020640052446722984,-0.020767478218674657
1783169886029724000,7.151723876953125,0.010069850854575634,0.02868774982392788,-0.025184016019292176
1783169886039793000,7.16179296875,0.03933452378362417,0.047559623554348944,-0.024342341030761598
1783169886049863000,7.17186279296875,0.032898645517230034,0.0554565142840147,-0.017142748382873833
1783169886059932000,7.181931884765625,0.0383680168390274,0.08278641975820064,-0.06417418334465473
1783169886070002000,7.192001953125,0.035436931823194025,0.057144613501429554,-0.06418700629360974
1783169886080071000,7.20207080078125,0.01317044721841812,0.0571294159322977,-0.08135591203104704
1783169886090141000,7.212140869140625,0.028291443982720373,0.040833530169725414,-0.0844407993691042
1783169886100210000,7.2222099609375,0.034920214472711084,0.0046831893801689145,-0.06828044961970299
1783169886110279700,7.23227978515625,0.002982522942125797,0.049987142962217325,-0.06306797566842287
1783169886120349000,7.242348876953125,-0.0001578209102153778,0.07561550521552562,-0.0800830790836364
1783169886130418700,7.252418701171875,0.017430150489509105,0.05530161598324775,-0.04572079075463116
1783169886140488000,7.262488037109375,0.043132454761862754,0.03225800952613354,-0.037283290342241523
1783169886150558000,7.272557861328125,0.04845978726446628,0.033113749572634694,-0.013277049398049712
1783169886160627000,7.282626953125,0.06357143167853355,0.047613399568200106,-0.0159834222799167
1783169886170697000,7.292697021484375,0.06024433308243751,0.08224515248835086,-0.04532810164261609
1783169886180766000,7.302765869140625,0.06551730504930019,0.07673428011238574,-0.044018041957356036
1783169886190836000,7.3128359375,0.04234510377645492,0.06969254490733147,-0.08493950613886117
1783169886200905000,7.322905029296875,0.06574585310816765,0.012045827102661132,-0.07900036188084632
1783169886210975000,7.33297509765625,0.06734101334512234,-0.020747604474425314,-0.08832907551191746
1783169886221043700,7.343043701171875,0.026278935116529463,-0.02715396438539028,-0.0373081325225532
1783169886231114000,7.353114013671875,0.05577770906239748,0.011932429856061934,-0.0034917511058971283
1783169886241182700,7.3631826171875,0.07047346615195274,0.09257482332289219,-0.05396291472539305
1783169886251253000,7.3732529296875,0.09242050954401493,0.08520984751284122,0.03621350568626076
1783169886261321700,7.38332177734375,0.16143384001553057,0.149912913569808,0.09581457242909819
1783169886271391700,7.393391845703125,0.05316548073738813,0.10616671082377434,0.0027065920775756237
1783169886281460700,7.403460693359375,0.014371931962668895,0.07313537883758545,-0.06072875559851527
1783169886291530800,7.41353076171875,0.07215776597708463,0.047347442108392715,-0.10505922450590878
1783169886301600000,7.42360009765625,0.0391065602466464,0.017646715849637985,-0.06968732074294239
1783169886311669800,7.433669677734375,0.02387918049842119,-0.008434650868177414,-0.05323986114785075
1783169886321739000,7.443739013671875,0.0005500350981950759,0.02825637266933918,-0.12604352381303904
1783169886331808800,7.453808837890625,-0.003171615773439407,0.005473462975025177,-0.11753156992495059
1783169886341878000,7.4638779296875,-0.0003755553141236305,0.0009130231916904449,-0.035676037808693946
1783169886351947800,7.47394775390625,0.0728495476335287,0.02816226464509964,-0.0966011562295258
1783169886362017000,7.48401708984375,-0.06694616880863904,-0.004625321713089943,0.027015067371353504
1783169886372086800,7.494086669921875,0.08719634515494108,0.07107961535155773,-0.05190178094450384
1783169886382155800,7.50415576171875,0.1155488716751337,0.09954057068228721,-0.023329656856879592
1783169886392226000,7.51422607421875,0.11324936256110668,0.026867548659443855,-0.014762684845924377
1783169886402294800,7.524294677734375,0.05760404770672321,0.00907528685927391,-0.04524301717504859
1783169886412365000,7.534364990234375,0.009807108265161514,0.01664484533071518,-0.026116876422613858
1783169886422433800,7.544433837890625,0.04760404721796512,0.016489362508058547,-0.02023998374585062
1783169886432504000,7.554504150390625,0.025793197426199913,0.03883738791644573,-0.06721946932468563
1783169886442572800,7.56457275390625,0.019613047486543654,0.02100713219344616,-0.0853825371986255
1783169886452642800,7.574642822265625,0.045348669506609436,0.015295184287428855,-0.05356949496101588
1783169886462711800,7.5847119140625,0.002049041484296322,0.05383680412769317,-0.11042268776781856
1783169886472781800,7.59478173828125,-0.00980243209004402,0.033552140989899636,-0.12321096726823598
1783169886482850800,7.604850830078125,0.05453472326397896,0.04916355161964893,-0.08422912937980145
1783169886492920800,7.6149208984375,0.05678922419250011,0.03061433397233486,-0.0759333389930427
1783169886502989800,7.62498974609375,-0.00068710548132658,0.0022948329389095305,-0.042082653447985646
1783169886513059800,7.635059814453125,0.0026093057155609127,0.004105681753158569,-0.052360119171254334
1783169886523129000,7.645129150390625,0.02064326731711626,0.0001204115092754364,-0.07383961811680347
1783169886533197800,7.65519775390625,0.025942542769014833,0.051883331972360607,-0.033480500525794925
1783169886543267800,7.665267822265625,-0.011533493666350841,0.0775029263973236,-0.04411057907901704
1783169886553337900,7.675337890625,-0.003129530197381973,0.0604758037507534,-0.006532105182483792
1783169886563406800,7.68540673828125,-0.003083352968096733,0.054394438010454176,0.005098419117555022
1783169886573475800,7.695475830078125,0.004678805465996265,0.05505962392091751,-0.04135006485711783
1783169886583545900,7.7055458984375,0.046209670250117775,0.04789864625036716,-0.042221842722967265
1783169886593614800,7.71561474609375,0.05060410581678152,0.027226445099711418,-0.02315331390928477
1783169886603684900,7.725684814453125,0.07292495095729827,0.05025310042202472,-0.06177610922697931
1783169886613753900,7.73575390625,0.031793314623832704,0.06525017854571342,-0.0775473865935579
1783169886623824000,7.745823974609375,0.0407449751034379,0.005720715734362602,-0.06507288575004785
1783169886633892900,7.755892822265625,0.04743570491373539,0.00360240840613842,0.006358246452920139
1783169886643963000,7.765962890625,0.04317366355508566,0.007106032612919807,-0.028625205981731412
1783169886654032000,7.776031982421875,0.06910451588630676,0.03501286119222641,-0.028736557401716708
1783169886664102000,7.786101806640625,0.04665244558155537,0.04181728051006794,-0.06470836328659206
1783169886674171000,7.7961708984375,0.025010230354964733,0.03388648751080036,-0.05246737893801182
1783169886684241000,7.806240966796875,0.020120704747736452,0.040488662254810334,-0.03345551221501082
1783169886694310000,7.816309814453125,0.031361937469244004,0.047775896653532976,-0.02375043955221772
1783169886704380000,7.8263798828125,0.012227321149408816,0.04557984791398048,-0.05012209445349872
1783169886714449000,7.836448974609375,0.028534020566940307,0.06323240898251534,-0.01847812517248094
1783169886724518700,7.8465185546875,0.014043138399720191,0.05991115560531616,-0.047816667055338616
1783169886734588000,7.856587890625,0.030766601924598215,0.023562077373266217,-0.028837752753868698
1783169886744658000,7.866657958984375,0.04961684834510088,0.03013151889145374,-0.05138378495238721
1783169886754727000,7.876726806640625,0.03949409825950861,0.019609540355205533,-0.061343964887410396
1783169886764797000,7.886796875,0.03619973288923502,0.024265841728448867,-0.03414031614139676
1783169886774866000,7.896865966796875,0.011431494596600532,0.05033201087713241,-0.034466040964424606
1783169886784936000,7.90693603515625,-0.020631284618377686,0.03755728497803211,-0.03739369191415608
1783169886795005000,7.9170048828125,0.028991116684675217,0.04319441408216953,0.012695596248283982
1783169886805075000,7.927074951171875,0.04017652756571769,0.04438391612768173,-0.01389927294962108
1783169886815144000,7.93714404296875,0.039863516093790526,0.05249707995653152,-0.03425663599744439
1783169886825214000,7.9472138671875,0.01972527568936348,0.05109364289939403,-0.03575732288397848
1783169886835282700,7.95728271484375,0.02202010862827301,0.0375227981865406,-0.05362425735555589
1783169886845353000,7.96735302734375,0.06204115337133407,0.033524668461084366,-0.06417582731246949
1783169886855421700,7.977421630859375,0.04458119226545095,0.030285832670331,-0.05229658894836902
1783169886865492000,7.987491943359375,0.014629998376965521,0.014995909079909324,-0.005004603354260325
1783169886875561000,7.99756103515625,-0.009745733466744422,0.0006985036581754684,0.03636135319173336
1783169886885630700,8.007630615234374,-0.006366320161521434,0.024018004447221755,0.017692966144159435
1783169886895700000,8.017699951171876,0.010498013138771056,0.028399580532312393,-0.014731705185770988
1783169886905769700,8.027769775390626,0.061570320989191525,0.046592239826917646,-0.038668899481743575
1783169886915838200,8.037838134765625,0.03858253637254238,0.0648936201930046,-0.09641630118191241
1783169886925908200,8.047908203125,0.07455839737802744,0.04777238952219486,-0.068518898018077
1783169886935977200,8.057977294921875,0.031029636774957178,0.03972878379821777,-0.07079758353978395
1783169886946047200,8.068047119140624,0.013101473635435103,-0.008586626559495925,-0.03005589637197554
1783169886956116200,8.0781162109375,0.04708703760653734,-0.002094341930747032,0.026990079060569404
1783169886966186200,8.088186279296876,0.0238286193549633,0.04272328943908214,-0.010269611210376024
1783169886976255500,8.09825537109375,0.030957448321580885,0.07796820582151412,0.0023640987828373906
1783169886986325200,8.1083251953125,0.043022856907546515,0.07571428941488266,0.0520183199962601
1783169886996394500,8.11839453125,0.017893968608975408,0.06716624130010604,0.014144224154017865
1783169887006464300,8.12846435546875,-0.00020019874721765516,0.043889995130896566,0.05026928437184542
1783169887016533200,8.138533203125,0.0035191140368580815,0.07749065143764018,-0.015107516228221356
1783169887026603300,8.148603271484374,0.036436464254558085,0.07239946577847003,-0.040304136000759896
1783169887036672300,8.15867236328125,0.07517828284204006,0.05265782347619533,-0.0605892009973526
1783169887046742300,8.1687421875,0.0373985872849822,0.07629355060756206,-0.126340168672055
1783169887056811300,8.178811279296875,0.016022329518198965,0.09056757515370845,-0.06289440919980406
1783169887066881300,8.18888134765625,0.036547231152653695,0.06569266161620617,-0.12546305704396218
1783169887076950300,8.1989501953125,0.04044423859119415,-0.0008972411006689071,-0.05047883546929806
1783169887087020300,8.209020263671874,-0.03598316752910614,0.039676176828145976,0.02088409033566713
1783169887097089300,8.21908935546875,-0.061139820617437356,0.04595101931393146,-0.03711651894059032
1783169887107159300,8.2291591796875,-0.06531535273641348,0.04552139572501182,0.03812894738614559
1783169887117228300,8.239228271484375,-0.057171209247410294,0.07321195120513439,0.017505699943751094
1783169887127298300,8.24929833984375,0.013612345767021179,0.030923546051979063,-0.01563113824352622
1783169887137367300,8.2593671875,0.01705517969727516,0.03945055137872696,-0.018743388512544333
1783169887147437300,8.269437255859375,0.04247486763596534,0.035225627160072326,-0.07924421710669993
1783169887157506300,8.27950634765625,0.10423720406591892,0.006543138033151626,-0.07799085604473947
1783169887167576300,8.289576416015626,0.08381839315444231,0.019621230792999267,-0.022327567142248154
1783169887177645300,8.299645263671875,0.019265841484069825,0.04130699290037155,-0.0028402649272233245
1783169887187714300,8.30971435546875,-0.00942863034158945,0.047891631987690926,0.02840812916494906
1783169887197784000,8.3197841796875,-0.024644027391076087,0.09330547568500042,0.01625423857793212
1783169887207853300,8.329853271484374,-0.000374094009399414,0.08473755382597446,-0.03751834120713174
1783169887217923300,8.33992333984375,-0.022427520385384557,0.06999474272429942,-0.030250030704587698
1783169887227992300,8.349992431640626,-0.014431260934472083,0.08231412607133388,-0.0437349506996572
1783169887238062300,8.360062255859376,0.00981032313555479,0.0694032065719366,-0.01064487426355481
1783169887248131300,8.37013134765625,0.007836684975028037,0.04498772723972797,-0.027795477159321305
1783169887258201300,8.380201416015625,0.02102145297974348,0.048020811325311656,0.000768061763048172
1783169887268270300,8.390270263671875,0.034193361502885815,0.05070902749598026,-0.035530309195071455
1783169887278340400,8.40034033203125,0.007915303169190884,0.07727028668522834,-0.07381875799186527
1783169887288409300,8.410409423828124,-0.022151041531562804,0.05596563284993172,-0.061647989335283634
1783169887298479400,8.420479248046876,0.027040567138791084,0.054501990038156506,-0.02469210431650281
1783169887308548000,8.430548095703125,-0.004155658374726772,0.06309153920710087,0.026137553884461522
1783169887318618400,8.440618408203125,-0.001312251642346382,0.12274141352772712,0.047359351741895074
1783169887328687000,8.45068701171875,-0.02295037521570921,0.09531564646363258,0.032942703854665155
1783169887338757400,8.46075732421875,-0.04910743751823902,0.085986092582345,0.001299830552190542
1783169887348826400,8.470826416015624,0.013581073845922945,0.014451719200611113,-0.03174194976277649
1783169887358896000,8.480896240234374,-0.06484773522466421,-0.06002104572057724,0.031077348374202847
1783169887368965400,8.49096533203125,0.027419045062363145,0.0055693245649337765,-0.09613185821734369
1783169887379035100,8.50103515625,0.073259297478199,0.08553425716161728,-0.16941059104837478
1783169887389104400,8.5111044921875,-0.025660218696296214,0.016752981880307195,-0.06906812939867377
1783169887399174100,8.521174072265625,-0.03702010936141014,0.02262450426220894,-0.06391841848529875
1783169887409243400,8.531243408203125,-0.03402005076259374,0.027723288705945013,-0.06768383543342352
1783169887419313200,8.541313232421874,-0.05008446585685014,0.014991232904791832,-0.08191489762067794
1783169887429382400,8.55138232421875,-0.11049509541690349,0.013573767322301864,0.017209420410916207
1783169887439452400,8.561452392578126,-0.17594401140511035,-0.004434767577052116,-0.006024886312708258
