time,seconds_elapsed,z,y,x
1783169878950866200,0.0728662109375,0.36836376786231995,0.5000959038734436,0.1991940438747406
1783169878960935400,0.082935302734375,0.3389204144477844,0.5246294736862183,0.1836845874786377
1783169878971005200,0.093005126953125,0.29095223546028137,0.5075186491012573,0.12462376803159714
1783169878981074400,0.103074462890625,0.24498610198497772,0.5011233687400818,0.10677499324083328
1783169878991144200,0.113144287109375,0.19875681400299072,0.49106088280677795,0.09209991246461868
1783169879001213400,0.12321337890625,0.16005922853946686,0.5007803440093994,0.06454498320817947
1783169879011283500,0.133283447265625,0.13867421448230743,0.4974125325679779,0.042141858488321304
1783169879021352200,0.143352294921875,0.13487547636032104,0.5070347785949707,0.03699396550655365
1783169879031422500,0.15342236328125,0.14053089916706085,0.49769800901412964,0.053830716758966446
1783169879041491200,0.1634912109375,0.15100830793380737,0.4881974458694458,0.1015511080622673
1783169879051561500,0.1735615234375,0.17816415429115295,0.4527084529399872,0.1490803211927414
1783169879061630200,0.183630126953125,0.2144598364830017,0.38921815156936646,0.17766429483890533
1783169879071700200,0.1937001953125,0.2657058537006378,0.3176267743110657,0.20072776079177856
1783169879081769200,0.203769287109375,0.3029181957244873,0.29896974563598633,0.22893409430980682
1783169879091839200,0.213839111328125,0.3199527859687805,0.3179554343223572,0.2649661898612976
1783169879101908200,0.223908203125,0.3171306252479553,0.3572719693183899,0.28798574209213257
1783169879111978200,0.233978271484375,0.28441181778907776,0.40800169110298157,0.28103214502334595
1783169879122047200,0.244047119140625,0.23534469306468964,0.4525561034679413,0.25114136934280396
1783169879132117200,0.2541171875,0.19587776064872742,0.4943057894706726,0.2197614312171936
1783169879142186500,0.2641865234375,0.1835704892873764,0.5053701996803284,0.19865266978740692
1783169879152256300,0.27425634765625,0.2008533775806427,0.4711914360523224,0.2156112939119339
1783169879162325500,0.284325439453125,0.2231951653957367,0.4322836995124817,0.25829216837882996
1783169879172395300,0.294395263671875,0.2380688488483429,0.4195684790611267,0.29626813530921936
1783169879182464300,0.30446435546875,0.22785988450050354,0.4288165867328644,0.30431511998176575
1783169879192534300,0.3145341796875,0.19541604816913605,0.42546510696411133,0.27599748969078064
1783169879202603300,0.324603271484375,0.14416271448135376,0.4321512281894684,0.22991015017032623
1783169879212673300,0.33467333984375,0.07825332880020142,0.45372453331947327,0.19580760598182678
1783169879222742300,0.3447421875,0.027858061715960503,0.4677692651748657,0.166614830493927
1783169879232812300,0.354812255859375,0.025901464745402336,0.4327865540981293,0.12975770235061646
1783169879242881300,0.36488134765625,0.05485961213707924,0.3535687029361725,0.10117080807685852
1783169879252951300,0.374951416015625,0.08391951024532318,0.2705889642238617,0.09397666156291962
1783169879263020300,0.385020263671875,0.09028340876102448,0.2075628638267517,0.10303247720003128
1783169879273090300,0.39509033203125,0.07475785911083221,0.1909715235233307,0.08877841383218765
1783169879283159300,0.4051591796875,0.04607774317264557,0.20216131210327148,0.04091528803110123
1783169879293229300,0.415229248046875,0.01636246033012867,0.2521602511405945,-0.010819632560014725
1783169879303298300,0.42529833984375,-0.03298058733344078,0.33515873551368713,-0.049166489392519
1783169879313368300,0.435368408203125,-0.09396106749773026,0.37726640701293945,-0.0854402557015419
1783169879323437300,0.445437255859375,-0.1425485759973526,0.3135111331939697,-0.12109305709600449
1783169879333507300,0.45550732421875,-0.1508837342262268,0.19774669408798218,-0.13885606825351715
1783169879343576300,0.465576416015625,-0.12709425389766693,0.07173018157482147,-0.1266617327928543
1783169879353646300,0.475646240234375,-0.09720176458358765,0.01428198628127575,-0.09112219512462616
1783169879363715300,0.48571533203125,-0.08686923235654831,0.03457207977771759,-0.07667800784111023
1783169879373785300,0.495785400390625,-0.09019317477941513,0.06995771825313568,-0.10286443680524826
1783169879383854300,0.505854248046875,-0.11113201081752777,0.10140299052000046,-0.1389145851135254
1783169879393924400,0.51592431640625,-0.1445426493883133,0.13689455389976501,-0.17293398082256317
1783169879403993300,0.525993408203125,-0.16649295389652252,0.1399390697479248,-0.19048234820365906
1783169879414063000,0.53606298828125,-0.17124474048614502,0.13273999094963074,-0.19711993634700775
1783169879424132400,0.54613232421875,-0.17364317178726196,0.1006997674703598,-0.19469992816448212
1783169879434202000,0.5562021484375,-0.1608804166316986,0.05794965475797653,-0.18612703680992126
1783169879444271400,0.566271240234375,-0.15193405747413635,0.07719258964061737,-0.16739250719547272
1783169879454341400,0.57634130859375,-0.12960371375083923,0.08483985811471939,-0.1788821816444397
1783169879464410400,0.586410400390625,-0.09217938035726547,0.08360441774129868,-0.21118339896202087
1783169879474480400,0.59648046875,-0.04633071646094322,0.06973670423030853,-0.24041877686977386
1783169879484549400,0.60654931640625,-0.0009709615260362625,0.03421492874622345,-0.22092950344085693
1783169879494619400,0.616619384765625,0.034486234188079834,0.05468636378645897,-0.15846243500709534
1783169879504688400,0.6266884765625,0.023182712495326996,0.1456303894519806,-0.11643588542938232
1783169879514758400,0.63675830078125,-0.014292024075984955,0.23280496895313263,-0.11637544631958008
1783169879524827100,0.6468271484375,-0.055091649293899536,0.2706122398376465,-0.15723632276058197
1783169879534897400,0.6568974609375,-0.08064904063940048,0.22082285583019257,-0.17831754684448242
1783169879544966100,0.666966064453125,-0.07826204597949982,0.1357865184545517,-0.15832626819610596
1783169879555036400,0.677036376953125,-0.07868602871894836,0.07127760350704193,-0.07520332932472229
1783169879565105200,0.687105224609375,-0.0686618909239769,0.04228749871253967,0.003631832078099251
1783169879575175200,0.697175048828125,-0.0501718632876873,0.013288598507642746,0.03875665366649628
1783169879585244200,0.707244140625,-0.05439110845327377,-0.023906975984573364,0.034705985337495804
1783169879595314200,0.717314208984375,-0.07416486740112305,-0.03694142401218414,0.037208206951618195
1783169879605383400,0.727383544921875,-0.10924375802278519,-0.03541037067770958,0.060202740132808685
1783169879615453200,0.737453125,-0.13993167877197266,-0.017834316939115524,0.07707437872886658
1783169879625522400,0.7475224609375,-0.15401208400726318,-0.00523410364985466,0.07391586899757385
1783169879635592200,0.75759228515625,-0.15052127838134766,-0.0165682602673769,0.08583348989486694
1783169879645661400,0.767661376953125,-0.13051268458366394,-0.05827629193663597,0.1320502609014511
1783169879655731200,0.777731201171875,-0.12457188218832016,-0.09656933695077896,0.1637774556875229
1783169879665800400,0.787800537109375,-0.12241552025079727,-0.10515749454498291,0.15186354517936707
1783169879675870200,0.7978701171875,-0.10683813691139221,-0.08681616932153702,0.12445582449436188
1783169879685939200,0.807939208984375,-0.07773591578006744,-0.0710262879729271,0.097044438123703
1783169879696009500,0.818009521484375,-0.04727354273200035,-0.07561543583869934,0.08861742168664932
1783169879706078200,0.828078125,-0.025826042518019676,-0.10871294140815735,0.10332579165697098
1783169879716148500,0.8381484375,-0.02541566640138626,-0.14679494500160217,0.14205966889858246
1783169879726217200,0.84821728515625,-0.02909242734313011,-0.16017121076583862,0.16762813925743103
1783169879736287200,0.858287353515625,-0.02153780125081539,-0.16413135826587677,0.15520215034484863
1783169879746356200,0.868356201171875,-0.0011273343116044998,-0.19484399259090424,0.12203221768140793
1783169879756426200,0.87842626953125,0.01219366304576397,-0.21181230247020721,0.10249558091163635
1783169879766495200,0.8884951171875,0.022217001765966415,-0.20384173095226288,0.09168607741594315
1783169879776565200,0.898565185546875,0.02537975087761879,-0.18632063269615173,0.09304976463317871
1783169879786634200,0.90863427734375,0.010082552209496498,-0.15073947608470917,0.07807054370641708
1783169879796704300,0.918704345703125,-0.008884577080607414,-0.12268414348363876,0.04864804446697235
1783169879806773200,0.928773193359375,-0.019794216379523277,-0.11177343875169754,0.006718435790389776
1783169879816843300,0.93884326171875,-0.022757261991500854,-0.10813546925783157,-0.018371498212218285
1783169879826912500,0.94891259765625,-0.03013581596314907,-0.10130845755338669,-0.017001036554574966
1783169879836982300,0.958982177734375,-0.036169204860925674,-0.09842931479215622,-0.03294005244970322
1783169879847051300,0.96905126953125,-0.03891891986131668,-0.12174396216869354,-0.052118539810180664
1783169879857121300,0.979121337890625,-0.02406533993780613,-0.1513977199792862,-0.06521434336900711
1783169879867190300,0.989190185546875,-0.011727182194590569,-0.17456136643886566,-0.06721410900354385
1783169879877260300,0.99926025390625,-0.03358149528503418,-0.1748371571302414,-0.0401633083820343
1783169879887329300,1.009329345703125,-0.07712684571743011,-0.1681627333164215,-0.026869608089327812
1783169879897399300,1.0193994140625,-0.12285105139017105,-0.14563050866127014,-0.04087139666080475
1783169879907468300,1.02946826171875,-0.1389448046684265,-0.12039466202259064,-0.0635780394077301
1783169879917538000,1.0395380859375,-0.1316365897655487,-0.10358452796936035,-0.07704179733991623
1783169879927607300,1.049607177734375,-0.1217741072177887,-0.09893118590116501,-0.08318810164928436
1783169879937677000,1.059677001953125,-0.10734865069389343,-0.09225474298000336,-0.08561784774065018
1783169879947746300,1.069746337890625,-0.10838808119297028,-0.07313618063926697,-0.08329929411411285
1783169879957816300,1.07981640625,-0.11669084429740906,-0.050860445946455,-0.07565246522426605
1783169879967885300,1.08988525390625,-0.12078758329153061,-0.023364108055830002,-0.06833809614181519
1783169879977955300,1.099955322265625,-0.12797611951828003,-0.002483043819665909,-0.06880249828100204
1783169879988024300,1.1100244140625,-0.12756305932998657,0.008480924181640148,-0.06139944866299629
1783169879998094300,1.12009423828125,-0.12837976217269897,0.01772979274392128,-0.053328659385442734
1783169880008163300,1.130163330078125,-0.11767997592687607,0.017943911254405975,-0.04066053777933121
1783169880018233300,1.1402333984375,-0.09273552894592285,0.0010151206515729427,-0.0206014234572649
1783169880028302000,1.150302001953125,-0.04084277153015137,-0.03257639333605766,0.0039659710600972176
1783169880038372400,1.160372314453125,0.004272971302270889,-0.05615945905447006,0.026033256202936172
1783169880048441000,1.170441162109375,0.038170214742422104,-0.057561345398426056,0.03601079061627388
1783169880058511400,1.180511474609375,0.05953005328774452,-0.05318325012922287,0.03874071314930916
1783169880068580000,1.190580078125,0.0544133223593235,-0.04439135640859604,0.057740770280361176
1783169880078650000,1.200650146484375,0.04353126138448715,-0.04213234409689903,0.07539208978414536
1783169880088719400,1.21071923828125,0.01801125705242157,-0.04283914715051651,0.08050988614559174
1783169880098789000,1.2207890625,-0.00910972896963358,-0.040505535900592804,0.07843566685914993
1783169880108858400,1.2308583984375,-0.032286420464515686,-0.021486572921276093,0.06525728106498718
1783169880118928100,1.24092822265625,-0.04920418560504913,-0.002718214876949787,0.05975370854139328
1783169880128997400,1.250997314453125,-0.05367163568735123,-0.00035838782787323,0.05421939492225647
1783169880139067100,1.261067138671875,-0.049950700253248215,-0.010745254345238209,0.04901383817195892
1783169880149136400,1.271136474609375,-0.0479554608464241,-0.005519066005945206,0.044386327266693115
1783169880159206100,1.2812060546875,-0.050581417977809906,-0.0029966654255986214,0.027751995250582695
1783169880169275400,1.291275390625,-0.04072745516896248,0.016791952773928642,0.016729703173041344
1783169880179345400,1.301345458984375,-0.03609815612435341,0.029280610382556915,0.011592798866331577
1783169880189414100,1.3114140625,-0.03537936881184578,0.03886346146464348,0.005738105624914169
1783169880199484400,1.321484375,-0.038201283663511276,0.04128933325409889,-0.005961570888757706
1783169880209553200,1.33155322265625,-0.02962963469326496,0.03290756419301033,-0.012509484775364399
1783169880219623400,1.34162353515625,-0.005082078743726015,0.022780075669288635,-0.014461359940469265
1783169880229692200,1.351692138671875,0.011020724661648273,0.01673496700823307,0.01051349751651287
1783169880239762400,1.361762451171875,0.0034848107025027275,0.010736466385424137,0.019622186198830605
1783169880249831200,1.3718310546875,-0.014460633508861065,0.013505887240171432,0.023424912244081497
1783169880259901200,1.381901123046875,-0.033625174313783646,0.03007369488477707,0.018822073936462402
1783169880269970200,1.39197021484375,-0.03198013827204704,0.05223625525832176,-0.0011748047545552254
1783169880280040200,1.402040283203125,-0.021167058497667313,0.06517697125673294,-0.028393007814884186
1783169880290109200,1.412109130859375,-0.023464567959308624,0.0676739513874054,-0.028887823224067688
1783169880300179200,1.42217919921875,-0.026679717004299164,0.049091584980487823,-0.021883834153413773
1783169880310248400,1.43224853515625,-0.03146648406982422,0.03305988758802414,-0.0226548183709383
1783169880320318200,1.442318115234375,-0.03281370922923088,0.022632556036114693,-0.03172179311513901
1783169880330387500,1.452387451171875,-0.026424787938594818,0.021601911634206772,-0.028883129358291626
1783169880340457200,1.462457275390625,-0.02055702731013298,0.036884598433971405,-0.03508489578962326
1783169880350526200,1.472526123046875,-0.021601784974336624,0.03514954820275307,-0.02382771484553814
1783169880360596200,1.48259619140625,-0.03317120671272278,0.022716164588928223,-0.011972492560744286
1783169880370665200,1.492665283203125,-0.04328029975295067,0.00669485330581665,-0.008178818970918655
1783169880380735200,1.5027353515625,-0.05448353290557861,-0.013163155876100063,0.0021336316131055355
1783169880390804200,1.51280419921875,-0.0640578642487526,-0.01440392341464758,0.001072894548997283
1783169880400874200,1.522874267578125,-0.057126786559820175,-0.0026028957217931747,-0.010383421555161476
1783169880410943200,1.532943115234375,-0.03551656752824783,0.005460890009999275,-0.023551689460873604
1783169880421013200,1.54301318359375,-0.014109432697296143,0.010163649916648865,-0.028547676280140877
1783169880431082200,1.553082275390625,-0.0143967866897583,0.013793538324534893,-0.02712501585483551
1783169880441152300,1.56315234375,-0.030611125752329826,0.014489790424704552,-0.021884983405470848
1783169880451221200,1.57322119140625,-0.04328218102455139,0.008355732075870037,-0.02693966217339039
1783169880461291300,1.583291259765625,-0.044862329959869385,-0.011386294849216938,-0.027517737820744514
1783169880471360300,1.5933603515625,-0.03892694413661957,-0.018494270741939545,-0.01666588895022869
1783169880481430300,1.60343017578125,-0.040678590536117554,-0.020101064816117287,0.004501578398048878
1783169880491499300,1.613499267578125,-0.04722144454717636,-0.00994696281850338,0.01041113305836916
1783169880501569300,1.6235693359375,-0.053129665553569794,0.0007480252534151077,0.003012605244293809
1783169880511638300,1.63363818359375,-0.042252250015735626,0.01623617112636566,-0.005275950767099857
1783169880521708300,1.643708251953125,-0.03695011883974075,0.023097945377230644,-0.0028385433834046125
1783169880531777000,1.653777099609375,-0.03576607257127762,0.017672287300229073,0.0002179667353630066
1783169880541847300,1.663847412109375,-0.04733159765601158,0.011688001453876495,-0.0026268293149769306
1783169880551916300,1.673916259765625,-0.05610697716474533,0.006976069882512093,-0.00817712303251028
1783169880561986300,1.683986328125,-0.04776167869567871,0.005889369174838066,0.0016131284646689892
1783169880572055300,1.69405517578125,-0.03363494202494621,-0.0006364407017827034,0.004355651792138815
1783169880582125300,1.704125244140625,-0.023775871843099594,0.0011597354896366596,0.0036177742294967175
1783169880592194300,1.7141943359375,-0.02199714630842209,-0.003375893458724022,0.007681758143007755
1783169880602264000,1.72426416015625,-0.025295689702033997,-0.011040330864489079,0.010512782260775566
1783169880612333300,1.734333251953125,-0.029664073139429092,-0.014551176689565182,0.009974025189876556
1783169880622403000,1.744403076171875,-0.02127436362206936,-0.013314810581505299,0.009029850363731384
1783169880632472300,1.754472412109375,-0.03176721930503845,-0.015087145380675793,0.02802298218011856
1783169880642542300,1.764542236328125,-0.03179085627198219,-0.014055958949029446,0.02741793543100357
1783169880652611300,1.774611328125,-0.022711340337991714,-0.011036201380193233,0.010848013684153557
1783169880662681300,1.784681396484375,-0.011805696412920952,-0.002567881718277931,-0.0036371860187500715
1783169880672750300,1.794750244140625,-0.00586338434368372,0.0036825574934482574,-0.006019650027155876
1783169880682820400,1.8048203125,-0.005124107003211975,0.01562882959842682,-0.01030967477709055
1783169880692889000,1.81488916015625,-0.008725233376026154,0.024576783180236816,-0.021390290930867195
1783169880702958300,1.824958251953125,-0.014278875663876534,0.024953771382570267,-0.026494666934013367
1783169880713028000,1.835028076171875,-0.025222869589924812,0.024981200695037842,-0.03629829362034798
1783169880723098400,1.845098388671875,-0.024717766791582108,0.01627691276371479,-0.04063861444592476
1783169880733167000,1.8551669921875,-0.013636352494359016,-0.00063362717628479,-0.038263607770204544
1783169880743236400,1.865236328125,-0.004368568770587444,-0.0030393972992897034,-0.04312887415289879
1783169880753306000,1.87530615234375,0.00826546736061573,-0.00785732176154852,-0.05175831541419029
1783169880763375400,1.885375244140625,0.01505563035607338,-0.00876867026090622,-0.05352921783924103
1783169880773445400,1.8954453125,0.015535798855125904,-0.00014402251690626144,-0.036906298249959946
1783169880783514400,1.905514404296875,0.016280967742204666,0.007584606297314167,-0.018450655043125153
1783169880793584400,1.91558447265625,0.015254585072398186,0.017648957669734955,-0.011687023565173149
1783169880803653000,1.925653076171875,0.011000066995620728,0.020204149186611176,-0.02556424029171467
1783169880813723400,1.935723388671875,0.004912347067147493,0.02847379818558693,-0.03466000035405159
1783169880823792000,1.945792236328125,-0.004227289929986,0.03698500245809555,-0.023687755689024925
1783169880833862400,1.9558623046875,-0.006669675000011921,0.04157629236578941,-0.033249836415052414
1783169880843931100,1.96593115234375,0.004098251461982727,0.04665280506014824,-0.050213515758514404
1783169880854001400,1.97600146484375,0.011417150497436523,0.04364236816763878,-0.05272940546274185
1783169880864070100,1.986070068359375,0.01620759628713131,0.03337201476097107,-0.04390297085046768
1783169880874140200,1.99614013671875,0.013629123568534851,0.023614458739757538,-0.027195630595088005
1783169880884209200,2.006209228515625,0.006938098929822445,0.021578457206487656,-0.018812967464327812
1783169880894279200,2.016279052734375,-0.0019299613777548075,0.016747750341892242,-0.023692144080996513
1783169880904348400,2.026348388671875,-0.002451027277857065,0.006353049073368311,-0.031198687851428986
1783169880914419200,2.036419189453125,0.0011809919960796833,-0.0029387203976511955,-0.03157499432563782
1783169880924488200,2.04648828125,0.008908955380320549,0.0004338705912232399,-0.030305560678243637
1783169880934558200,2.05655810546875,0.014556454494595528,0.0009478605352342129,-0.02123270183801651
1783169880944627000,2.066626953125,0.0188241358846426,-0.0058128079399466515,-0.02003832347691059
1783169880954697200,2.076697265625,0.007040712516754866,-0.015168759971857071,-0.017180485650897026
1783169880964766000,2.086765869140625,-0.0015976522117853165,-0.017322439700365067,-0.009397354908287525
1783169880974836200,2.096836181640625,-0.002101522171869874,-0.026091162115335464,-0.009658877737820148
1783169880984905200,2.1069052734375,0.0007756588747724891,-0.016844946891069412,-0.00383417634293437
1783169880994975000,2.11697509765625,0.010437075048685074,-0.009074908681213856,-0.006441144738346338
1783169881005044200,2.127044189453125,0.015056195668876171,-0.0061427876353263855,-0.004276839084923267
1783169881015114000,2.137114013671875,0.014913716353476048,-0.004913738928735256,-0.0051666004583239555
1783169881025183200,2.147183349609375,0.010243581607937813,-0.004823327995836735,-0.002793930470943451
1783169881035253000,2.1572529296875,0.0009845690801739693,-0.006301647983491421,0.006774540990591049
1783169881045322200,2.167322265625,-0.000521448440849781,0.00037809228524565697,0.0029478445649147034
1783169881055392000,2.17739208984375,0.0005424843402579427,0.014980204403400421,-0.004285034257918596
1783169881065461200,2.187461181640625,-0.003987839445471764,0.027140099555253983,-0.0007812301628291607
1783169881075531300,2.19753125,-0.012485187500715256,0.04632578045129776,0.008545426651835442
1783169881085600300,2.207600341796875,-0.01287668477743864,0.061623334884643555,-0.004282250069081783
1783169881095670300,2.217670166015625,-0.017008045688271523,0.07426030188798904,-0.01657939702272415
1783169881105739000,2.227739013671875,-0.015433237887918949,0.08073858916759491,-0.028118910267949104
1783169881115809300,2.237809326171875,-0.013195649720728397,0.07744531333446503,-0.029321594163775444
1783169881125878000,2.2478779296875,-0.003169363597407937,0.06999099999666214,-0.028772510588169098
1783169881135948300,2.2579482421875,0.0013657334493473172,0.05079227313399315,-0.02355937287211418
1783169881146017000,2.26801708984375,0.003339917864650488,0.03293271362781525,-0.007470889948308468
1783169881156087000,2.278087158203125,0.0010123151587322354,0.01567862555384636,0.0037676498759537935
1783169881166156000,2.288156005859375,-0.007930714637041092,0.0010826578363776207,0.00667826272547245
1783169881176226000,2.29822607421875,-0.014086877927184105,0.0024773553013801575,0.002171128988265991
1783169881186295000,2.308294921875,-0.02114969491958618,0.0007070018909871578,-0.001099870540201664
1783169881196365000,2.318364990234375,-0.02354414202272892,0.011124488897621632,-0.008223826065659523
1783169881206434300,2.328434326171875,-0.025088908150792122,0.022206149995326996,-0.023569008335471153
1783169881216504000,2.338504150390625,-0.03230447694659233,0.028204388916492462,-0.039949845522642136
1783169881226573300,2.3485732421875,-0.03025336191058159,0.02444283664226532,-0.05152340233325958
1783169881236643000,2.35864306640625,-0.032999079674482346,0.01228683814406395,-0.051111411303281784
1783169881246712300,2.36871240234375,-0.03668208420276642,0.0014979573898017406,-0.04389354959130287
1783169881256782000,2.378781982421875,-0.049238890409469604,-0.0015918426215648651,-0.011099386028945446
1783169881266851000,2.38885107421875,-0.059290871024131775,0.0024898676201701164,0.022760948166251183
1783169881276921000,2.398921142578125,-0.04591807723045349,0.011496411636471748,0.014223653823137283
1783169881286990000,2.408989990234375,-0.030365029349923134,0.01968149095773697,-0.020640281960368156
1783169881297060000,2.41906005859375,-0.021002421155571938,0.02980443462729454,-0.031293727457523346
1783169881307129000,2.429129150390625,-0.019160063937306404,0.03699083626270294,-0.023376353085041046
1783169881317199000,2.43919921875,-0.017301177605986595,0.04231662675738335,-0.01157561969012022
1783169881327268000,2.44926806640625,-0.012681310996413231,0.038409117609262466,-0.01658719591796398
1783169881337338000,2.459338134765625,-0.007233548443764448,0.032935790717601776,-0.021554522216320038
1783169881347407000,2.469406982421875,-0.0041521890088915825,0.024985864758491516,-0.01679336465895176
1783169881357477000,2.47947705078125,0.0017246085917577147,0.020399369299411774,-0.0076744332909584045
1783169881367546000,2.489546142578125,-0.006455573253333569,0.008718341588973999,-0.001799971330910921
1783169881377616100,2.4996162109375,-0.013440778478980064,0.000529121607542038,0.012753671035170555
1783169881387685000,2.50968505859375,-0.010423481464385986,0.007911661639809608,0.0005118970293551683
1783169881397755100,2.519755126953125,-0.0090080127120018,0.01651606895029545,-0.009642203338444233
1783169881407824100,2.52982421875,-0.0033507910557091236,0.009760941378772259,-0.015454331412911415
1783169881417894100,2.53989404296875,0.007250720635056496,0.007543593645095825,-0.01981898583471775
1783169881427963100,2.549963134765625,0.017120080068707466,0.007922953926026821,-0.022653475403785706
1783169881438033200,2.560033203125,0.02249274216592312,0.016863185912370682,-0.015851229429244995
1783169881448102100,2.57010205078125,0.022435832768678665,0.018132593482732773,0.014181469567120075
1783169881458172200,2.580172119140625,0.019003549590706825,-0.00022910255938768387,0.027616849169135094
1783169881468241200,2.5902412109375,0.011230532079935074,0.004610785283148289,0.013832244090735912
1783169881478311200,2.600311279296875,0.011506701819598675,0.016716983169317245,-0.0059278784319758415
1783169881488380200,2.610380126953125,0.010633451864123344,0.02011224627494812,-0.007501007989048958
1783169881498450000,2.620449951171875,0.016528625041246414,0.013949692249298096,-0.006665574386715889
1783169881508519200,2.630519287109375,0.01756281405687332,0.008708735927939415,-0.017436234280467033
1783169881518589000,2.6405888671875,0.010140316560864449,0.008009389974176884,-0.027199914678931236
1783169881528658200,2.650658203125,0.007187952287495136,0.007379421964287758,-0.03133373335003853
1783169881538728200,2.660728271484375,0.002866174792870879,-0.0003051292151212692,-0.017881043255329132
1783169881548797200,2.670797119140625,-0.0017923256382346153,-0.010109838098287582,-0.0006444330792874098
1783169881558867200,2.6808671875,-0.0005888431333005428,-0.022268498316407204,0.011359765194356441
1783169881568936200,2.690936279296875,-0.0002105586463585496,-0.036168720573186874,0.005362967029213905
1783169881579005200,2.701005126953125,-0.003674265928566456,-0.04775959625840187,-0.004688069224357605
1783169881589075200,2.7110751953125,-0.010075288824737072,-0.04817439615726471,-0.005244777537882328
1783169881599145200,2.721145263671875,-0.009776748716831207,-0.05313746631145477,-0.0030905466992408037
1783169881609214000,2.7312138671875,-0.004419369623064995,-0.04495807737112045,0.005668514873832464
1783169881619284200,2.7412841796875,-0.0014976153615862131,-0.03880404308438301,0.016637276858091354
1783169881629353000,2.75135302734375,-0.002056893426924944,-0.03254179283976555,0.009883731603622437
1783169881639423200,2.76142333984375,-0.0015761929098516703,-0.03175802528858185,-0.007905385456979275
1783169881649492000,2.771491943359375,-0.0033928686752915382,-0.03532850369811058,-0.020152414217591286
1783169881659561200,2.781561279296875,-0.004443485755473375,-0.04102900251746178,-0.025260889902710915
1783169881669631200,2.79163134765625,0.000645663938485086,-0.044690169394016266,-0.020255105569958687
1783169881679700200,2.8017001953125,0.0063272519037127495,-0.04356417804956436,-0.010526311583817005
1783169881689770200,2.811770263671875,0.012101003900170326,-0.041068170219659805,-0.008612986654043198
1783169881699839200,2.821839111328125,0.008112121373414993,-0.026460465043783188,-0.00273272767663002
1783169881709909200,2.8319091796875,0.002896084450185299,-0.02191200852394104,0.00788793247193098
1783169881719978000,2.84197802734375,0.0022361529991030693,-0.02244597300887108,0.001920054666697979
1783169881730048300,2.85204833984375,0.004395328462123871,-0.022551316767930984,-0.01684228703379631
1783169881740117000,2.862116943359375,0.008462241850793362,-0.010769758373498917,-0.014295771718025208
1783169881750187300,2.872187255859375,0.019888730719685555,-0.006574186496436596,-0.007376815192401409
1783169881760256000,2.882256103515625,0.02618311159312725,-0.010682645253837109,-0.01405415777117014
1783169881770326000,2.892325927734375,0.025816963985562325,-0.01611259952187538,-0.024738438427448273
1783169881780395000,2.90239501953125,0.02049090899527073,-0.01863141357898712,-0.020467527210712433
1783169881790465000,2.912465087890625,0.019107379019260406,-0.02467213198542595,0.0007059955969452858
1783169881800534300,2.9225341796875,0.0223175548017025,-0.03624143823981285,0.009171118959784508
1783169881810604000,2.93260400390625,0.014886900782585144,-0.03474019840359688,0.0071329036727547646
1783169881820673300,2.94267333984375,0.012205630540847778,-0.0221778005361557,0.01255083829164505
1783169881830743000,2.952742919921875,0.011625377461314201,-0.010819812305271626,0.007874943315982819
1783169881840812300,2.962812255859375,0.018970642238855362,0.0024318103678524494,-0.007033166009932756
1783169881850882000,2.972882080078125,0.0197976715862751,0.003966701682657003,-0.011468378826975822
1783169881860951300,2.982951416015625,0.02064455673098564,0.015563436783850193,-0.0021981815807521343
1783169881871021000,2.99302099609375,0.01925640180706978,0.02399325929582119,0.007184557616710663
1783169881881090000,3.003090087890625,0.026863986626267433,0.02850252203643322,0.0023562463466078043
1783169881891160300,3.013160400390625,0.03162999451160431,0.036848243325948715,-0.014148927293717861
1783169881901229000,3.02322900390625,0.02434358559548855,0.04399031028151512,-0.011224242858588696
1783169881911298600,3.033298583984375,0.008435860276222229,0.05025484412908554,0.005034842528402805
1783169881921367300,3.0433671875,0.0006378586404025555,0.04821433126926422,0.010446119122207165
1783169881931437600,3.0534375,0.004813510924577713,0.04549938440322876,-0.0023757070302963257
1783169881941506600,3.063506591796875,0.008925432339310646,0.04218001663684845,-0.010608603246510029
1783169881951576600,3.07357666015625,0.012340603396296501,0.03783319890499115,-0.006874341517686844
1783169881961645600,3.0836455078125,0.01302823144942522,0.026745924726128578,-0.006601100787520409
1783169881971715300,3.09371533203125,0.01893625780940056,0.013860991224646568,-0.009337041527032852
1783169881981784600,3.10378466796875,0.018527459353208542,0.0036917105317115784,-0.007284009363502264
1783169881991854300,3.113854248046875,0.011383796110749245,-0.0071118976920843124,0.0071365712210536
1783169882001923600,3.123923583984375,0.003972751088440418,-0.00691695511341095,0.02250327728688717
1783169882011993300,3.133993408203125,-0.000899916747584939,-0.000788375735282898,0.027014952152967453
1783169882022062600,3.1440625,0.0021307605784386396,0.018439380452036858,0.030210746452212334
1783169882032132400,3.15413232421875,0.004476806148886681,0.02681499533355236,0.02145978808403015
1783169882042201600,3.16420166015625,0.013347795233130455,0.03368328511714935,0.004734870046377182
1783169882052271600,3.174271728515625,0.014892494305968285,0.03258291631937027,-0.0006152971182018518
1783169882062340600,3.184340576171875,0.011508148163557053,0.030461441725492477,-0.008229008875787258
1783169882072410600,3.19441064453125,0.009858537465333939,0.030509769916534424,-0.013438234105706215
1783169882082479400,3.204479248046875,0.008734150789678097,0.028228240087628365,-0.01012925710529089
1783169882092549600,3.214549560546875,0.005676973145455122,0.027728915214538574,-0.0012755340430885553
1783169882102618400,3.224618408203125,0.008602455258369446,0.0295699592679739,0.00033248262479901314
1783169882112688600,3.234688720703125,0.009797202423214912,0.022702569141983986,0.011850114911794662
1783169882122757400,3.24475732421875,0.009795870631933212,0.023183535784482956,0.022965082898736
1783169882132827600,3.25482763671875,0.02027224563062191,0.02068735845386982,0.007391595281660557
1783169882142896400,3.264896484375,0.01840164139866829,0.018665753304958344,-0.0009464956820011139
1783169882152966400,3.27496630859375,0.003841009456664324,0.021673783659934998,0.006979312747716904
1783169882163035400,3.285035400390625,-0.0014909051824361086,0.03283216431736946,0.02225387468934059
1783169882173105400,3.29510546875,0.000020721578039228916,0.04224497452378273,0.006347284652292728
1783169882183174700,3.305174560546875,0.00706265214830637,0.04754173755645752,-0.022465987130999565
1783169882193244400,3.315244384765625,0.003370544407516718,0.04009794816374779,-0.03303883597254753
1783169882203313700,3.325313720703125,0.0029827880207449198,0.027259647846221924,-0.009956417605280876
1783169882213383400,3.335383544921875,0.0012385162990540266,0.007059319410473108,0.00938761979341507
1783169882223452700,3.34545263671875,0.0009439706918783486,-0.010799040086567402,0.013370376080274582
1783169882233522400,3.3555224609375,-0.004651411436498165,-0.024407973513007164,0.008541472256183624
1783169882243591400,3.36559130859375,-0.009625131264328957,-0.026462337002158165,0.012093063443899155
1783169882253661400,3.375661376953125,-0.003723051631823182,-0.013789251446723938,0.021686729043722153
1783169882263730400,3.38573046875,-0.0007363164331763983,-0.011509053409099579,0.01564348302781582
1783169882273800700,3.39580078125,-0.0035008287522941828,-0.005166051909327507,0.007871953770518303
1783169882283869400,3.405869384765625,-0.007918213494122028,-0.0006107147783041,0.011755108833312988
1783169882293939700,3.415939697265625,-0.008807308040559292,0.002938727382570505,0.01065730769187212
1783169882304008400,3.426008544921875,-0.007317802868783474,0.005307609215378761,-0.002799112116917968
1783169882314078500,3.436078369140625,-0.007776915095746517,0.011553656309843063,-0.00925387628376484
1783169882324147500,3.4461474609375,-0.006065035238862038,0.019702397286891937,-0.006466877646744251
1783169882334217500,3.456217529296875,-0.004307152237743139,0.021251585334539413,-0.0005766996182501316
1783169882344286500,3.466286376953125,-0.004633655771613121,0.012400835752487183,-0.003070749808102846
1783169882354356500,3.4763564453125,-0.0031317472457885742,0.008455745875835419,-0.010548210702836514
1783169882364425500,3.486425537109375,-0.0026212194934487343,0.007482360582798719,0.004105033818632364
1783169882374495500,3.49649560546875,-0.0020614066161215305,0.00387950474396348,0.009218774735927582
1783169882384564500,3.506564453125,-0.000976434675976634,-0.0020974278450012207,0.008876292034983635
1783169882394634500,3.516634521484375,-0.0041636209934949875,-0.007679038681089878,0.0028275910299271345
1783169882404703700,3.526703857421875,0.003928926773369312,-0.006891275756061077,0.0013335577677935362
1783169882414773500,3.5367734375,0.00916347000747919,-0.0024997470900416374,0.004949400667101145
1783169882424842500,3.546842529296875,0.011670037172734737,0.0021538608707487583,-0.003901615273207426
1783169882434912500,3.55691259765625,0.011360043659806252,0.004901214502751827,-0.008072558790445328
1783169882444981500,3.5669814453125,0.00884948205202818,0.0012428299523890018,-0.009302938356995583
1783169882455051500,3.577051513671875,0.005585745442658663,0.0022279294207692146,-0.006138449534773827
1783169882465120500,3.58712060546875,-0.008641660213470459,0.003220223356038332,-0.00329552567563951
1783169882475190500,3.5971904296875,-0.017447052523493767,0.0024565733037889004,0.009120360016822815
1783169882485259500,3.607259521484375,-0.009421884082257748,0.0045239850878715515,0.008656970225274563
1783169882495329500,3.61732958984375,0.0013455753214657307,0.01352760475128889,-0.008098961785435677
1783169882505398500,3.6273984375,0.009139848873019218,0.022790078073740005,-0.019388368353247643
1783169882515468500,3.637468505859375,0.009088318794965744,0.0215037539601326,-0.006714163348078728
1783169882525537500,3.64753759765625,0.008415337651968002,0.023148788139224052,-0.0022459125611931086
1783169882535607600,3.657607666015625,0.014148840680718422,0.014945050701498985,-0.013297703117132187
1783169882545676500,3.667676513671875,0.008686963468790054,0.007308170199394226,-0.014593064785003662
1783169882555745500,3.67774560546875,0.000609645270742476,0.009061469696462154,-0.01103659626096487
1783169882565815600,3.687815673828125,-0.009592392481863499,0.01911783218383789,-0.010445374064147472
1783169882575884500,3.697884521484375,-0.011300908401608467,0.03291672095656395,-0.018672848120331764
1783169882585954300,3.707954345703125,-0.0064755273051559925,0.028320904821157455,-0.028968892991542816
1783169882596023600,3.7180234375,-0.0034316028468310833,0.022422296926379204,-0.029999200254678726
1783169882606093300,3.72809326171875,0.0059091681614518166,0.011192545294761658,-0.015482043847441673
1783169882616162600,3.73816259765625,0.0018631458515301347,-0.0012882472947239876,0.002851704601198435
1783169882626232600,3.748232666015625,-0.010609235614538193,-0.013481530360877514,0.01881362684071064
1783169882636301600,3.758301513671875,-0.01871844381093979,-0.020774483680725098,0.007628893479704857
1783169882646371600,3.76837158203125,-0.020252689719200134,-0.018894024193286896,-0.009158609434962273
1783169882656440600,3.778440673828125,-0.0191829651594162,-0.012674222700297832,-0.0076148007065057755
1783169882666510600,3.788510498046875,-0.017064154148101807,-0.011555961333215237,-0.007292024791240692
1783169882676579600,3.79857958984375,-0.014388345181941986,-0.010701866820454597,-0.00576784648001194
1783169882686649600,3.808649658203125,-0.01149482000619173,-0.010408386588096619,-0.004673553630709648
1783169882696718300,3.81871826171875,-0.005309861619025469,-0.00399442482739687,-0.004677669145166874
1783169882706788600,3.82878857421875,-0.004477890208363533,0.0035713491961359978,-0.007596227340400219
1783169882716857300,3.838857421875,-0.002316968282684684,0.0032989121973514557,-0.004545964300632477
1783169882726927600,3.848927734375,0.00004605448339134455,0.004631558433175087,-0.0025384731125086546
1783169882736996400,3.858996337890625,0.0043282341212034225,0.009599297307431698,-0.0056714522652328014
1783169882747066600,3.869066650390625,0.007308044470846653,0.01393865142017603,-0.012510716915130615
1783169882757135400,3.87913525390625,0.0006288199801929295,0.01297205500304699,-0.019172020256519318
1783169882767205400,3.889205322265625,-0.006276223808526993,0.014214420691132545,-0.014285119250416756
1783169882777274600,3.899274658203125,-0.006376907229423523,0.011086935177445412,-0.016794823110103607
1783169882787344400,3.909344482421875,-0.009992681443691254,0.013108273968100548,-0.019787417724728584
1783169882797413600,3.91941357421875,-0.00862879492342472,0.012898028828203678,-0.020232468843460083
1783169882807483400,3.9294833984375,-0.006150456611067057,0.014008034020662308,-0.014537032693624496
1783169882817552600,3.939552734375,-0.004952032119035721,0.016262097284197807,0.0001326275523751974
1783169882827622400,3.949622314453125,-0.0004944333340972662,0.014258068054914474,-0.005722065921872854
1783169882837691600,3.959691650390625,0.002668436150997877,0.007535197772085667,-0.015013664029538631
1783169882847761400,3.969761474609375,-0.0011835598852485418,0.005293615162372589,-0.014710861258208752
1783169882857830400,3.979830322265625,-0.0014405054971575737,0.00904295314103365,-0.007154324557632208
1783169882867900700,3.989900634765625,-0.0025712838396430016,0.005257003474980593,-0.020526321604847908
1783169882877969400,3.999969482421875,-0.006236210465431213,0.008568794466555119,-0.029702402651309967
1783169882888039700,4.010039794921875,-0.005551511887460947,0.021588988602161407,-0.013143133372068405
1783169882898108400,4.0201083984375,-0.0029212890658527613,0.01958373561501503,-0.006169511936604977
1783169882908178400,4.030178466796875,-0.002066414337605238,0.0147775299847126,-0.01885148510336876
1783169882918247200,4.0402470703125,-0.0025261607952415943,0.013854369521141052,-0.03388383239507675
1783169882928317200,4.050317138671875,0.005663591902703047,0.018431812524795532,-0.03197035193443298
1783169882938386200,4.06038623046875,0.009924185462296009,0.023489393293857574,-0.020435472950339317
1783169882948456200,4.070456298828125,0.008073022589087486,0.010208474472165108,-0.02327786572277546
1783169882958525200,4.080525146484375,-0.004045195411890745,-0.004854864440858364,-0.026459062471985817
1783169882968595200,4.09059521484375,-0.010413079522550106,-0.013411601074039936,-0.020837927237153053
1783169882978664200,4.100664306640625,-0.006501493044197559,-0.01237993873655796,-0.0009176027961075306
1783169882988734200,4.110734130859375,-0.00530014093965292,-0.0200106929987669,0.006150692701339722
1783169882998803200,4.12080322265625,-0.008215686306357384,-0.026796814054250717,-0.0041541773825883865
1783169883008873200,4.130873291015625,-0.006275041028857231,-0.022710993885993958,-0.006765406578779221
1783169883018942500,4.1409423828125,0.0017369792331010103,-0.008429806679487228,-0.011537963524460793
1783169883029012200,4.15101220703125,0.007757587358355522,0.0044441791251301765,-0.009905179031193256
1783169883039081200,4.161081298828125,0.0025985450483858585,0.010199008509516716,-0.008495155721902847
1783169883049151200,4.171151123046875,-0.0018715709447860718,0.012032329104840755,-0.017630863934755325
1783169883059220200,4.18122021484375,-0.005825499072670937,0.013344211503863335,-0.023163819685578346
1783169883069290200,4.191290283203125,-0.005433748476207256,0.019050566479563713,-0.022361941635608673
1783169883079359200,4.201359130859375,-0.0005655910354107618,0.020454341545701027,-0.024377496913075447
1783169883089429200,4.21142919921875,0.0076955342665314674,0.014541324228048325,-0.03431055322289467
1783169883099498200,4.221498291015625,0.007621083874255419,0.0073210750706493855,-0.0335099957883358
1783169883109568300,4.231568359375,-0.0013433827552944422,-0.0025637801736593246,-0.01563086360692978
1783169883119637200,4.24163720703125,-0.014743678271770477,-0.0044588567689061165,-0.0009740856476128101
1783169883129707300,4.251707275390625,-0.020382123067975044,-0.0015847738832235336,0.007556285709142685
1783169883139776300,4.2617763671875,-0.016574718058109283,-0.013196039013564587,-0.009209219366312027
1783169883149846300,4.27184619140625,-0.014485999941825867,-0.027012784034013748,-0.009784728288650513
1783169883159915300,4.281915283203125,-0.01344192586839199,-0.043409183621406555,-0.0010169623419642448
1783169883169985300,4.2919853515625,0.0007543209358118474,-0.06304121017456055,0.003294695168733597
1783169883180054300,4.30205419921875,0.007960835471749306,-0.06993427127599716,0.005918974056839943
1783169883190124300,4.312124267578125,0.012149454094469547,-0.0695960521697998,0.006543219089508057
1783169883200193300,4.322193359375,0.004368831403553486,-0.06679895520210266,0.016632800921797752
1783169883210263300,4.33226318359375,-0.009630873799324036,-0.0593346506357193,0.038562335073947906
1783169883220332000,4.34233203125,-0.0224977545440197,-0.0455734059214592,0.039895109832286835
1783169883230402300,4.35240234375,-0.01534929871559143,-0.0292077474296093,0.024324940517544746
1783169883240471300,4.36247119140625,-0.002728327875956893,-0.007391534745693207,0.002527560107409954
1783169883250541300,4.372541259765625,0.010635947808623314,0.004668590147048235,-0.004652322269976139
1783169883260610300,4.3826103515625,0.017889467999339104,0.014357950538396835,-0.0023311579134315252
1783169883270680000,4.39268017578125,0.0235124658793211,0.02101265639066696,-0.004657162353396416
1783169883280749300,4.402749267578125,0.025145646184682846,0.03252605348825455,-0.006181509234011173
1783169883290819000,4.412819091796875,0.02136901766061783,0.03405417501926422,-0.008698196150362492
1783169883300888300,4.422888427734375,0.009633299894630909,0.03712986409664154,-0.0009455899707973003
1783169883310958000,4.4329580078125,-0.0004981637466698885,0.043353937566280365,0.013649597764015198
1783169883321027300,4.44302734375,0.0016683529829606414,0.04210808128118515,0.022551795467734337
1783169883331097300,4.453097412109375,0.020329121500253677,0.028310775756835938,0.019699817523360252
1783169883341166300,4.463166259765625,0.02832438237965107,0.021322496235370636,0.019318487495183945
1783169883351236400,4.473236328125,0.027863388881087303,0.013172689825296402,0.02061677724123001
1783169883361305300,4.483305419921875,0.022887172177433968,0.005616526119410992,0.014980128034949303
1783169883371374300,4.493374267578125,0.012239321134984493,-0.0011042272672057152,0.015705039724707603
1783169883381444000,4.503444091796875,0.002626407891511917,-0.006958384066820145,0.014494778588414192
1783169883391513300,4.513513427734375,-0.004054664168506861,-0.006835878826677799,0.013972532004117966
1783169883401583000,4.5235830078125,-0.001243664650246501,-0.005392972379922867,0.013592378236353397
1783169883411652400,4.53365234375,0.006575642619282007,-0.006335198879241943,0.010070879943668842
1783169883421722000,4.54372216796875,0.016649765893816948,-0.009760434739291668,0.01282782107591629
1783169883431791400,4.553791259765625,0.02070016786456108,-0.020806696265935898,0.018948297947645187
1783169883441861000,4.563861083984375,0.020022526383399963,-0.029844149947166443,0.017678186297416687
1783169883451930400,4.573930419921875,0.02133573219180107,-0.03561468794941902,0.009226644411683083
1783169883462000400,4.58400048828125,0.021264757961034775,-0.03953004628419876,0.0050481949001550674
1783169883472069400,4.5940693359375,0.01593577302992344,-0.043712809681892395,0.005563782993704081
1783169883482139400,4.604139404296875,0.008269596844911575,-0.03506765514612198,0.013207854703068733
1783169883492208000,4.6142080078125,0.004653822630643845,-0.021553978323936462,0.020445792004466057
1783169883502278400,4.6242783203125,0.006795254535973072,-0.007288358174264431,0.012630807235836983
1783169883512347100,4.63434716796875,0.01145072653889656,-0.0031202444806694984,0.000939263729378581
1783169883522417400,4.64441748046875,0.02105105295777321,0.005863686557859182,-0.004049177281558514
1783169883532486100,4.654486083984375,0.02285641059279442,0.0015333867631852627,-0.005270236171782017
1783169883542556200,4.66455615234375,0.022208398208022118,-0.009103820659220219,-0.011951065622270107
1783169883552625200,4.674625244140625,0.02227790653705597,-0.01151557918637991,-0.01136090885847807
1783169883562695200,4.684695068359375,0.026444971561431885,-0.019289212301373482,-0.004002388566732407
1783169883572764200,4.69476416015625,0.02468302473425865,-0.02787444368004799,0.0024760167580097914
1783169883582834200,4.704834228515625,0.016376227140426636,-0.026050996035337448,0.01496246550232172
1783169883592903200,4.714903076171875,0.009076501242816448,-0.022899145260453224,0.018033357337117195
1783169883602973200,4.72497314453125,0.007257526740431786,-0.010857363231480122,0.01678401604294777
1783169883613042400,4.73504248046875,0.004509943537414074,0.009962164796888828,0.00818466953933239
1783169883623112200,4.7451123046875,0.012274092063307762,0.0221245139837265,-0.0024690143764019012
1783169883633181400,4.755181396484375,0.015664828941226006,0.029847946017980576,-0.013807687908411026
1783169883643251200,4.765251220703125,0.015574514865875244,0.032239194959402084,-0.021702509373426437
1783169883653320200,4.7753203125,0.016972674056887627,0.0302218496799469,-0.021022871136665344
1783169883663390200,4.78539013671875,0.015988335013389587,0.021969277411699295,-0.016404196619987488
1783169883673459200,4.795459228515625,0.014981127344071865,0.012211723253130913,-0.015024147927761078
1783169883683529200,4.805529296875,0.008416218683123589,0.0014556222595274448,-0.010870331898331642
1783169883693598200,4.81559814453125,0.007206611335277557,0.0015560234896838665,-0.001606259262189269
1783169883703668500,4.82566845703125,0.004507215693593025,-0.0029022805392742157,0.0073299407958984375
1783169883713737200,4.8357373046875,-0.0009016641415655613,-0.002047938294708729,0.013354543596506119
1783169883723807200,4.84580712890625,-0.004036154597997665,-0.0035407673567533493,0.016421526670455933
1783169883733876200,4.855876220703125,-0.004964266438037157,-0.005523757077753544,0.01856164261698723
1783169883743946200,4.8659462890625,-0.009739579632878304,-0.007509676739573479,0.010274417698383331
1783169883754015200,4.87601513671875,-0.010119613260030746,-0.004077394492924213,0.00016852025873959064
1783169883764085200,4.886085205078125,-0.010657505132257938,-0.004702161997556686,-0.004429669119417667
1783169883774154200,4.896154296875,-0.00384620507247746,0.003960035275667906,-0.011661749333143234
1783169883784224300,4.906224365234375,-0.002191566862165928,0.015058591961860657,-0.020199742168188095
1783169883794293200,4.916293212890625,-0.0033031704369932413,0.018716443330049515,-0.0034889387898147106
1783169883804363300,4.92636328125,-0.0018924274481832981,0.017646964639425278,0.006849315017461777
1783169883814432300,4.936432373046875,-0.0029057604260742664,0.010714489035308361,0.003227682551369071
1783169883824502300,4.946502197265625,-0.008463060483336449,0.006879126187413931,0.005239203572273254
1783169883834571300,4.9565712890625,-0.010434332303702831,0.006533181760460138,0.006258661858737469
1783169883844641300,4.966641357421875,-0.014078086242079735,-0.0007847882807254791,0.0025918162427842617
1783169883854710300,4.976710205078125,-0.0074324337765574455,-0.012194303795695305,0.006587622687220573
1783169883864780300,4.9867802734375,-0.013245665468275547,0.003854560200124979,0.002645113505423069
1783169883874849300,4.996849365234375,-0.002762132091447711,0.010022707283496857,0.002885330468416214
1783169883884919000,5.0069189453125,-0.0025475644506514072,0.010370371863245964,0.0018392745405435562
1783169883894988300,5.01698828125,-0.0059004840441048145,0.011166923679411411,0.001341263297945261
1783169883905058000,5.02705810546875,-0.008925585076212883,0.00023428164422512054,-0.0029044519178569317
1783169883915128000,5.037128173828125,-0.012162923812866211,-0.012416799552738667,-0.0002551390789449215
1783169883925198000,5.047197998046875,-0.016654495149850845,-0.020565424114465714,0.00909043662250042
1783169883935267000,5.05726708984375,-0.010267435573041439,-0.030579444020986557,0.012406604364514351
1783169883945337000,5.067337158203125,-0.004212888889014721,-0.030398201197385788,0.0056452155113220215
1783169883955405800,5.07740576171875,-0.004501841962337494,-0.020012404769659042,0.010222923010587692
1783169883965476000,5.08747607421875,-0.01136177871376276,-0.018237696960568428,0.018581056967377663
1783169883975544800,5.097544921875,-0.01596132293343544,-0.020429745316505432,0.013823851943016052
1783169883985615000,5.107614990234375,-0.014627629891037941,-0.015260151587426662,0.005111115053296089
1783169883995683800,5.117683837890625,-0.012526927515864372,-0.0032253265380859375,-0.005276012234389782
1783169884005754000,5.127754150390625,-0.010356085374951363,0.003786523826420307,-0.013002203777432442
1783169884015822800,5.13782275390625,-0.012047724798321724,0.0021316357888281345,-0.006940316408872604
1783169884025892900,5.147892822265625,-0.014000571332871914,-0.0016525760293006897,-0.003054678672924638
1783169884035962000,5.157962158203125,-0.014088988304138184,0.00239063473418355,0.00957376416772604
1783169884046032000,5.168031982421875,-0.014999107457697392,0.004893324337899685,0.01563980244100094
1783169884056101000,5.17810107421875,-0.015517625026404858,-0.00014750659465789795,0.008478295989334583
1783169884066171000,5.1881708984375,-0.016580374911427498,-0.00912008062005043,-0.003278916934505105
1783169884076240100,5.198240234375,-0.012119847349822521,-0.00803351029753685,-0.008880077861249447
1783169884086310000,5.208309814453125,-0.007443237118422985,-0.002636600285768509,-0.011955059133470058
1783169884096379100,5.218379150390625,-0.0031632711179554462,-0.003405454568564892,-0.010236255824565887
1783169884106449000,5.228448974609375,-0.003579189768061042,-0.0010880008339881897,-0.0028939952608197927
1783169884116518100,5.23851806640625,-0.0062322309240698814,-0.00138920359313488,-0.004691895097494125
1783169884126588200,5.248588134765625,-0.004032560158520937,0.0037208921276032925,-0.009607894346117973
1783169884136657000,5.258656982421875,-0.007156181614845991,0.006664483807981014,-0.021456830203533173
1783169884146727200,5.26872705078125,-0.008093963377177715,-0.005651448853313923,-0.020007768645882607
1783169884156796000,5.2787958984375,-0.011880711652338505,-0.01120280846953392,-0.003185112727805972
1783169884166865200,5.288865234375,-0.01643506810069084,-0.022495783865451813,0.0037863755133002996
1783169884176935000,5.298934814453125,-0.00986718013882637,-0.026201840490102768,-0.004136262461543083
1783169884187004200,5.309004150390625,-0.006975885946303606,-0.02347344532608986,-0.006159900221973658
1783169884197074000,5.319073974609375,-0.013219134882092476,-0.019668851047754288,0.007183868438005447
1783169884207143200,5.32914306640625,-0.01658204011619091,-0.019206279888749123,0.017581865191459656
1783169884217213000,5.339212890625,-0.022012759000062943,-0.01703074388206005,0.0185757577419281
1783169884227282000,5.349281982421875,-0.021213361993432045,-0.009860822930932045,0.011427167803049088
1783169884237352000,5.35935205078125,-0.02165038511157036,-0.008708739653229713,0.007086480967700481
1783169884247421000,5.3694208984375,-0.014339841902256012,-0.007829909212887287,-0.0019583154935389757
1783169884257491200,5.3794912109375,-0.003678675275295973,-0.014569039456546307,-0.004490182735025883
1783169884267560000,5.389559814453125,-0.0009558596648275852,-0.013096044771373272,-0.0068955495953559875
1783169884277630200,5.399630126953125,-0.002602225635200739,-0.016762416809797287,0.0053099836222827435
1783169884287699000,5.409698974609375,-0.004501059651374817,-0.01902104541659355,0.006648221984505653
1783169884297769000,5.41976904296875,-0.011336594820022583,-0.018570173531770706,0.008412566035985947
1783169884307838000,5.429837890625,-0.01757723093032837,-0.007709409110248089,0.007673453539609909
1783169884317908000,5.439907958984375,-0.015868280082941055,-0.00295912753790617,0.0034305055160075426
1783169884327977000,5.44997705078125,-0.008710386231541634,0.00414766650646925,0.0006036700215190649
1783169884338047000,5.460046875,-0.0023425016552209854,0.007655848748981953,-0.0004983462858945131
1783169884348116000,5.470115966796875,0.0018399764085188508,0.007596057839691639,-0.003967053256928921
1783169884358186000,5.48018603515625,0.0012330419849604368,0.009311133995652199,-0.004631511401385069
1783169884368255000,5.4902548828125,0.007484280038625002,0.009654148481786251,-0.00602407893165946
1783169884378325000,5.500324951171875,0.003219760023057461,0.0023344503715634346,-0.0012690047733485699
1783169884388394200,5.510394287109375,-0.00759250670671463,-0.001734340563416481,0.012564615346491337
1783169884398464000,5.520464111328125,-0.01589997112751007,-0.003382304683327675,0.01845978945493698
1783169884408533000,5.530532958984375,-0.015262478031218052,-0.006258527748286724,0.01749463379383087
1783169884418603000,5.54060302734375,-0.01205709669739008,-0.004335192963480949,0.020143946632742882
1783169884428672000,5.550672119140625,-0.006836968474090099,-0.0038616731762886047,0.017139926552772522
1783169884438742000,5.560741943359375,-0.003706954652443528,-0.0007532313466072083,0.013772092759609222
1783169884448811000,5.57081103515625,-0.002687563421204686,-0.0008507128804922104,0.010051896795630455
1783169884458881000,5.580881103515625,-0.0019203065894544125,-0.001987083815038204,0.008463853970170021
1783169884468950000,5.590949951171875,-0.004284295253455639,-0.0008280621841549873,0.006968127563595772
1783169884479020000,5.60102001953125,-0.0095584187656641,0.0059052081778645515,0.006765461526811123
1783169884489089000,5.611089111328125,-0.013857860118150711,0.004859913140535355,0.00863884948194027
1783169884499159000,5.621158935546875,-0.013933760114014149,0.0037642884999513626,0.0111725814640522
1783169884509228000,5.63122802734375,-0.00944541860371828,0.0038437996990978718,0.010659233666956425
1783169884519298000,5.641298095703125,-0.0036746147088706493,-0.0008167317137122154,0.010818757116794586
1783169884529367000,5.651366943359375,0.0016325331525877118,-0.004703652113676071,0.02334935963153839
1783169884539437000,5.66143701171875,0.0017427880084142089,-0.010848363861441612,0.025045793503522873
1783169884549506000,5.671506103515625,-0.0019065092783421278,-0.013974873349070549,0.02179005928337574
1783169884559576000,5.681576171875,-0.007638164795935154,-0.010901052504777908,0.014571295119822025
1783169884569644800,5.691644775390625,-0.011533701792359352,-0.004393105395138264,0.009091527201235294
1783169884579716900,5.701716796875,-0.013228005729615688,0.004897598177194595,0.008838793262839317
1783169884589786000,5.7117861328125,-0.010255968198180199,0.003327525220811367,0.00590257253497839
1783169884599855900,5.72185595703125,-0.006570951547473669,0.007027188781648874,-0.0031929216347634792
1783169884609925000,5.731925048828125,-0.004119278863072395,0.0011533158831298351,0.004920518025755882
1783169884619995100,5.7419951171875,-0.00038286391645669937,-0.011217067949473858,0.012333161197602749
1783169884630064000,5.752064208984375,0.0037118461914360523,-0.02060656063258648,0.014206333085894585
1783169884640134100,5.762134033203125,0.006556368432939053,-0.023041754961013794,0.015104350633919239
1783169884650203000,5.772202880859375,0.005780988372862339,-0.02314533293247223,0.019663730636239052
1783169884660273200,5.782273193359375,0.009372526779770851,-0.015043997205793858,0.014876699075102806
1783169884670342000,5.792341796875,0.01437013316899538,-0.012368464842438698,0.009442023001611233
1783169884680412200,5.802412109375,0.01473125722259283,-0.011205993592739105,0.010587714612483978
1783169884690481000,5.81248095703125,0.005721516907215118,-0.014775162562727928,0.012203986756503582
1783169884700551000,5.822551025390625,0.0012119864113628864,-0.01880958490073681,0.01153633277863264
1783169884710620000,5.832619873046875,0.0006443174206651747,-0.015184910036623478,0.007965044118463993
1783169884720690000,5.84268994140625,-0.001270495355129242,-0.009815179742872715,0.009486773982644081
1783169884730759000,5.852759033203125,-0.00139546487480402,-0.004214789718389511,0.011313511058688164
1783169884740829000,5.862828857421875,-0.0007389956153929234,0.0031467201188206673,0.009287111461162567
1783169884750898200,5.872898193359375,0.0031641507521271706,0.012174667790532112,0.005393410101532936
1783169884760968000,5.882968017578125,0.004909586161375046,0.021162569522857666,0.0017528687603771687
1783169884771037200,5.893037109375,0.004636078141629696,0.01928747445344925,0.0008248568046838045
1783169884781107000,5.90310693359375,0.000737210619263351,0.01785682514309883,-0.00037942477501928806
1783169884791176200,5.91317626953125,-0.00340282148681581,0.018835917115211487,-0.005589621141552925
1783169884801246000,5.923245849609375,-0.004161289893090725,0.009904205799102783,-0.011852577328681946
1783169884811315000,5.93331494140625,0.003745800582692027,0.002323540858924389,-0.008700799196958542
1783169884821385000,5.943385009765625,0.006670750677585602,-0.0058318572118878365,-0.0019267820753157139
1783169884831454000,5.953453857421875,0.0062383022159338,-0.013878723606467247,-0.0011573112569749355
1783169884841524200,5.963524169921875,0.005106458440423012,-0.024294348433613777,0.004222274292260408
1783169884851593000,5.973593017578125,-0.0007814888376742601,-0.02522914670407772,0.00546815013512969
1783169884861663000,5.9836630859375,-0.005838831886649132,-0.030015381053090096,0.007087618112564087
1783169884871732000,5.99373193359375,-0.01028556190431118,-0.018887769430875778,0.012526772916316986
1783169884881802000,6.003802001953125,-0.010669323615729809,-0.012504705227911472,0.007957853376865387
1783169884891871000,6.01387109375,-0.010183962993323803,-0.00014362484216690063,-0.004273727536201477
1783169884901941000,6.02394091796875,-0.0068177273496985435,0.011742861941456795,-0.01271967776119709
1783169884912009700,6.034009765625,-0.004125903360545635,0.015923744067549706,-0.015598458237946033
1783169884922079700,6.044079833984375,-0.0034217634238302708,0.010019516572356224,-0.018401436507701874
1783169884932148700,6.054148681640625,-0.0004769230727106333,0.008195373229682446,-0.013439666479825974
1783169884942218800,6.06421875,-0.0003871745429933071,0.0017308159731328487,-0.004453361965715885
1783169884952287700,6.074287841796875,0.0009436070104129612,-0.005454925820231438,-0.004748173989355564
1783169884962357800,6.084357666015625,-0.004290835931897163,-0.015293174423277378,0.0034208064898848534
1783169884972426800,6.0944267578125,-0.01087401993572712,-0.01879747398197651,0.009652860462665558
1783169884982496800,6.104496826171875,-0.011000254191458225,-0.02500530146062374,0.002474842593073845
1783169884992565800,6.114565673828125,-0.008055014535784721,-0.020230915397405624,-0.0058320052921772
1783169885002634800,6.124634765625,-0.00832159724086523,-0.015285957604646683,-0.014508584514260292
1783169885012704800,6.134704833984375,-0.010764364153146744,-0.010902808979153633,-0.018688790500164032
1783169885022774800,6.14477490234375,-0.0024137571454048157,-0.010158723220229149,-0.023537341505289078
1783169885032843800,6.15484375,0.003712395438924432,-0.024991054087877274,-0.02152509242296219
1783169885042913800,6.164913818359375,0.007612861227244139,-0.03270383179187775,-0.02461382746696472
1783169885052982800,6.174982666015625,-0.001668704440817237,-0.0353035032749176,-0.02735462412238121
1783169885063051800,6.1850517578125,-0.012342121452093124,-0.03143206611275673,-0.019804028794169426
1783169885073121800,6.195121826171875,-0.010043531656265259,-0.03942137584090233,-0.03884825482964516
1783169885083190800,6.205190673828125,-0.0058043114840984344,-0.029161550104618073,-0.05095098912715912
1783169885093260800,6.2152607421875,-0.0062949685379862785,-0.024481285363435745,-0.06388763338327408
1783169885103329500,6.22532958984375,-0.001253071939572692,-0.02234729751944542,-0.07377328723669052
1783169885113399800,6.23539990234375,0.002723147626966238,-0.01373296044766903,-0.04908746853470802
1783169885123468500,6.245468505859375,-0.00244737952016294,-0.014645358547568321,-0.009018080309033394
1783169885133538800,6.255538818359375,-0.010542424395680428,-0.007488888688385487,0.02056637406349182
1783169885143607800,6.26560791015625,-0.01675477996468544,-0.0077346982434391975,0.002082172315567732
1783169885153677800,6.275677734375,-0.018690980970859528,0.01424502395093441,-0.005363725125789642
1783169885163746800,6.285746826171875,-0.02178024873137474,0.023720284923911095,0.00649213558062911
1783169885173816600,6.295816650390625,-0.030172569677233696,0.028135553002357483,0.011614363640546799
1783169885183885800,6.3058857421875,-0.02261691354215145,0.019313566386699677,0.00482463464140892
1783169885193955600,6.31595556640625,-0.018861256539821625,0.01718970388174057,-0.012114644050598145
1783169885204024800,6.32602490234375,-0.016684122383594513,0.016991298645734787,-0.017604216933250427
1783169885214094600,6.336094482421875,-0.01650823839008808,0.005964325740933418,-0.00953083299100399
1783169885224163800,6.346163818359375,-0.012205367907881737,-0.0010088952258229256,0.005310697481036186
1783169885234233900,6.35623388671875,-0.0056442213244736195,-0.01568412221968174,0.005623919889330864
1783169885244302800,6.366302734375,0.002552988473325968,-0.03681017830967903,-0.0019836663268506527
1783169885254372900,6.376372802734375,0.008215967565774918,-0.03672495484352112,0.0020671477541327477
1783169885264441900,6.38644189453125,0.0001532474998384714,-0.02920817956328392,0.021202493458986282
1783169885274512000,6.396511962890625,-0.002330467803403735,-0.02549770474433899,0.01923762634396553
1783169885284580600,6.40658056640625,-0.0004872940480709076,-0.01810690015554428,0.011260924860835075
1783169885294651000,6.41665087890625,-0.007104882039129734,-0.010569910518825054,0.01373134646564722
1783169885304719600,6.4267197265625,-0.007873736321926117,0.001217773649841547,0.023052943870425224
1783169885314790000,6.436789794921875,-0.006568422075361013,0.0004324209876358509,-0.000719328410923481
1783169885324858600,6.446858642578125,0.000002395245246589184,0.015593530610203743,-0.01572304405272007
1783169885334928600,6.4569287109375,0.008672828786075115,0.019345257431268692,-0.013860892504453659
1783169885344997600,6.46699755859375,0.006799827329814434,0.0148216113448143,-0.0042546032927930355
1783169885355067600,6.477067626953125,0.0038933984469622374,0.009882503189146519,-0.007705098483711481
1783169885365137000,6.487136962890625,-0.0011990980710834265,0.011684930883347988,-0.013177094981074333
1783169885375206700,6.49720654296875,0.0006188563420437276,0.01288735494017601,-0.01947549171745777
1783169885385276000,6.50727587890625,0.0029994561336934566,0.009203936904668808,-0.014305762946605682
1783169885395345700,6.517345703125,0.001230398891493678,0.005788704380393028,-0.007610861212015152
1783169885405415000,6.527414794921875,-0.0019968196284025908,0.002961758989840746,-0.006382877938449383
1783169885415484700,6.537484619140625,-0.000677590724080801,-0.008478255942463875,-0.010129321366548538
1783169885425554000,6.547553955078125,0.0033951816149055958,-0.01922144740819931,-0.013040422461926937
1783169885435623700,6.557623779296875,0.006551971659064293,-0.022653473541140556,-0.011133437976241112
1783169885445692700,6.567692626953125,0.009326718747615814,-0.026023171842098236,-0.0016714930534362793
1783169885455763000,6.577762939453125,0.008304678834974766,-0.031179843470454216,0.00004622689448297024
1783169885465831700,6.587831787109375,0.011618183925747871,-0.032258689403533936,-0.0006408686749637127
1783169885475902000,6.59790185546875,0.010435409843921661,-0.029769953340291977,0.0034090832341462374
1783169885485970700,6.607970703125,0.007459859363734722,-0.026030607521533966,0.0038431785069406033
1783169885496040700,6.618040771484375,0.0017602669540792704,-0.02956303581595421,-0.0023441030643880367
1783169885506109700,6.628109619140625,0.005480436608195305,-0.02849297598004341,-0.007902652956545353
1783169885516179700,6.6381796875,0.008677909150719643,-0.0270327590405941,-0.007238479796797037
1783169885526248700,6.648248779296875,0.002723879646509886,-0.02119271457195282,-0.006377746816724539
1783169885536318700,6.658318603515625,0.0035762714687734842,-0.01722392439842224,-0.020804736763238907
1783169885546387700,6.6683876953125,0.00063614163082093,-0.010943125933408737,-0.02028968185186386
1783169885556457700,6.678457763671875,-0.0032910113222897053,-0.005022143945097923,-0.017594747245311737
1783169885566526700,6.688526611328125,-0.003098730929195881,0.0004493207670748234,-0.013564584776759148
1783169885576596700,6.6985966796875,-0.0031857530120760202,0.007214265409857035,-0.009306011721491814
1783169885586666000,6.708666015625,-0.006086202338337898,0.002621111460030079,0.0010057471226900816
1783169885596735700,6.71873583984375,-0.005485577508807182,-0.004996320232748985,-0.001996984239667654
1783169885606804700,6.7288046875,-0.000382694648578763,-0.016845256090164185,-0.009650111198425293
1783169885616874800,6.738874755859375,0.0003887995844706893,-0.0173626895993948,-0.0070756892673671246
1783169885626943700,6.74894384765625,0.007087448611855507,-0.006051712669432163,-0.004275908228009939
1783169885637013800,6.759013671875,0.008411979302763939,-0.010586932301521301,-0.003104087198153138
1783169885647082800,6.769082763671875,0.009287094697356224,-0.011197062209248543,-0.005720110610127449
1783169885657152800,6.77915283203125,0.006997901014983654,-0.006361689418554306,0.00044169602915644646
1783169885667221800,6.7892216796875,-0.0011050330940634012,0.0009628026746213436,-0.0011229109950363636
1783169885677291800,6.799291748046875,-0.002622682601213455,0.00676062423735857,-0.006883481051772833
1783169885687360800,6.80936083984375,-0.008267784491181374,0.02044660970568657,0.0042722346261143684
1783169885697430800,6.8194306640625,-0.002366319065913558,0.028001168742775917,-0.00027835811488330364
1783169885707499800,6.829499755859375,0.005727293901145458,0.022922519594430923,-0.015806185081601143
1783169885717569800,6.83956982421875,0.014461293816566467,0.016359705477952957,-0.021817507222294807
1783169885727638800,6.849638671875,0.022502709180116653,0.021875113248825073,-0.016729803755879402
1783169885737708800,6.859708740234375,0.020069275051355362,0.018162790685892105,-0.003989685792475939
1783169885747777800,6.86977783203125,0.013765041716396809,0.018577177077531815,0.0003533971030265093
1783169885757847800,6.879847900390625,0.006724011152982712,0.013819050043821335,0.0010193651542067528
1783169885767916800,6.889916748046875,0.0009982152841985226,0.009501799941062927,0.0027610724791884422
1783169885777986800,6.89998681640625,0.000751668878365308,0.0042763943783938885,-0.0029544271528720856
1783169885788055600,6.9100556640625,-0.0027778183575719595,0.0043464358896017075,-0.0005176346749067307
1783169885798125800,6.920125732421875,-0.002163469325751066,0.007249165792018175,-0.0012936615385115147
1783169885808194600,6.930194580078125,0.0029902798123657703,-0.001270286738872528,-0.00298130651935935
1783169885818264800,6.940264892578125,0.004404720850288868,-0.006931743584573269,-0.007274331524968147
1783169885828333800,6.950333740234375,0.009457802399992943,-0.00769367441534996,-0.003362680086866021
1783169885838403600,6.960403564453125,0.007796075660735369,-0.010676559992134571,0.009653367102146149
1783169885848472800,6.970472900390625,0.009601432830095291,-0.011359128169715405,0.012344490736722946
1783169885858541800,6.980541748046875,0.011482950299978256,-0.0030738813802599907,-0.0004920803476125002
1783169885868611800,6.99061181640625,0.012782040052115917,0.004815733525902033,0.0015063555911183357
1783169885878681600,7.000681640625,0.006580996327102184,0.01677078567445278,0.0073783304542303085
1783169885888750800,7.010750732421875,0.006228127516806126,0.021742641925811768,0.008243058808147907
1783169885898819600,7.020819580078125,0.009506070986390114,0.026364678516983986,-0.010548769496381283
1783169885908889900,7.030889892578125,0.016868112608790398,0.02753380686044693,-0.023121021687984467
1783169885918958800,7.040958740234375,0.01849174126982689,0.028826896101236343,-0.02694842591881752
1783169885929028900,7.05102880859375,0.017215821892023087,0.028716906905174255,-0.02309563010931015
1783169885939097900,7.061097900390625,0.014714108780026436,0.018327787518501282,-0.022152019664645195
1783169885949167900,7.07116796875,0.00980403833091259,0.00869034044444561,-0.021781308576464653
1783169885959236900,7.08123681640625,0.007741932757198811,0.007857435382902622,-0.011085715144872665
1783169885969307000,7.091306884765625,0.004374098964035511,0.007278198376297951,-0.007067004684358835
1783169885979375900,7.1013759765625,-0.0006845123134553432,0.002571044024080038,-0.000009449897333979607
1783169885989446000,7.11144580078125,-0.0025271533522754908,-0.0023278407752513885,0.00466146832332015
1783169885999515000,7.121514892578125,-0.0035889584105461836,-0.009153900668025017,-0.002817346714437008
1783169886009585000,7.1315849609375,-0.0007580181118100882,-0.009990133345127106,-0.01080070436000824
1783169886019654000,7.14165380859375,0.003920441027730703,-0.01657973974943161,-0.010502055287361145
1783169886029724000,7.151723876953125,0.0059907822869718075,-0.01410779356956482,-0.010148121044039726
1783169886039793000,7.16179296875,0.005773444660007954,-0.015650011599063873,-0.013787122443318367
1783169886049863000,7.17186279296875,0.004349985159933567,-0.016501424834132195,-0.009905030950903893
1783169886059932000,7.181931884765625,-0.0075735594145953655,-0.015590093098580837,-0.002558292355388403
1783169886070002000,7.192001953125,-0.011292930692434311,-0.011492020450532436,0.005524667911231518
1783169886080071000,7.20207080078125,-0.009950676932930946,-0.01130493264645338,0.004358397796750069
1783169886090141000,7.212140869140625,-0.0020381594076752663,-0.0012922463938593864,-0.002288053510710597
1783169886100210000,7.2222099609375,0.006759513169527054,0.008134538307785988,-0.0063568116165697575
1783169886110279700,7.23227978515625,0.009341980330646038,0.013315185904502869,-0.007955506443977356
1783169886120349000,7.242348876953125,0.008604489266872406,0.009759195148944855,-0.01629311591386795
1783169886130418700,7.252418701171875,0.008374925702810287,0.007619079202413559,-0.02278803288936615
1783169886140488000,7.262488037109375,0.010372658260166645,0.009716879576444626,-0.017925594002008438
1783169886150558000,7.272557861328125,0.01389655377715826,0.013313744217157364,-0.019224949181079865
1783169886160627000,7.282626953125,0.013451418839395046,0.012552337720990181,-0.013294192031025887
1783169886170697000,7.292697021484375,0.010378929786384106,0.011998667381703854,-0.00693216547369957
1783169886180766000,7.302765869140625,-0.005049250088632107,0.014182575047016144,0.0021577244624495506
1783169886190836000,7.3128359375,-0.004544048570096493,0.013556466437876225,0.00258968910202384
1783169886200905000,7.322905029296875,-0.008944294415414333,0.014328811317682266,-0.005473257042467594
1783169886210975000,7.33297509765625,0.0010657296516001225,0.011927705258131027,-0.012529035098850727
1783169886221043700,7.343043701171875,0.0068783932365477085,0.0004912540316581726,-0.015567583031952381
1783169886231114000,7.353114013671875,0.015206098556518555,-0.0046188198029994965,-0.014631749130785465
1783169886241182700,7.3631826171875,0.006303457543253899,-0.004126131534576416,-0.010911719873547554
1783169886251253000,7.3732529296875,0.015677519142627716,-0.011684449389576912,-0.005987002979964018
1783169886261321700,7.38332177734375,0.0254210215061903,-0.01542365550994873,-0.018715526908636093
1783169886271391700,7.393391845703125,0.02187315747141838,-0.025549527257680893,-0.010296477004885674
1783169886281460700,7.403460693359375,0.014281796291470528,-0.025172289460897446,-0.003048347309231758
1783169886291530800,7.41353076171875,0.014588326215744019,-0.026978448033332825,-0.006335220765322447
1783169886301600000,7.42360009765625,0.018733862787485123,-0.030136553570628166,-0.0013739652931690216
1783169886311669800,7.433669677734375,0.0271473228931427,-0.02846462093293667,0.0044743362814188
1783169886321739000,7.443739013671875,0.01738169603049755,-0.024494383484125137,0.004670896101742983
1783169886331808800,7.453808837890625,0.016155576333403587,-0.022577974945306778,-0.002123626647517085
1783169886341878000,7.4638779296875,0.022901626303792,-0.027132626622915268,-0.01956373266875744
1783169886351947800,7.47394775390625,0.029672980308532715,-0.027342747896909714,-0.02787625789642334
1783169886362017000,7.48401708984375,0.04137880355119705,-0.028379924595355988,-0.007378081325441599
1783169886372086800,7.494086669921875,0.02007404714822769,-0.022574234753847122,-0.015341199934482574
1783169886382155800,7.50415576171875,0.007381973788142204,-0.02378370612859726,-0.028447750955820084
1783169886392226000,7.51422607421875,0.0051688868552446365,-0.019016649574041367,-0.028760939836502075
1783169886402294800,7.524294677734375,0.0030612442642450333,-0.015571605414152145,-0.011223291978240013
1783169886412365000,7.534364990234375,0.0040799034759402275,-0.014407804235816002,-0.011379353702068329
1783169886422433800,7.544433837890625,0.008956067264080048,-0.0176955945789814,-0.022594831883907318
1783169886432504000,7.554504150390625,0.012918318621814251,-0.01661062240600586,-0.0354674868285656
1783169886442572800,7.56457275390625,0.014119383879005909,-0.012577399611473083,-0.049174971878528595
1783169886452642800,7.574642822265625,0.013405390083789825,-0.01309405267238617,-0.05443711206316948
1783169886462711800,7.5847119140625,0.012758137658238411,-0.002885345369577408,-0.03681182116270065
1783169886472781800,7.59478173828125,0.011224955320358276,-0.0066494569182395935,-0.03758280351758003
1783169886482850800,7.604850830078125,0.006148175336420536,-0.0037190690636634827,-0.04625845327973366
1783169886492920800,7.6149208984375,-0.00009454065002501011,0.007599365897476673,-0.05539815500378609
1783169886502989800,7.62498974609375,0.0014836655464023352,0.0017082090489566326,-0.06240779533982277
1783169886513059800,7.635059814453125,0.007232098840177059,-0.00036372989416122437,-0.05652567371726036
1783169886523129000,7.645129150390625,0.006997619289904833,0.005476039834320545,-0.051085203886032104
1783169886533197800,7.65519775390625,0.005879091564565897,0.010010603815317154,-0.04470853507518768
1783169886543267800,7.665267822265625,0.0011799189960584044,0.013608820736408234,-0.039440594613552094
1783169886553337900,7.675337890625,-0.00267207738943398,0.008748550899326801,-0.03755348175764084
1783169886563406800,7.68540673828125,-0.005453377030789852,0.013476448133587837,-0.030608179047703743
1783169886573475800,7.695475830078125,-0.004484784789383411,0.012442609295248985,-0.0240890271961689
1783169886583545900,7.7055458984375,-0.0015812821220606565,0.0020814379677176476,-0.024743132293224335
1783169886593614800,7.71561474609375,0.005122959613800049,0.0002702223137021065,-0.021454928442835808
1783169886603684900,7.725684814453125,0.0053830258548259735,0.0002756919711828232,-0.012753017246723175
1783169886613753900,7.73575390625,0.003906835336238146,0.0018562781624495983,-0.003570969682186842
1783169886623824000,7.745823974609375,-0.0008385507389903069,0.0022678771056234837,-0.011546163819730282
1783169886633892900,7.755892822265625,0.00645211897790432,-0.006501113064587116,-0.019302088767290115
1783169886643963000,7.765962890625,0.0038176800590008497,-0.0034347521141171455,-0.018988223746418953
1783169886654032000,7.776031982421875,-0.001033001346513629,-0.014434406533837318,-0.018220433965325356
1783169886664102000,7.786101806640625,-0.004998082295060158,-0.005595766939222813,-0.015130194835364819
1783169886674171000,7.7961708984375,-0.004464118741452694,-0.010763631202280521,-0.007216879166662693
1783169886684241000,7.806240966796875,-0.0030092676170170307,-0.007103160955011845,-0.002154609654098749
1783169886694310000,7.816309814453125,0.00020543427672237158,-0.004046916961669922,-0.0031615509651601315
1783169886704380000,7.8263798828125,0.00090457295300439,-0.00538566242903471,-0.008296995423734188
1783169886714449000,7.836448974609375,0.001106973155401647,-0.012410814873874187,-0.013868328183889389
1783169886724518700,7.8465185546875,-0.00042850105091929436,-0.008992927148938179,-0.01294337585568428
1783169886734588000,7.856587890625,0.0027033763471990824,-0.0053052473813295364,-0.00733049726113677
1783169886744658000,7.866657958984375,0.00007600313983857632,-0.0069690486416220665,-0.006485564634203911
1783169886754727000,7.876726806640625,0.004744258243590593,-0.006822308525443077,-0.006642424501478672
1783169886764797000,7.886796875,0.005360242910683155,0.003052845597267151,-0.007043096236884594
1783169886774866000,7.896865966796875,0.0021343559492379427,0.003043258097022772,-0.00011195335537195206
1783169886784936000,7.90693603515625,-0.004779205657541752,0.0005993884988129139,-0.004971823655068874
1783169886795005000,7.9170048828125,-0.005532613955438137,-0.0002741282805800438,-0.015547503717243671
1783169886805075000,7.927074951171875,-0.004250936210155487,0.0010951277799904346,-0.021261492744088173
1783169886815144000,7.93714404296875,-0.0027678217738866806,-0.008286390453577042,-0.019111523404717445
1783169886825214000,7.9472138671875,-0.0050271051004529,-0.012603230774402618,-0.006316331680864096
1783169886835282700,7.95728271484375,-0.005015120841562748,-0.01477610319852829,0.004997575655579567
1783169886845353000,7.96735302734375,-0.0037823489401489496,-0.011330618523061275,0.006575100123882294
1783169886855421700,7.977421630859375,-0.006480131298303604,-0.0032785506919026375,0.003645889228209853
1783169886865492000,7.987491943359375,-0.004791025072336197,0.005414774641394615,-0.0013224058784544468
1783169886875561000,7.99756103515625,-0.004687960725277662,0.0015199016779661179,-0.005539787467569113
1783169886885630700,8.007630615234374,-0.0034960745833814144,-0.002740081399679184,-0.012806914746761322
1783169886895700000,8.017699951171876,-0.005938992369920015,-0.013475550338625908,-0.005971912760287523
1783169886905769700,8.027769775390626,-0.011721964925527573,-0.016868144273757935,0.0026966570876538754
1783169886915838200,8.037838134765625,-0.014070075005292892,-0.01575281098484993,0.00912259891629219
1783169886925908200,8.047908203125,-0.013174578547477722,-0.017437119036912918,-0.000016807112842798233
1783169886935977200,8.057977294921875,-0.011157235130667686,-0.009675334207713604,-0.0027446832973510027
1783169886946047200,8.068047119140624,-0.005396752618253231,-0.009036192670464516,-0.0010217009112238884
1783169886956116200,8.0781162109375,-0.01023544929921627,-0.009586401283740997,-0.0074042328633368015
1783169886966186200,8.088186279296876,-0.020801953971385956,-0.008067057467997074,-0.003082084935158491
1783169886976255500,8.09825537109375,-0.02184244990348816,-0.013835997320711613,-0.002841867506504059
1783169886986325200,8.1083251953125,-0.018535230308771133,-0.019162597134709358,-0.003660217160359025
1783169886996394500,8.11839453125,-0.013996939174830914,-0.022279296070337296,-0.0035435708705335855
1783169887006464300,8.12846435546875,-0.013603796251118183,-0.02792532369494438,0.003305598394945264
1783169887016533200,8.138533203125,-0.013320968486368656,-0.03298692777752876,0.0081498883664608
1783169887026603300,8.148603271484374,-0.012714937329292297,-0.022740669548511505,-0.0003751965705305338
1783169887036672300,8.15867236328125,-0.007976907305419445,-0.022089794278144836,-0.0062219006940722466
1783169887046742300,8.1687421875,-0.010181492194533348,-0.019464319571852684,-0.013823290355503559
1783169887056811300,8.178811279296875,-0.011620397679507732,-0.02725433185696602,-0.012628861702978611
1783169887066881300,8.18888134765625,-0.012465661391615868,-0.005548256449401379,-0.023374658077955246
1783169887076950300,8.1989501953125,-0.004779779352247715,0.0012934044934809208,-0.03338468074798584
1783169887087020300,8.209020263671874,0.0038619732949882746,-0.0020218268036842346,-0.025470778346061707
1783169887097089300,8.21908935546875,0.0008238390437327325,0.0014972742646932602,-0.027267614379525185
1783169887107159300,8.2291591796875,0.007322811521589756,-0.00929930992424488,-0.019635476171970367
1783169887117228300,8.239228271484375,0.0006515929708257318,-0.005183127708733082,0.0017435827758163214
1783169887127298300,8.24929833984375,-0.002498657675459981,0.002004855778068304,-0.0030872649513185024
1783169887137367300,8.2593671875,-0.0036669864784926176,0.0013177604414522648,-0.004404197912663221
1783169887147437300,8.269437255859375,-0.007641038857400417,-0.0005332538858056068,-0.010810271836817265
1783169887157506300,8.27950634765625,-0.0051624346524477005,-0.0005937078967690468,-0.01575576327741146
1783169887167576300,8.289576416015626,0.00105100660584867,-0.008502628654241562,-0.012345390394330025
1783169887177645300,8.299645263671875,0.0058817146345973015,-0.015400215983390808,-0.0069788540713489056
1783169887187714300,8.30971435546875,0.007318857125937939,-0.02461913973093033,0.0075978669337928295
1783169887197784000,8.3197841796875,0.0028820307925343513,-0.029962774366140366,0.006294515915215015
1783169887207853300,8.329853271484374,-0.0046432227827608585,-0.03052069991827011,0.008175097405910492
1783169887217923300,8.33992333984375,-0.007831558585166931,-0.029997654259204865,0.00024420348927378654
1783169887227992300,8.349992431640626,-0.004611713346093893,-0.035071659833192825,-0.0007610293105244637
1783169887238062300,8.360062255859376,-0.00480665685608983,-0.034108392894268036,0.0019442097982391715
1783169887248131300,8.37013134765625,-0.006098678335547447,-0.03229425847530365,0.004623243119567633
1783169887258201300,8.380201416015625,-0.008177807554602623,-0.03041646257042885,0.007078677415847778
1783169887268270300,8.390270263671875,-0.0025052172131836414,-0.0330849252641201,-0.0033023993019014597
1783169887278340400,8.40034033203125,-0.006502089090645313,-0.03922244533896446,0.0032313999254256487
1783169887288409300,8.410409423828124,-0.008935129269957542,-0.0388815775513649,0.01213067676872015
1783169887298479400,8.420479248046876,-0.0065286969766020775,-0.03721950203180313,0.00962943583726883
1783169887308548000,8.430548095703125,0.0010857722954824567,-0.04126191884279251,0.00793394260108471
1783169887318618400,8.440618408203125,0.013958161696791649,-0.046994633972644806,0.005407135933637619
1783169887328687000,8.45068701171875,0.002613627817481756,-0.053564123809337616,0.012180088087916374
1783169887338757400,8.46075732421875,-0.005624328274279833,-0.05239206552505493,0.01630638912320137
1783169887348826400,8.470826416015624,0.002259262604638934,-0.0479244738817215,-0.003141700057312846
1783169887358896000,8.480896240234374,0.030383309349417686,-0.0761161670088768,-0.0025195854250341654
1783169887368965400,8.49096533203125,0.009236130863428116,-0.06793520599603653,0.01168147288262844
1783169887379035100,8.50103515625,-0.012126682326197624,-0.05262921750545502,0.010466272011399269
1783169887389104400,8.5111044921875,-0.017795445397496223,-0.05348968133330345,-0.0055069769732654095
1783169887399174100,8.521174072265625,-0.019503597170114517,-0.054121918976306915,-0.020969290286302567
1783169887409243400,8.531243408203125,-0.02637152187526226,-0.03743760287761688,-0.02338114008307457
1783169887419313200,8.541313232421874,-0.032482679933309555,-0.015914201736450195,-0.015845458954572678
1783169887429382400,8.55138232421875,-0.02102135308086872,0.01017038431018591,0.008493863977491856
1783169887439452400,8.561452392578126,-0.012520543299615383,0.029857002198696136,0.024775898084044456
