time,seconds_elapsed,z,y,x
1783170447444829400,0.069829345703125,3.014966245090961,0.5455281421646475,-0.46519269575513894
1783170447454899200,0.079899169921875,3.461255137607455,0.6099887777678669,-0.5302792081717401
1783170447464968400,0.089968505859375,3.838531284174323,0.7531861193470657,-0.5723974443897605
1783170447475038200,0.1000380859375,4.028680346542597,0.9090708008028566,-0.5562918935675174
1783170447485108500,0.1101083984375,4.037372771564126,1.1151143285259604,-0.4481054404191673
1783170447495178500,0.120178466796875,3.805235748293996,1.299345983543992,-0.3413243970893323
1783170447505248300,0.130248291015625,3.570113571733236,1.5240332753300665,-0.28571269224360585
1783170447515317500,0.1403173828125,3.4943531050890684,1.7007669758081436,-0.28598084166049953
1783170447525387300,0.15038720703125,3.409327381971478,1.744718637998402,-0.3680604283235967
1783170447535457300,0.160457275390625,3.5877719780206676,1.8155368259347975,-0.46776349609121676
1783170447545527600,0.170527587890625,3.9266988124489783,1.992030287916213,-0.43282413852661844
1783170447555597300,0.180597412109375,4.160234012079239,2.135431043113023,-0.43788156804665923
1783170447565667300,0.190667236328125,4.242843321704864,2.013190564844757,-0.4684286820016801
1783170447575736300,0.200736328125,4.126588347586989,1.7179497274078428,-0.4040589395523071
1783170447585806300,0.210806396484375,3.702827513220906,1.4354944295249878,-0.18110797003954648
1783170447595876400,0.22087646484375,3.1108085457772017,1.2928824866183102,-0.12571926029473543
1783170447605946400,0.2309462890625,2.445567105734348,1.4644925604723393,-0.09226502672135829
1783170447616016400,0.241016357421875,1.5532541091173886,1.68797033033818,-0.09189999280124903
1783170447626085400,0.25108544921875,0.755560593393445,1.9808985069185494,-0.3027382074549794
1783170447636155400,0.2611552734375,0.3402794180810451,2.3875623682722447,-0.38693887792527676
1783170447646225400,0.271225341796875,0.15300269627869129,2.4503058246940372,-0.24349457584768533
1783170447656295400,0.28129541015625,-0.06890753200948238,2.2112749502569438,-0.08467997841984033
1783170447666365400,0.291365478515625,-0.059817047581076616,2.1400395598217843,0.15739333245307205
1783170447676435500,0.301435546875,0.026104747593402863,2.1139805510662493,0.37296120597720145
1783170447686504400,0.31150439453125,0.039515433308482166,2.0401576283559204,0.5078650587245822
1783170447696574500,0.321574462890625,-0.104983053997159,1.9300084237672388,0.5670253959625959
1783170447706644200,0.331644287109375,-0.2276952414304018,1.9117298397548497,0.6037807169079781
1783170447716714500,0.341714599609375,-0.28929741886258126,1.9409842835508286,0.6020791736871004
1783170447726784500,0.351784423828125,-0.74932199126482,1.8401216704845427,0.461829575997591
1783170447736853200,0.361853271484375,-1.0461153188407422,1.7432799834974109,0.41895723347663877
1783170447746923500,0.371923583984375,-0.684336016613245,1.7501713504463434,0.5556055918037891
1783170447756993300,0.3819931640625,0.030765725141763685,1.9238120533451437,0.7043897936046123
1783170447767063300,0.392063232421875,0.22675006953477858,2.399889350403845,0.08935352318882941
1783170447777133600,0.402133544921875,-0.44534021348953245,2.0468216162897646,0.5520709879368544
1783170447787203300,0.412203369140625,-0.4093915327519178,2.1697510997354983,-0.8660773161202668
1783170447797272300,0.422272216796875,-1.1878969484031199,2.3329591098167,-1.1480787327557802
1783170447807342300,0.43234228515625,-1.9111252979904412,1.057232632921636,-0.41208442509770393
1783170447817412400,0.442412353515625,-1.6953718387663363,0.40180969932079313,-1.2251532046079634
1783170447827482400,0.452482421875,-1.4165268403351305,0.19745542159257456,-1.6138731207311152
1783170447837552400,0.462552490234375,-1.0972750127136706,0.01792757861763239,-2.052547446590662
1783170447847621400,0.472621337890625,-0.9418249232828616,0.11840550321526824,-2.0430542265802623
1783170447857691400,0.48269140625,-1.0713006135016678,0.3398333548139781,-1.6821002692610025
1783170447867761400,0.492761474609375,-1.4578151285350323,0.6380982893124222,-1.4002718711048363
1783170447877831400,0.50283154296875,-1.9971014537006615,0.7235182724446058,-0.9155459881663321
1783170447887901200,0.512901123046875,-2.5164865620881316,0.44398938340246674,-0.6625327656060457
1783170447897971500,0.522971435546875,-2.8050445607602597,0.26777766097187994,-0.8338099542438984
1783170447908040200,0.533040283203125,-3.306094094251096,0.1420737443767488,-1.1737941887706518
1783170447918110500,0.5431103515625,-3.6836990343809126,0.012264730550348758,-2.008277512231469
1783170447928180500,0.553180419921875,-3.681560268786549,-0.25477204892635347,-3.1709453268319368
1783170447938250200,0.563250244140625,-3.4113206016153095,-0.8993985709637403,-4.079396388301253
1783170447948320500,0.573320556640625,-2.9818121635079384,-1.4273741053029894,-4.143786150625348
1783170447958389200,0.58338916015625,-2.5455621421858665,-1.8069155664533376,-3.795048700800538
1783170447968459300,0.593459228515625,-2.293013322266936,-1.971721805511415,-3.434604446569085
1783170447978529500,0.603529541015625,-2.307661440822482,-1.9847107586830852,-3.0289813264399763
1783170447988599300,0.613599365234375,-2.409389876937866,-1.681280185049772,-2.7968951565742493
1783170447998672600,0.623672607421875,-2.6834032174289226,-1.5097805858328937,-2.6348855624973773
1783170448008743000,0.633742919921875,-2.739606166166067,-1.5429890279516576,-2.83618964060843
1783170448018811600,0.643811767578125,-2.6422441085666417,-1.6872656892001627,-3.11959566334486
1783170448028881700,0.653881591796875,-2.3356486411616206,-1.8230755508765577,-3.408252446216345
1783170448038951700,0.66395166015625,-2.0521827049314973,-1.7757687330394982,-3.5987744335502385
1783170448049021700,0.674021728515625,-1.856826137048006,-1.8284230493843554,-3.37927886518836
1783170448059091700,0.684091796875,-1.6164444325238465,-1.8919491806164384,-2.995688128647208
1783170448069160700,0.69416064453125,-1.2332955945312976,-1.9108283608704804,-2.5649060173422096
1783170448079230700,0.704230712890625,-0.7997264828562736,-2.153719710128009,-1.2467775919169186
1783170448089300700,0.71430078125,-0.30704613378196954,-2.958577710653841,1.808846826776862
1783170448099370800,0.724370849609375,-0.4456625773116946,-2.940754176932573,1.6889900287747381
1783170448109440800,0.734440673828125,-0.34399902312606573,-1.5434101759731769,-1.7638006473481653
1783170448119510500,0.744510498046875,-0.5804214686304331,-1.379703130328655,-1.8661100982218979
1783170448129579800,0.754579833984375,-1.1280027439326048,-2.0283494094014167,-1.8134037594288586
1783170448139649500,0.7646494140625,-1.4127239409208296,-2.098358765172958,-2.0460469786554576
1783170448149719800,0.7747197265625,-1.4000877467095851,-2.0092519102215767,-2.2398808670163155
1783170448159789800,0.784789794921875,-1.2932111340507864,-2.180323931676149,-2.289354799759388
1783170448169859600,0.794859619140625,-1.1258595944240688,-2.363350010296702,-2.4149206230580806
1783170448179928800,0.8049287109375,-0.8870268729075789,-2.517790045902133,-2.7688918818831443
1783170448189998600,0.81499853515625,-0.707682113148272,-2.6569202841728923,-2.9314561872333287
1783170448200068600,0.825068603515625,-0.5957783199772239,-2.804133875656128,-2.9260534514069554
1783170448210139000,0.835138916015625,-0.5962646421894431,-2.8542601348280905,-2.9235201335370538
1783170448220208600,0.845208740234375,-0.7044178506553173,-2.7970237513899803,-2.9093671050220724
1783170448230278000,0.85527783203125,-1.0687053363114596,-2.7112872496545313,-2.927570870232582
1783170448240347600,0.86534765625,-1.5290402898371218,-2.734133872234821,-2.894155507364869
1783170448250417700,0.875417724609375,-1.813733429774642,-2.7841858971267937,-2.7883921166449785
1783170448260487700,0.88548779296875,-1.8817191707640886,-2.752593658033013,-2.6169512618780133
1783170448270557700,0.8955576171875,-1.779165682001412,-2.619897252202034,-2.4187772984862326
1783170448280626700,0.905626708984375,-1.607219508060813,-2.516411743286252,-2.2684487898528576
1783170448290696700,0.91569677734375,-1.3887310709148644,-2.5098048923671246,-2.1784154677063223
1783170448300766700,0.9257666015625,-1.1493351625576615,-2.5950188315331935,-2.169354793894291
1783170448310836700,0.935836669921875,-0.965174234688282,-2.717600670585036,-2.197165176361799
1783170448320906800,0.94590673828125,-0.8126099298268556,-2.784692093083262,-2.2267793933808804
1783170448330976800,0.955976806640625,-0.7683052164152264,-2.7295336849629876,-2.2219377985686064
1783170448341045500,0.96604541015625,-0.8704857802122831,-2.5196429802924394,-2.1772850023716686
1783170448351115800,0.97611572265625,-1.07113840867728,-2.280863450267911,-2.1071499743938444
1783170448361185800,0.986185791015625,-1.3172037117958069,-2.0403303545743228,-2.0220213754236696
1783170448371255600,0.996255615234375,-1.3883485013380645,-1.8879916751623154,-1.8766981277316808
1783170448381325800,1.006325927734375,-1.2366504579171538,-1.797227700653672,-1.6687953820079564
1783170448391394600,1.01639453125,-0.9871928820118308,-1.709294565656781,-1.5260183116674422
1783170448401464600,1.026464599609375,-0.7696873184233903,-1.6485446211397647,-1.4110890331953763
1783170448411534800,1.036534912109375,-0.5935989301115274,-1.5834224528878926,-1.29948042357862
1783170448421604600,1.0466044921875,-0.5242781411260367,-1.5258715966731309,-1.3722621666729449
1783170448431674600,1.056674560546875,-0.552896040584147,-1.2754355311244725,-1.4767384401917456
1783170448441743600,1.06674365234375,-0.6149716807469725,-0.8470300858229398,-1.5423790793597698
1783170448451813600,1.076813720703125,-0.8036614842176437,-0.40188744073212146,-1.6184318069487809
1783170448461884000,1.0868837890625,-1.1260770365670323,-0.12676876934766768,-1.6398200474143028
1783170448471953700,1.09695361328125,-1.323906132043898,-0.12223112591803073,-1.636167954647541
1783170448482023700,1.107023681640625,-1.2893243557453156,-0.33150515999495983,-1.6498527811288832
1783170448492092700,1.1170927734375,-1.1377905629754066,-0.5281453379482031,-1.7135113065689802
1783170448502162700,1.12716259765625,-1.09925303478837,-0.6934025356441735,-1.7346733370631933
1783170448512232700,1.137232666015625,-1.2505277382306754,-0.8396768004506826,-1.6531489000648258
1783170448522302700,1.147302734375,-1.3616308825433254,-0.883777807983756,-1.550256680867076
1783170448532372700,1.157372802734375,-1.3711976061813533,-0.8898992134734988,-1.4013760329544542
1783170448542442800,1.16744287109375,-1.3098907584339379,-0.748264591166377,-1.2013462125629186
1783170448552511700,1.17751171875,-1.3600047426462172,-0.4479544876411557,-0.9727882168233394
1783170448562581800,1.187581787109375,-1.4950684621304273,-0.06807604962140322,-0.7024100179642438
1783170448572651500,1.197651611328125,-1.659495346482098,0.3040472442269325,-0.5165244582593441
1783170448582721800,1.2077216796875,-1.7724802128881214,0.6232827052354812,-0.32517420340776443
1783170448592791800,1.217791748046875,-1.7197785502701997,0.8999021365717053,-0.09026771542429923
1783170448602860800,1.22786083984375,-1.5071376701086758,1.15345954901129,0.2588303844064474
1783170448612930800,1.237930908203125,-1.1355763940572738,1.3206263797208666,0.687114833676815
1783170448623000600,1.24800048828125,-0.5683633665680885,1.4006164467588067,1.1057687002927064
1783170448633070600,1.258070556640625,0.009505494970083236,1.4085077845305203,1.415194130426645
1783170448643140900,1.268140869140625,0.46864349379613995,1.4897279778853059,1.6324457192540167
1783170448653209600,1.278209716796875,0.7140911034077405,1.5933704309284686,1.77929047742486
1783170448663279900,1.28827978515625,0.77265800479725,1.7220599392056464,1.8698826024979351
1783170448673349600,1.298349609375,0.7438323078073561,1.941566028961539,1.8969506421655415
1783170448683419600,1.308419677734375,0.6083063776388764,2.186475147782266,1.9017022206068037
1783170448693489700,1.31848974609375,0.39932489676773547,2.4160645323961973,1.9735422989368439
1783170448703558700,1.32855859375,0.2968653698988259,2.626064834921062,2.074053175956011
1783170448713628700,1.338628662109375,0.37204438339322804,2.7854513870179654,2.203207379135489
1783170448723698700,1.34869873046875,0.4889772567726671,2.953725594447553,2.295027584698796
1783170448733768700,1.358768798828125,0.5627350052922964,3.213325501921773,2.267095621678233
1783170448743838700,1.368838623046875,0.6553567364968359,3.3635093413874504,2.2327315797835587
1783170448753907700,1.37890771484375,0.6791808258071541,3.4978064604133365,2.1685668583869933
1783170448763977700,1.388977783203125,0.5328332035034895,3.5205253649607298,2.031696966263652
1783170448774047500,1.399047607421875,0.25608371604681013,3.4261142661213873,1.824078298178315
1783170448784117800,1.40911767578125,-0.06978183062598109,3.230729056665301,1.5840513984411955
1783170448794187800,1.419187744140625,-0.3085901483535766,3.0367206885203717,1.5062299076139927
1783170448804256800,1.4292568359375,-0.3701268593341112,2.861271767155826,1.5476310085386036
1783170448814326800,1.439326904296875,-0.28375761265307664,2.7204502147972582,1.6692963172674178
1783170448824396500,1.449396484375,-0.12931143956780433,2.7293267642140386,1.8189146318048237
1783170448834466800,1.459466796875,-0.0822642955802381,2.7807807648584246,1.9913252083867787
1783170448844536800,1.469536865234375,-0.09905424847006797,2.8116210165411233,2.181237539389729
1783170448854606600,1.479606689453125,-0.2782318349689245,2.7967066482648253,2.3086837696075437
1783170448864675800,1.48967578125,-0.4876937928333878,2.72252614428848,2.3457535633295774
1783170448874745600,1.49974560546875,-0.600728781991452,2.562563253608346,2.287824521452188
1783170448884815600,1.509815673828125,-0.5662023891419172,2.3948940263345837,2.1188491800159213
1783170448894886000,1.519885986328125,-0.3566318563364446,2.265890337541699,1.9999457372158764
1783170448904954600,1.52995458984375,-0.06982625428959727,2.1406024544015527,1.8518308129787444
1783170448915024600,1.540024658203125,0.2912906385064125,2.031328717473149,1.7805904541075228
1783170448925094700,1.5500947265625,0.5826075804978609,1.98694012517035,1.7438544223845005
1783170448935164700,1.56016455078125,0.7264137016251683,1.9824410601854323,1.6813000587940214
1783170448945234700,1.570234619140625,0.7479438347794115,1.9432275324329733,1.5531015489041804
1783170448955304700,1.5803046875,0.7028250285059213,1.8412620726913214,1.4087760800778866
1783170448965373700,1.590373779296875,0.6357473422721028,1.696499089230597,1.255550096437335
1783170448975443700,1.600443603515625,0.6027227322876453,1.5614470601841806,1.1855547691911459
1783170448985513700,1.610513671875,0.5571085437126457,1.442175660854578,1.0875707803010939
1783170448995583700,1.620583740234375,0.5403928251028061,1.2723396109357477,1.018940311667323
1783170449005652000,1.63065185546875,0.5677864434629678,1.0723489535108208,0.917819778317213
1783170449015721000,1.640720947265625,0.6284618614390493,0.8624287304848433,0.8392717267811298
1783170449025791000,1.650791015625,0.7070052368000149,0.6448024631261825,0.8136030325174332
1783170449035861000,1.660861083984375,0.7284301560141145,0.4771346971571445,0.7872434333801269
1783170449045930800,1.6709306640625,0.7402665781497955,0.3255444980248809,0.7414432207137346
1783170449056001000,1.6810009765625,0.7394232591934502,0.14026011908352373,0.5977776771008968
1783170449066069800,1.69106982421875,0.6964918799616396,-0.055121583241224285,0.44096448262333865
1783170449076140000,1.70114013671875,0.6258189457148313,-0.19925474436581134,0.3095382428586483
1783170449086210000,1.7112099609375,0.5492457013830542,-0.2620990308135748,0.19308511582016943
1783170449096279800,1.72127978515625,0.4911025783635676,-0.27560966977179047,0.0879074160337448
1783170449106349800,1.731349853515625,0.40224999043419957,-0.3074272420540452,-0.019772037440538404
1783170449116418800,1.741418701171875,0.33923137033283707,-0.3335091932937503,-0.1737368567496538
1783170449126488800,1.75148876953125,0.2742027255833149,-0.3521335220038891,-0.48560675742626186
1783170449136559000,1.76155908203125,0.15917407839000225,-0.413421518920362,-0.7646744586974382
1783170449146628900,1.77162890625,0.13667057015895842,-0.4987345345467329,-0.9988462026655673
1783170449156699000,1.781698974609375,0.17773031029999256,-0.5912129117578268,-1.3215648296147584
1783170449166767900,1.791767822265625,0.15229279444366692,-0.7148632568240165,-1.6099503943294287
1783170449176838000,1.801837890625,0.07749620439559221,-0.8819476699471474,-1.8563181875258683
1783170449186908000,1.811907958984375,0.0031263153269886967,-0.9962474183440208,-2.081628579646349
1783170449196978000,1.82197802734375,-0.16687340072095394,-1.1387158611267805,-2.30902688395679
1783170449207047000,1.832046875,-0.3429629580765962,-1.2554518967598676,-2.5831401776909826
1783170449217117000,1.842116943359375,-0.46548283780813215,-1.3392910404413938,-2.8711294365644453
1783170449227187000,1.85218701171875,-0.5842166231296956,-1.1757330478787422,-3.2099545641839504
1783170449237257000,1.862257080078125,-0.7762436081990599,-0.9131383425027132,-3.3537253217369316
1783170449247327000,1.872326904296875,-1.0148829991005361,-0.7186784311980009,-3.336307738468051
1783170449257396000,1.88239599609375,-1.2252186710596085,-0.6435428184539079,-3.353517231944203
1783170449267465700,1.8924658203125,-1.3098974804356693,-0.7615589570254087,-3.460169680458307
1783170449277536000,1.902535888671875,-1.3152565232507885,-1.0666384669095277,-3.585861760485172
1783170449287606000,1.91260595703125,-1.2810358353495597,-1.3510931219160556,-3.726267425519228
1783170449297675800,1.92267578125,-1.2566272241495549,-1.6379390559732914,-3.741364456886053
1783170449307745000,1.9327451171875,-1.2912562005907295,-1.9404653742432594,-3.644156128543615
1783170449317814800,1.942814697265625,-1.3657535154312848,-2.339403317520022,-3.5429485014319417
1783170449327884800,1.952884765625,-1.4127027520023285,-2.8205168551802635,-3.3529122517883776
1783170449337955000,1.962955078125,-1.5039713150322436,-3.254738877806067,-3.1067496257752176
1783170449348024800,1.97302490234375,-1.5850677358768879,-3.5944454644352195,-2.790970442700386
1783170449358094000,1.983093994140625,-1.571343892559409,-3.8473791920185088,-2.469667527768016
1783170449368164000,1.9931640625,-1.4278022675871849,-3.9804496918588876,-2.128520094680786
1783170449378233900,2.00323388671875,-1.2539793399892747,-3.957172861167788,-1.77882402895689
1783170449388304000,2.013303955078125,-1.0592020332984626,-3.812361654651165,-1.368363990190625
1783170449398374000,2.023373779296875,-0.823038384860754,-3.5718583695739508,-0.9894786548614501
1783170449408443000,2.03344287109375,-0.575133152963966,-3.3285645769953724,-0.755181823208928
1783170449418513200,2.04351318359375,-0.4183943388968706,-3.0659178491711616,-0.5521165806442498
1783170449428583000,2.0535830078125,-0.3447638700187206,-2.794425551590323,-0.3446849595636129
1783170449438653000,2.06365283203125,-0.3183779673963785,-2.4778572639644145,-0.15394026938974856
1783170449448723000,2.073722900390625,-0.3044751142501831,-2.1638480131715534,-0.0788321291744709
1783170449458792000,2.0837919921875,-0.329722806622833,-1.7480857763439417,-0.08251461707949638
1783170449468862000,2.093862060546875,-0.44467254336103795,-1.3666110090434551,-0.20072014074325562
1783170449478932000,2.103931884765625,-0.5146767845660448,-1.0499000980764628,-0.3896346928805113
1783170449489002000,2.114001953125,-0.4870049337863922,-0.75497314889431,-0.43639527501165865
1783170449499071700,2.12407177734375,-0.4714011219412088,-0.5176613533347845,-0.467560813125968
1783170449509141000,2.13414111328125,-0.4698246664047241,-0.3826858966559171,-0.5144704483389854
1783170449519211000,2.1442109375,-0.44194384904950856,-0.3206120100587606,-0.5697288097023964
1783170449529281000,2.154281005859375,-0.42143882115930315,-0.3590846563160419,-0.706201226940751
1783170449539351000,2.16435107421875,-0.43543169067651033,-0.4323761024981737,-0.7543056248962878
1783170449549420800,2.1744208984375,-0.5932736436799169,-0.5054869314163923,-0.7772709054201841
1783170449559490000,2.184489990234375,-0.8162250515840948,-0.505252538138628,-0.8559604112535715
1783170449569560000,2.19456005859375,-1.0950994222402572,-0.42724224674105643,-0.8509995739758014
1783170449579629800,2.2046298828125,-1.3241770579397678,-0.30031507196128365,-0.8285597786307335
1783170449589700000,2.2147001953125,-1.52745857360363,-0.2800532051771879,-0.7935977708429097
1783170449599768800,2.224768798828125,-1.5516102874331175,-0.29408874479234215,-0.6995493678361177
1783170449609838800,2.2348388671875,-1.4873364065736532,-0.2967719925269484,-0.46750879067778583
1783170449619909000,2.2449091796875,-1.4510314597442746,-0.25956922007501126,-0.2164145534813404
1783170449629979000,2.254978759765625,-1.482317701628804,-0.12838701819926499,0.10562427451014518
1783170449640049000,2.265048828125,-1.6067743946418165,0.02419073066562414,0.3225818488270044
1783170449650118000,2.275117919921875,-1.7745079193234443,0.22454437618404627,0.42272330801188945
1783170449660188000,2.28518798828125,-1.8309689344748854,0.442871777549386,0.5197545262217521
1783170449670258000,2.2952578125,-1.8447955075144766,0.5709335093170405,0.6020633915960788
1783170449680328000,2.305327880859375,-1.774278056090325,0.7137167171373963,0.6736953801333904
1783170449690398000,2.31539794921875,-1.6216799950897693,0.8586883749127387,0.8033879279732704
1783170449700467000,2.325467041015625,-1.4698713309012352,1.0114315434724093,0.9271680368989705
1783170449710537000,2.335536865234375,-1.3820480860196054,1.1400471097305416,1.0221253714442253
1783170449720607000,2.34560693359375,-1.3389832896664737,1.2446543161526322,1.1038625744104384
1783170449730677000,2.355677001953125,-1.2576005992263555,1.3728767914399505,1.1707494142472743
1783170449740747000,2.3657470703125,-1.268737202529609,1.4703659825503825,1.1703840880662202
1783170449750815700,2.375815673828125,-1.3475383520439266,1.5659040395930408,1.139621285533905
1783170449760886000,2.385885986328125,-1.425921860668063,1.5517916353493928,1.1551654761463404
1783170449770956000,2.3959560546875,-1.4615876328110693,1.453410463835299,1.1477052232682705
1783170449781025800,2.40602587890625,-1.4166072120949624,1.3091717965096235,1.111125843411684
1783170449791096000,2.416095947265625,-1.3313945881031453,1.2341451970979571,1.0146271246433258
1783170449801164800,2.426164794921875,-1.3151425414822995,1.1651090702727436,0.8914479042202234
1783170449811235000,2.436235107421875,-1.344986329473555,1.144848664793372,0.7814180882275104
1783170449821305000,2.44630517578125,-1.3564514340788125,1.2094345342114567,0.7504483649462461
1783170449831374800,2.456374755859375,-1.3687889376044273,1.3095523202598094,0.7648404629141092
1783170449841444000,2.466444091796875,-1.424727536316961,1.3371782860711217,0.8121195159614085
1783170449851513900,2.476513916015625,-1.4235247363984584,1.3025418569758533,0.8686696707010269
1783170449861584000,2.486583984375,-1.438706815700233,1.286665950191021,0.9211626590043306
1783170449871654100,2.496654052734375,-1.4268933360487221,1.2725710816040634,0.9557207621663808
1783170449881724000,2.506723876953125,-1.3612677483193576,1.2972861284047363,1.0321849931657314
1783170449891793000,2.51679296875,-1.3194962066471576,1.4181591177120805,1.078529395711422
1783170449901863000,2.52686279296875,-1.3876672410756348,1.5537453997656703,1.1322931346029041
1783170449911933000,2.536932861328125,-1.4691630365014074,1.686754232546687,1.1278928538173436
1783170449922003000,2.5470029296875,-1.420474116656184,1.8455960102424025,1.0293675976574421
1783170449932073000,2.557072998046875,-1.1975012275725603,2.1693621004179118,0.7506044322907924
1783170449942142000,2.567141845703125,-1.1228238799899817,2.573165603904426,0.6467062509208917
1783170449952212000,2.5772119140625,-1.2096867554068564,2.766687942098081,0.8165998762458563
1783170449962282000,2.587281982421875,-1.2565303396463394,2.7529920097008347,0.9578320552319287
1783170449972352000,2.59735205078125,-1.18911830689162,2.504018417920172,1.0405962631583212
1783170449982421800,2.607421875,-1.0231903703272343,2.1129475547567007,0.9951181220531463
1783170449992491000,2.617490966796875,-0.8538630005829035,1.779950402638316,0.9788333422064781
1783170450002560000,2.62756005859375,-0.8045832752376795,1.493597512795031,1.1756067911505699
1783170450012630000,2.637630126953125,-0.8257464747756719,1.2676944154784082,1.3766145166635513
1783170450022699800,2.64769970703125,-0.864988059578836,1.1117676484465597,1.4847832149595022
1783170450032769000,2.65776904296875,-0.8824806077800691,1.0107879848718642,1.6594155592441557
1783170450042839000,2.667839111328125,-0.8002528448179363,0.9041428428813815,1.757378505346179
1783170450052908800,2.67790869140625,-0.6975413890145719,0.7364458508178592,1.8153847041130065
1783170450062979000,2.68797900390625,-0.543403112834692,0.5337953265339136,1.8552058423697948
1783170450073048800,2.698048828125,-0.403536961504817,0.33684272163063284,1.9038053303658962
1783170450083118000,2.7081181640625,-0.29291268675029275,0.2373807691425085,1.8821096313863992
1783170450093188000,2.71818798828125,-0.1395893802151084,0.30055940211117266,1.841324032011628
1783170450103257900,2.7282578125,-0.019456834011524916,0.518514463032782,1.7744278398245572
1783170450113327900,2.738327880859375,0.06930149976313114,0.8499789987564086,1.7165169181257485
1783170450123398000,2.74839794921875,0.15508300968408584,1.200629004204273,1.5987901178896426
1783170450133467000,2.758466796875,0.16060206536650656,1.559833487507701,1.4237766653329134
1783170450143537200,2.768537109375,0.10877893914878367,1.8594588236391543,1.2238292625278233
1783170450153607000,2.77860693359375,0.028663784426450727,2.0440023210853338,1.0702420443594456
1783170450163677000,2.788677001953125,0.000021919570863246917,2.1074691233456133,0.8810106813579798
1783170450173746000,2.798745849609375,0.11385200462937355,2.0691209802508355,0.6561848578840493
1783170450183816000,2.80881591796875,0.2679280292280018,1.9471271702200172,0.3424550085544586
1783170450193886000,2.818885986328125,0.4122890077590942,1.7628472921460865,0.01111702181994915
1783170450203956000,2.8289560546875,0.5132485053285956,1.530099443501234,-0.2712923910945654
1783170450214026000,2.83902587890625,0.5980313596010208,1.2931816156953573,-0.4164712618798017
1783170450224095000,2.849094970703125,0.5566127230197191,1.0999348795726895,-0.5153408014327288
1783170450234165000,2.8591650390625,0.3236433405786753,0.8904933799743652,-0.5734323403954505
1783170450244235000,2.869235107421875,0.08261647001877427,0.69685939809978,-0.6331903512656688
1783170450254304800,2.8793046875,-0.12070245504602789,0.5655211288794875,-0.6645604720413685
1783170450264375000,2.889375,-0.17945801087543367,0.4133396858558058,-0.6771592568516731
1783170450274443800,2.89944384765625,-0.13988880155310035,0.25973756237924095,-0.6411807654976844
1783170450284514000,2.90951416015625,-0.03617182196900248,0.05435264469534158,-0.6737573394536972
1783170450294584000,2.919583984375,0.08555836868956684,-0.09740765030682086,-0.6252613118320703
1783170450304653800,2.92965380859375,0.15002923342585564,-0.2104717194288969,-0.5724351460516452
1783170450314724000,2.93972412109375,0.06938347895815968,-0.34837037007808686,-0.5136129547268152
1783170450324792800,2.949792724609375,-0.047675943410396576,-0.47396425042748447,-0.5421481443375349
1783170450334862800,2.95986279296875,0.0034895956814289092,-0.5904761219158768,-0.610754063051939
1783170450344933000,2.96993310546875,0.10520634135901927,-0.6477975532889366,-0.663334145116806
1783170450355003000,2.9800029296875,0.28543811308592554,-0.7150076337307691,-0.6858493437856436
1783170450365072100,2.990072021484375,0.454306194755435,-0.7723328644961118,-0.6336088689386844
1783170450375142000,3.000141845703125,0.5918272442638873,-0.8561825295716523,-0.6065840838909149
1783170450385212000,3.0102119140625,0.7159130581378936,-0.9720563954174518,-0.664029726165533
1783170450395282000,3.020281982421875,0.7401379833340644,-1.094237836974859,-0.8067693871051073
1783170450405352000,3.03035205078125,0.6649668608851731,-1.2658885351002216,-0.9826286428362131
1783170450415421000,3.0404208984375,0.6141572956241667,-1.4561141698360442,-1.1478817488789557
1783170450425491000,3.050490966796875,0.675688015255332,-1.6381564981162546,-1.2251438522577285
1783170450435561000,3.06056103515625,0.7342302205950021,-1.7680249870449303,-1.2120891403734684
1783170450445631000,3.070630859375,0.7406710672974586,-1.8470020776480436,-1.2242489492446182
1783170450455700000,3.080699951171875,0.8714666079431772,-1.9164625673651694,-1.3261509883612395
1783170450465770000,3.09077001953125,0.9790525379151105,-1.9695453382551669,-1.3786626813650131
1783170450475839700,3.10083984375,0.9358370810449123,-2.0072358942240474,-1.3933493783652782
1783170450485910000,3.110909912109375,0.8256085276097058,-1.9818407562047242,-1.38922440738976
1783170450495980000,3.12097998046875,0.596785158932209,-1.9171008652687072,-1.3760411006897688
1783170450506049000,3.131049072265625,0.3075894468784332,-1.8484674740254878,-1.3475818989247084
1783170450516119000,3.141119140625,-0.02386675940826535,-1.726464311644435,-1.3559049061119555
1783170450526188800,3.151188720703125,-0.283487417409569,-1.6479367183744906,-1.332619307592511
1783170450536258800,3.1612587890625,-0.35636955213844773,-1.6429706203997134,-1.2987532783478497
1783170450546329000,3.1713291015625,-0.3357048036418855,-1.6278730045109986,-1.276758888682723
1783170450556397800,3.181397705078125,-0.3929442558199167,-1.5997925729304552,-1.3021113566040992
1783170450566468000,3.191468017578125,-0.48048941441252824,-1.500719619759917,-1.3436691093951463
1783170450576537900,3.201537841796875,-0.7272229721814394,-1.2892811011254788,-1.3638310229361057
1783170450586607900,3.21160791015625,-1.09626422823593,-1.0115952096015215,-1.3633148901075125
1783170450596676900,3.2216767578125,-1.4855704198144375,-0.7792787381112575,-1.3400836521238089
1783170450606747000,3.231746826171875,-1.9236311438202858,-0.6505757858306169,-1.2197294259935616
1783170450616817000,3.24181689453125,-2.2124152063332496,-0.7010030737757682,-1.0934838037371635
1783170450626887000,3.251886962890625,-2.298956740841269,-0.9988789358913898,-0.9492448441505431
1783170450636957000,3.26195703125,-2.279001748049259,-1.3570979152888059,-0.8043821997076273
1783170450647026200,3.272026123046875,-2.3009031987339257,-1.676217056441307,-0.6686117932587862
1783170450657096000,3.282095947265625,-2.3605104029566046,-1.9756150135576724,-0.5439736061990261
1783170450667166000,3.292166015625,-2.4508874239742755,-2.157036579591036,-0.4171954845011234
1783170450677236000,3.302236083984375,-2.5873352912932632,-2.2321032187521457,-0.18641279844939707
1783170450687305000,3.312304931640625,-2.7647955524802206,-2.2154390841990708,0.02611351542174816
1783170450697375000,3.322375,-2.8199060298055407,-2.1205746886342762,0.17208499788939952
1783170450707445000,3.332445068359375,-2.8168764528512953,-2.0047721344590186,0.32480244748592374
1783170450717515000,3.342514892578125,-2.770585241797566,-1.8298218102663755,0.42089726162850855
1783170450727584800,3.352584716796875,-2.762396674644947,-1.6211001493752002,0.41809623273313046
1783170450737654000,3.362654052734375,-2.8460657224565744,-1.363293262797594,0.4163116874039173
1783170450747724000,3.37272412109375,-2.9686481460303065,-1.1048398950099945,0.3537368655472994
1783170450757793800,3.382793701171875,-3.0325363885730505,-0.8743155676335096,0.2799053211390972
1783170450767864000,3.392864013671875,-3.049997226461768,-0.7286766781210899,0.24723931533396243
1783170450777932800,3.402932861328125,-3.09553674236536,-0.6340092664331197,0.13829437196850775
1783170450788003000,3.413003173828125,-3.2242735969156024,-0.5367413168579339,0.0861561884522438
1783170450798073000,3.423072998046875,-3.3091999513119457,-0.4548977309077978,0.054666825211048126
1783170450808142800,3.433142822265625,-3.3746541279971596,-0.41700551488697524,0.01518295608460903
1783170450818212900,3.443212890625,-3.3956501542747017,-0.3827876034647226,-0.013590718457102774
1783170450828281900,3.45328173828125,-3.521054649531841,-0.31268121705949303,-0.05657002848386764
1783170450838352000,3.463351806640625,-3.708036772301793,-0.20012977363467216,-0.05507891314327717
1783170450848422100,3.473422119140625,-3.7728310237735507,-0.11111118148863315,-0.020782091265916822
1783170450858492000,3.483491943359375,-3.7259576289176937,-0.09827624983489512,0.05524433283805847
1783170450868562000,3.49356201171875,-3.5502620393157005,-0.18169453775584696,0.0060655836492776866
1783170450878631000,3.503630859375,-3.335031727182865,-0.32210604800879955,-0.05509527975618839
1783170450888701000,3.513700927734375,-3.1747149084985256,-0.4397551068335771,-0.04705518116354942
1783170450898771000,3.52377099609375,-3.0964982808738943,-0.5603992558211088,-0.019751579174399375
1783170450908841000,3.533841064453125,-3.0752292828738685,-0.6099661275446414,0.049316111832857126
1783170450918910000,3.543909912109375,-3.139762253060937,-0.5534387691587209,0.10867138712108135
1783170450928980000,3.55397998046875,-3.157908150604367,-0.44302726037204265,0.036926585859060286
1783170450939050000,3.564050048828125,-3.0592560531944035,-0.3361234674453735,0.1015320367604494
1783170450949120000,3.5741201171875,-2.9476614721029994,-0.30626375123262406,0.18719430421590805
1783170450959190000,3.58418994140625,-2.9175919125318526,-0.2184492741793394,0.2548305011153221
1783170450969259000,3.594259033203125,-2.8989795665204525,-0.11943185058832168,0.3539496315151453
1783170450979328800,3.604328857421875,-2.8861218385130165,0.03413783192336559,0.46197979812324047
1783170450989399000,3.61439892578125,-2.8225638508379456,0.12488017912209033,0.5441641603350639
1783170450999469300,3.62446923828125,-2.6912469166666266,0.17767828785181045,0.648378568047285
1783170451009538300,3.634538330078125,-2.5092484275281426,0.23677169733345507,0.7387894913345575
1783170451019608300,3.6446083984375,-2.2315607824385166,0.29929917291700836,0.7687094133019446
1783170451029678300,3.65467822265625,-1.917395756562054,0.2837269252538681,0.749514298966527
1783170451039748400,3.664748291015625,-1.6517378642231224,0.28246494249403475,0.7574398312687873
1783170451049818400,3.674818359375,-1.4667363938763738,0.3438689670056104,0.689863840124011
1783170451059887400,3.684887451171875,-1.3209597033284604,0.40881314834207294,0.5858633674234152
1783170451069957400,3.694957275390625,-1.2743199710980058,0.5453817194312811,0.5710433994323015
1783170451080027400,3.70502734375,-1.5298825858801604,0.6804854786649346,0.5072720612674951
1783170451090097400,3.715097412109375,-1.6023393348038195,0.7416814133837819,0.37960371273159976
1783170451100166400,3.72516650390625,-1.4903108923397956,0.7102367660671473,0.24328034857511519
1783170451110236400,3.735236328125,-1.307391927355528,0.6004603403136134,0.07825462154746055
1783170451120306200,3.74530615234375,-1.0391939951449631,0.46949148892760273,-0.03837503110170364
1783170451130376400,3.75537646484375,-0.8002803173467516,0.3377355788171291,-0.1058452237844467
1783170451140445200,3.765445068359375,-0.605457417948544,0.23236381776332854,-0.13159867372214792
1783170451150515200,3.77551513671875,-0.448892060752213,0.21802958746254442,-0.15362345852553844
1783170451160585500,3.78558544921875,-0.30936902377158404,0.2249462349832058,-0.1461614520817995
1783170451170655200,3.7956552734375,-0.2284074813529849,0.23413871848136186,-0.18299626800417898
1783170451180725200,3.805725341796875,-0.13749240793585776,0.30756343565434213,-0.21539748539328574
1783170451190794200,3.815794189453125,-0.0669762716859579,0.36087855399549007,-0.20374387247860432
1783170451200864300,3.8258642578125,0.004907061263918876,0.3394631332620978,-0.22528233506977557
1783170451210934500,3.8359345703125,0.14017887054085731,0.36359015104174613,-0.22303543292582034
1783170451221004300,3.84600439453125,0.256984756539762,0.4070318178832531,-0.10901450147032737
1783170451231073300,3.8560732421875,0.36653526458293195,0.46149435269385575,0.055744099053740497
1783170451241143300,3.866143310546875,0.4270902710497379,0.5792354737162589,0.14555238027274608
1783170451251213300,3.87621337890625,0.47534196852147576,0.6335141763925553,0.21653145785927772
1783170451261283300,3.886283447265625,0.5813520274788141,0.7461454070553183,0.1859416738063097
1783170451271353300,3.896353271484375,0.6981292719051242,0.9459475561708212,0.0853197376281023
1783170451281422300,3.90642236328125,0.7859566084399819,1.2086015905186533,-0.007503507497906684
1783170451291492000,3.9164921875,0.7857210461184382,1.5476698792442678,-0.0031663550764322278
1783170451301562400,3.926562255859375,0.6903694515585899,1.872014938351512,0.13657412404716013
1783170451311632400,3.93663232421875,0.6079407591968774,2.0008464854478833,0.3407318380236625
1783170451321701400,3.946701416015625,0.5669976311728357,2.049073925261199,0.46604982404112816
1783170451331771400,3.956771484375,0.6245087398990988,2.0959841449961063,0.5575841984003782
1783170451341841200,3.966841064453125,0.7488362535744905,2.146282545864582,0.6149836634457111
1783170451351911400,3.976911376953125,0.9524348723635077,2.1753549110919237,0.666338587629795
1783170451361981400,3.9869814453125,1.1133394278079272,2.1977727868661283,0.8605202665150165
1783170451372050200,3.99705029296875,1.0707524780996143,2.155342635154724,0.9608253918290137
1783170451382120400,4.007120361328125,0.9601093525141478,1.9697475828289985,0.9709767834872007
1783170451392190200,4.017190185546875,0.8607863701052964,1.727739446146786,0.995471173274517
1783170451402260200,4.02726025390625,0.670574033242464,1.5664514443427324,1.0061310989767311
1783170451412329500,4.03732958984375,0.20830781939327717,1.4743874931514263,0.9993401236623525
1783170451422399200,4.047399169921875,-0.35404140145182605,1.3820599225878716,1.0876672264128924
1783170451432469200,4.05746923828125,-0.5583247876346111,1.2778306095674634,1.138444642969966
1783170451442539300,4.067539306640625,-0.31945173410773275,1.19335199893862,1.1321019959449767
1783170451452609300,4.077609375,0.09912322205305099,1.129786997000873,1.2778110280841588
1783170451462678500,4.087678466796875,0.5328542462915182,1.1360185848668216,1.3527321212947367
1783170451472748300,4.097748291015625,0.8652759366095065,1.2152201318755744,1.356694595184922
1783170451482818300,4.107818359375,1.007575452566147,1.3255442546397447,1.2427625110566616
1783170451492888300,4.117888427734375,0.9393753381736576,1.3784779724478722,1.0697644899755716
1783170451502957300,4.127957275390625,0.6724540017701685,1.3839470515087247,0.8832482311516999
1783170451513027300,4.13802734375,0.3287843567289412,1.352041508682072,0.7497878552109003
1783170451523097300,4.148097412109375,0.043952977364510294,1.3461156257644296,0.6508709693849086
1783170451533167400,4.15816748046875,0.09638795187026261,1.371760354630649,0.6705185036629439
1783170451543237000,4.168237060546875,0.367068640807271,1.40465724658221,0.7806307372421025
1783170451553306400,4.178306396484375,0.4553557038083672,1.428510708117485,0.819476308465004
1783170451563376400,4.18837646484375,0.3632666181758046,1.4718968453794716,0.784615422964096
1783170451573446400,4.1984462890625,0.2326119473055005,1.535399595735967,0.7616232544332743
1783170451583516400,4.208516357421875,-0.025373510709404943,1.5479457735762,0.735422060728073
1783170451593585200,4.218585205078125,-0.32055881856679913,1.4321873508036136,0.6629074441373348
1783170451603655400,4.228655517578125,-0.4869178400248289,1.255469724677503,0.47744215567111964
1783170451613725400,4.238725341796875,-0.5155053443446755,1.0492308205127716,0.14790683444440364
1783170451623795200,4.248795166015625,-0.42624739048480986,0.9072291184589266,0.004571545699238777
1783170451633864400,4.258864501953125,-0.4080027087420225,0.8163979239329695,-0.041404023534059524
1783170451643934200,4.268934326171875,-0.5077592602625489,0.7079968781858682,-0.06014730244874954
1783170451654004200,4.279004150390625,-0.49455491077452896,0.6042606093794107,-0.07542202847003936
1783170451664074500,4.289074462890625,-0.37751565441116686,0.513279484988749,-0.018971242451667786
1783170451674144300,4.299144287109375,-0.26459245506450535,0.4030915558248758,0.055852235603332516
1783170451684213500,4.309213623046875,-0.1568529419660568,0.2957201453864574,0.10178805734813212
1783170451694283300,4.319283203125,0.013055588667094708,0.16695055761039257,0.12938918097913266
1783170451704353300,4.329353271484375,0.12014613633751868,0.06789397105276584,0.15853168883323668
1783170451714423300,4.33942333984375,0.13511340384483336,-0.028416531667113304,0.19751170009076593
1783170451724492300,4.3494921875,0.071342065680027,-0.12459142530858516,0.13557166900634765
1783170451734562300,4.359562255859375,-0.025107407119125125,-0.2768909417539835,0.058036009383201595
1783170451744632300,4.36963232421875,-0.14941197831034658,-0.43567280595600605,-0.04662614209651947
1783170451754702300,4.379702392578125,-0.18410101437568663,-0.6108423258572816,-0.14734686247408388
1783170451764771300,4.389771240234375,-0.12202055190727114,-0.8067857537180185,-0.20943185498714445
1783170451774841300,4.39984130859375,0.07998363729715346,-0.9457564175128936,-0.04279635467529297
1783170451784911400,4.409911376953125,0.3490229887679219,-0.9140911131829023,0.21692659465670586
1783170451794981000,4.419981201171875,0.5716124314919114,-0.8707458924531936,0.44434243462383743
1783170451805051400,4.430051513671875,0.6494318764925002,-0.959034416759014,0.5085948343038559
1783170451815120100,4.4401201171875,0.6130348674654961,-1.100221003037691,0.4316454501360655
1783170451825190400,4.4501904296875,0.5518173054367304,-1.269222063437104,0.31993922536373137
1783170451835260400,4.460260498046875,0.41332083502486344,-1.4268623563885687,0.1819365298181772
1783170451845330200,4.470330078125,0.33863954191952944,-1.5173060129016638,0.015478724160790443
1783170451855399400,4.4803994140625,0.3584693008966744,-1.6288006407499311,-0.18127192842960357
1783170451865469200,4.49046923828125,0.46754853816628456,-1.7795581884503364,-0.3534229772925377
1783170451875539200,4.500539306640625,0.6474515163302421,-1.8765233556866645,-0.47777474862635133
1783170451885609500,4.510609375,0.8119716319233179,-1.878400839996338,-0.53473465321064
1783170451895678200,4.52067822265625,0.8408429216206074,-1.8509505230128764,-0.6410434028536081
1783170451905748500,4.53074853515625,0.6472934031590819,-1.846298313292861,-0.8098404651135206
1783170451915818200,4.540818359375,0.4598670437529683,-1.8668115244895218,-1.027467316994071
1783170451925888300,4.55088818359375,0.40798166595399377,-1.790124006128311,-1.2838555689454079
1783170451935958300,4.560958251953125,0.4449994372278452,-1.6369377699762582,-1.5197645119696854
1783170451946027300,4.57102734375,0.40586657349616284,-1.4863245991826057,-1.7031845583438872
1783170451956097300,4.58109716796875,0.32811113364249467,-1.4803127915471792,-1.820404578101635
1783170451966167300,4.591167236328125,0.3238561065465212,-1.5570593466192484,-1.8724772951662538
1783170451976237300,4.6012373046875,0.2965308772474527,-1.6909499306708573,-1.9363561853587625
1783170451986306300,4.611306396484375,0.24588161711469292,-1.7971879531651733,-2.01760063637197
1783170451996376300,4.621376220703125,0.2830110320694744,-1.8724205965429543,-2.082827434042096
1783170452006445300,4.6314453125,0.4186325315669179,-1.7296581392496824,-2.2271628397405148
1783170452016515600,4.641515625,0.4520284590817988,-1.1677519859969616,-2.4150638309210537
1783170452026584300,4.651584228515625,0.2864071042485535,-0.5208855760782957,-2.253424823722243
1783170452036654600,4.661654541015625,-0.08312778054177761,-0.02773907079696655,-2.254163659390807
1783170452046724600,4.671724609375,-0.6108760819964111,0.22074001546502112,-2.4104127902448176
1783170452056794400,4.68179443359375,-0.9125840696208178,0.19594751951396464,-2.6017069309949874
1783170452066864400,4.691864501953125,-0.9048749565482139,-0.09184066382944583,-2.970862314948439
1783170452076933400,4.701933349609375,-0.8081047273620963,-0.5298451276034116,-3.268244256067276
1783170452087003400,4.71200341796875,-0.7264926120802759,-0.9591998364537954,-3.307707082405686
1783170452097073700,4.72207373046875,-0.6876131385877728,-1.4320511572033165,-3.1925895878851414
1783170452107143400,4.732143310546875,-0.7624845474377274,-1.9622610264658926,-3.016656682395935
1783170452117212400,4.74221240234375,-0.9361977310508489,-2.439830607908964,-2.8062936840385198
1783170452127282400,4.752282470703125,-0.9800710673078894,-2.876581272229552,-2.5014146651625633
1783170452137352400,4.7623525390625,-1.1963552724078297,-3.284793824329972,-2.244911262398958
1783170452147422500,4.77242236328125,-1.3838421298295258,-3.4842701024919744,-1.9552116924762726
1783170452157491500,4.782491455078125,-1.323444505881518,-3.4183833796083927,-1.6879676999896764
1783170452167561500,4.7925615234375,-1.2283514161273836,-3.184502143019438,-1.3363497262924908
1783170452177631500,4.802631591796875,-1.0933416187874971,-2.7721622818559406,-1.075164887714386
1783170452187701500,4.812701416015625,-0.9555060965023934,-2.33364519238472,-0.771222857427597
1783170452197770500,4.8227705078125,-0.6889949483349919,-1.81474406812191,-0.5001601834356785
1783170452207840500,4.832840576171875,-0.4392407275706529,-1.316513391444087,-0.38047172773778437
1783170452217910500,4.84291064453125,-0.19214213588163256,-0.9336451239585876,-0.4473556449651718
1783170452227980300,4.852980224609375,0.07953004831075668,-0.5294219337552786,-0.4761819264769554
1783170452238050600,4.863050537109375,0.3976496570318937,-0.057360594339668745,-0.4633043247252702
1783170452248119600,4.87311962890625,0.4607829895541072,0.19676438885480163,-0.4778805470883846
1783170452258189300,4.883189208984375,-0.022210516633838415,0.3990449107825756,-0.5148474649578333
1783170452268259600,4.893259521484375,-0.1304892511755228,0.6714052233695984,-0.3090437373399734
1783170452278329300,4.903329345703125,-0.1755365996479988,0.832620744459331,-0.04833411505818367
1783170452288398600,4.913398681640625,-0.18158099437877534,0.9147659437045454,0.19256079968512058
1783170452298468600,4.923468505859375,-0.05565349816083908,1.2148922150954604,0.47520460587739943
1783170452308538400,4.933538330078125,-0.08749035966545343,1.4793255340754985,0.6954343337327241
1783170452318608600,4.943608642578125,-0.2864097345970571,1.6799623804494737,0.418132473090291
1783170452328677400,4.953677490234375,-0.5459294164419174,2.1084996354371306,0.09571545943617821
1783170452338747400,4.963747314453125,-0.8790139545828104,2.4407433388397095,0.10741583410203456
1783170452348817700,4.973817626953125,-0.9980182274088263,2.3489739866808055,-0.03457973047196865
1783170452358887400,4.983887451171875,-0.7209853929661214,2.604683900979161,-0.013609423157572745
1783170452368956700,4.993956787109375,-0.26675299409925934,2.6543817056059837,0.2287228309124708
1783170452379026400,5.0040263671875,0.023618922127038238,2.6258114446818825,0.42056992937028403
1783170452389096400,5.014096435546875,0.013947569070756435,2.6931276158466932,0.539169420787692
1783170452399166500,5.02416650390625,-0.3099766342759132,2.8799893271073698,0.6857429608017206
1783170452409236500,5.034236572265625,-0.5726748000264168,3.0799525120034814,0.6712246061056852
1783170452419305500,5.044305419921875,-0.4265618632614612,3.143426036265492,0.6899193697035312
1783170452429375500,5.05437548828125,-0.27922639896422624,3.1261659816458818,0.7912456547588109
1783170452439445500,5.064445556640625,0.0024985388174653053,3.0641981857717036,0.9184943165779114
1783170452449515500,5.074515625,0.3425868182405829,2.968555791571736,0.9719751468747854
1783170452459584500,5.08458447265625,0.4328533646211028,2.8259330350100993,0.9308212987095117
1783170452469654500,5.094654541015625,0.37707477877587076,2.6772461561039087,0.8918120613574981
1783170452479724300,5.104724365234375,0.3453369937315583,2.5969191121965647,0.8639052327781915
1783170452489794600,5.114794677734375,0.2912649195432663,2.495076109790802,0.7638345007419586
1783170452499863300,5.12486328125,0.26930589345246553,2.3659188378714022,0.6752402714878321
1783170452509933600,5.13493359375,0.4496951938286423,2.324353340165317,0.6312298648476601
1783170452520003600,5.145003662109375,0.7999336958661675,2.331137593477964,0.6997703171104193
1783170452530073300,5.1550732421875,1.1682517522126437,2.421887539461255,0.9622866965532302
1783170452540142600,5.165142578125,1.4090148572698236,2.559019881913066,1.2803817553550003
1783170452550212400,5.17521240234375,1.4372802900284527,2.5858017981156705,1.506846578207612
1783170452560282400,5.185282470703125,1.340614397999644,2.6056021848678586,1.6315736125946043
1783170452570352600,5.1953525390625,1.0614154715642332,2.603148946496844,1.6292010382443665
1783170452580421400,5.20542138671875,0.9024921530649066,2.5923370451033114,1.5986369731545447
1783170452590491600,5.21549169921875,1.02648064404428,2.4843635771185157,1.670256102210283
1783170452600561400,5.2255615234375,1.4133745137840508,2.4863877764225006,1.8630957188367843
1783170452610631400,5.23563134765625,1.786493248410523,2.5236750122874976,2.0551088215112685
1783170452620701400,5.245701416015625,2.0947528496354817,2.499324122624099,2.170044529724121
1783170452630770400,5.2557705078125,2.315041029679775,2.41135971570611,2.24072959280014
1783170452640840400,5.26584033203125,2.304293133433163,2.3410336952008306,2.1277701530963182
1783170452650910500,5.275910400390625,2.0167291142344475,2.199740872068703,1.7476701812803743
1783170452660980500,5.28598046875,1.6624448439374566,1.941516782992333,1.3804916503578424
1783170452671049500,5.296049560546875,1.4887518263295292,1.6523526351206004,1.2710679835647345
1783170452681119500,5.306119384765625,1.3932795279994605,1.466767665797472,1.1268699405103921
1783170452691189500,5.316189453125,1.5441212468519805,1.2305233533389865,1.0115864417731761
1783170452701256400,5.32625634765625,1.8445222435310482,0.8852193850941955,0.9508364972561597
1783170452711326700,5.33632666015625,2.222314522926509,0.6302762173846364,0.8128694575458765
1783170452721396500,5.346396484375,2.4429136686161157,0.49827115481868384,0.6709224082887172
1783170452731466500,5.356466552734375,2.4960867481380697,0.6728589293092488,0.4507908801108598
1783170452741536300,5.366536376953125,2.289068676294386,1.0669745669960975,0.28308278213143345
1783170452751605500,5.37660546875,1.8732889038100837,1.5782196235477923,0.4255056322067976
1783170452761675500,5.386675537109375,1.3425178935334086,2.1286932592906056,0.7854664868354797
1783170452771745500,5.39674560546875,0.8396221476539969,2.546119483807683,1.1368196721166373
1783170452781815600,5.406815673828125,0.4187918137818575,2.7900428064614533,1.3614818294614552
1783170452791884500,5.416884521484375,0.160345752517879,2.9798265426486727,1.5279016411960125
1783170452801954600,5.42695458984375,-0.2302633383527398,3.08172712046057,1.5946686540454624
1783170452812024600,5.437024658203125,-0.7028571772098541,2.983208878563344,1.4201122976064682
1783170452822094300,5.44709423828125,-1.0412065040111542,2.7650197166249155,0.8665484407633542
1783170452832163600,5.45716357421875,-1.1450903645947574,2.52204770334661,0.24355273577570913
1783170452842233300,5.4672333984375,-0.9401210419744253,2.1702853527426718,-0.21610592592358588
1783170452852303600,5.4773037109375,-0.5643175983086228,1.6455062763571737,-0.509282816568017
1783170452862373600,5.48737353515625,-0.13614566950201987,1.0246107585191726,-0.5860112514615059
1783170452872442400,5.4974423828125,0.1433516553580761,0.5078945770800113,-0.5547691409796476
1783170452882512600,5.5075126953125,0.002997428250312805,0.30686317843049765,-0.511326889616251
1783170452892582400,5.51758251953125,-0.4983990189820528,0.29101299060881136,-0.4557341817319393
1783170452902652400,5.52765234375,-1.1183873588472604,0.4538984907373786,-0.3683224402606487
1783170452912721400,5.537721435546875,-1.5049001203149557,0.6531470976233482,-0.43513621486127374
1783170452922791400,5.54779150390625,-1.7069084011726081,0.7791922288715839,-0.681657737314701
1783170452932861400,5.557861328125,-1.6766313363306224,0.8027800252079963,-0.8173492333084345
1783170452942931500,5.567931396484375,-1.4408219081580638,0.8645528830319642,-0.7482838803887367
1783170452953000400,5.57800048828125,-1.2313047129750252,1.053275127467513,-0.8110159386336803
1783170452963070500,5.588070556640625,-1.2457535095661878,1.2075552963361142,-0.8817237980633974
1783170452973140500,5.598140380859375,-1.458930688561499,1.322169809770584,-0.938351694214344
1783170452983210500,5.60821044921875,-1.7883444292351602,1.3892416507855057,-1.05721597404778
1783170452993279500,5.618279541015625,-2.1432377713412043,1.352222710467875,-1.1434066492915154
1783170453003349500,5.628349609375,-2.2492400853835046,1.2558701221719384,-1.2313555663794278
1783170453013419300,5.638419189453125,-2.0393980421602724,1.1059569163411855,-1.1761276001542806
1783170453023489500,5.648489501953125,-1.6091120438091455,0.8779404801324009,-0.996625604006648
1783170453033558300,5.658558349609375,-1.1410744069516658,0.6082368195340037,-0.8124906873613595
1783170453043628500,5.668628662109375,-0.7280697982691228,0.40879911981672046,-0.5886246488302945
1783170453053698600,5.678698486328125,-0.5293395161688328,0.3090326314240694,-0.28524960477650163
1783170453063768300,5.688768310546875,-0.5456207888841629,0.23843729245811698,-0.0025227964758872986
1783170453073838600,5.698838623046875,-0.6076274554640054,0.11908259875923395,0.23101591028571128
1783170453083909600,5.70890966796875,-0.7279264442756772,0.0032651392757892606,0.36939679149389265
1783170453093979600,5.718979736328125,-0.9695949737399816,-0.11076514452993869,0.4685363801598549
1783170453104049400,5.72904931640625,-1.155314383097738,-0.2690688698261976,0.5429997927308082
1783170453114119400,5.739119384765625,-1.1956721124492584,-0.44116614267528054,0.5743009399235248
1783170453124189400,5.749189453125,-1.0986145907543599,-0.6321002179414034,0.5532365245848894
1783170453134258400,5.759258544921875,-0.9887257906675339,-0.7662748796314001,0.4293488636314869
1783170453144328700,5.76932861328125,-0.8728671223908663,-0.8955915798962115,0.34365561651587484
1783170453154398500,5.7793984375,-0.7785097995653748,-0.9604285014659166,0.34295594381392003
1783170453164467500,5.789467529296875,-0.6836772604435681,-1.0106693269282578,0.27103929311633107
1783170453174537500,5.799537353515625,-0.5853812829948961,-1.0275035573512314,0.10134791236519813
1783170453184607500,5.809607421875,-0.5467794573999941,-1.088540502116084,-0.056633156847953794
1783170453194677500,5.819677490234375,-0.5456548372842371,-1.2122744338124989,-0.28272096308171746
1783170453204747500,5.82974755859375,-0.5899065053343773,-1.393995275053382,-0.5046878899931907
1783170453214816500,5.83981640625,-0.4920316759072244,-1.5955436833143233,-0.7023755311727523
1783170453224886500,5.849886474609375,-0.30360344598218797,-1.7836258762806654,-0.8785673798590898
1783170453234956500,5.85995654296875,-0.005189239206165075,-1.9608353775769471,-0.9525929855346679
1783170453245026600,5.870026611328125,0.31752310413271184,-2.102557385906577,-1.0428910960972309
1783170453255095600,5.880095458984375,0.5011117850720882,-2.1740140178769827,-1.117552661588788
1783170453265165600,5.89016552734375,0.4897844815023243,-2.22146375131607,-1.2112141111046075
1783170453275235300,5.9002353515625,0.38163463403731585,-2.2823171562075615,-1.266708034789562
1783170453285305600,5.9103056640625,0.3276888165771961,-2.365809678408503,-1.3390244984596966
1783170453295374300,5.920374267578125,0.40860944246351716,-2.4772020149260756,-1.3670388790667056
1783170453305444400,5.9304443359375,0.47368923287838693,-2.5215350776493546,-1.3413351134896279
1783170453315514600,5.9405146484375,0.5491685444936156,-2.4868524713248013,-1.3043424766570328
1783170453325584400,5.95058447265625,0.5063377030268311,-2.3982477206766606,-1.3009095795989036
1783170453335653600,5.960653564453125,0.4148386922419071,-2.3323867167562247,-1.2767968826055527
1783170453345723400,5.970723388671875,0.26210633733719585,-2.254221527057886,-1.26523854675889
1783170453355793400,5.98079345703125,0.17730200188532472,-2.2307564803183078,-1.2863923939466475
1783170453365863700,5.99086376953125,0.2883465478785336,-2.2873487206339833,-1.2808891203552484
1783170453375932400,6.000932373046875,0.4198400076605379,-2.344407409417629,-1.3028262268751858
1783170453386002400,6.01100244140625,0.5890823294699191,-2.365243861219287,-1.2791940068751573
1783170453396072400,6.021072509765625,0.6963042484350502,-2.4342536845594642,-1.2757342218101024
1783170453406142500,6.031142578125,0.7392427880600094,-2.4860277109384534,-1.3458213189929722
1783170453416211700,6.041211669921875,0.7026490874171256,-2.5235072545051573,-1.5016092620760202
1783170453426281500,6.051281494140625,0.5787685868568718,-2.5018933885902164,-1.7148861020535229
1783170453436351500,6.0613515625,0.48578415981978174,-2.3858003270357844,-2.00926418518126
1783170453446421500,6.07142138671875,0.44413376030921936,-2.311397120219469,-2.197993443879485
1783170453456490500,6.081490478515625,0.41273616700470445,-2.343430088818073,-2.4196967514187095
1783170453466560500,6.091560546875,0.4941138890087604,-2.2651427340447903,-2.7602204996496438
1783170453476630500,6.101630615234375,0.55855523538962,-1.9520640421003101,-3.0604724432468413
1783170453486700500,6.111700439453125,0.5615864197790622,-1.4636913270920515,-3.13007614082694
1783170453496769500,6.12176953125,0.4125426902592182,-1.006683472162485,-2.9741508350998163
1783170453506839600,6.131839599609375,0.14356456745639443,-0.7478519187122583,-2.9181700046807526
1783170453516909600,6.14190966796875,-0.09716039754748344,-0.8008779909789562,-2.9574142198324203
1783170453526979300,6.151979248046875,-0.252484522511065,-1.03699911544919,-2.9585277340322733
1783170453537048600,6.162048583984375,-0.11205167720913886,-1.191759469050169,-3.051860682246089
1783170453547118300,6.172118408203125,0.17780118357911706,-1.175852290344238,-2.9650153424859047
1783170453557188600,6.182188720703125,0.37331791046038265,-1.0523282020062208,-2.673532396277785
1783170453567258600,6.192258544921875,0.2375469194896519,-0.9244979409068822,-2.4078671974152326
1783170453577327600,6.20232763671875,-0.15044161361902952,-0.8831927015721798,-2.2516893782317635
1783170453587397600,6.212397705078125,-0.4714718490898609,-0.8875666788727045,-2.0185697736650705
1783170453597467400,6.22246728515625,-0.618701661055535,-0.9345517174094915,-1.666720329299569
1783170453607537400,6.232537353515625,-0.5374708001762628,-1.045623151409626,-1.2390823612391948
1783170453617607700,6.242607666015625,-0.3832534674108028,-1.1849509580790996,-0.8400742753356695
1783170453627676400,6.252676513671875,-0.23052549642026424,-1.2100813076823949,-0.5640297212779521
1783170453637746700,6.26274658203125,-0.09896087109819054,-1.1999474516808986,-0.2945487635195255
1783170453647816400,6.27281640625,-0.1958048961728811,-1.0983072783708572,0.012416413980722426
1783170453657886500,6.282886474609375,-0.32085458664298055,-1.0437047505676746,0.27028818248808384
1783170453667955500,6.29295556640625,-0.484576099204272,-1.064125607305765,0.41504385942518707
1783170453678025500,6.303025390625,-0.657602907988429,-1.1011842951118946,0.39966450398564335
1783170453688095500,6.313095458984375,-0.6502297488719224,-1.2278905206173658,0.11987258009314536
1783170453698165500,6.32316552734375,-0.35033304845318197,-1.1758388463407754,-0.01794306844770908
1783170453708234500,6.333234375,-0.17388693274483083,-0.9603577743172645,-0.09738602299690247
1783170453718304500,6.343304443359375,-0.5771352865666151,-0.7057745259612799,-0.20145956093370912
1783170453728374500,6.35337451171875,-1.182892856505513,-0.3842342951416969,-0.20347616145312786
1783170453738444500,6.363444580078125,-1.4851700223200022,-0.011454875472187995,-0.06248363644182681
1783170453748513500,6.373513427734375,-1.6484721404254437,0.4157932164877653,0.171864048615098
1783170453758583600,6.38358349609375,-1.7163345472961664,0.8139344564288854,0.3874409822285175
1783170453768653300,6.3936533203125,-1.8435767793744802,1.1654445858374238,0.530773348364234
1783170453778723600,6.4037236328125,-2.08481597751081,1.419995100967586,0.7289367903620004
1783170453788792300,6.413792236328125,-2.3244360500127077,1.4411790510326623,0.8888882828652859
1783170453798862300,6.4238623046875,-2.503468675082922,1.4093079949975014,0.8240718195617198
1783170453808932600,6.4339326171875,-2.5235697983473537,1.389166831983626,0.660898442402482
1783170453819002400,6.44400244140625,-2.512847913324833,1.393924255643785,0.6594447364628314
1783170453829071600,6.454071533203125,-2.315905391424149,1.3522978215306996,0.8649328222602606
1783170453839141400,6.464141357421875,-1.999136028268188,1.1854013321951031,0.8741811275988817
1783170453849211400,6.47421142578125,-1.7166705012522636,0.9611971477508544,0.6781710642427206
1783170453859281700,6.48428173828125,-1.5140436501048504,0.8754261592239141,0.6987053182274102
1783170453869350400,6.494350341796875,-1.4601483937881885,0.8371668634563684,0.7466068870872259
1783170453879420400,6.50442041015625,-1.5559784195147455,0.7089125317260623,0.7106009232044219
1783170453889490700,6.51449072265625,-1.6252255587421356,0.4730260927945375,0.7248223407804966
1783170453899560400,6.524560546875,-1.6236181235454976,0.2776572499513626,0.7133961068809032
1783170453909629700,6.534629638671875,-1.5385587904192506,0.14139350702762604,0.7422159586519003
1783170453919699500,6.544699462890625,-1.4174392790049313,0.13492372649163006,0.7680904046207666
1783170453929769500,6.55476953125,-1.3245371234238148,0.2357727494239807,0.8811381071299313
1783170453939839500,6.564839599609375,-1.4337101764567195,0.4227189240977168,0.9336883785784243
1783170453949908500,6.574908447265625,-1.671769575513154,0.6284171455144881,0.9282014715999364
1783170453959978500,6.584978515625,-1.9044732927553354,0.8354396012723445,0.8837520890206098
1783170453970048500,6.595048583984375,-2.0345457798235116,0.9516986670434474,0.8491320265382528
1783170453980118500,6.605118408203125,-2.0556972889237106,1.0025143697842955,0.8949433451205492
1783170453990187500,6.6151875,-1.9362632463783025,1.0443947786584495,0.8617518541365862
1783170454000257500,6.625257568359375,-1.8097931677162646,1.1297715071707963,0.8298498184412717
1783170454010328000,6.635328125,-1.7293096180729568,1.2305816593974828,0.7940437610447406
1783170454020398000,6.645398193359375,-1.6245277857363223,1.3976707486957312,0.7889917383521795
1783170454030467000,6.655467041015625,-1.659528956490755,1.5421093225076794,0.7585913393914699
1783170454040537000,6.665537109375,-1.7832605500996113,1.5093153064087033,0.7232868017762899
1783170454050606800,6.67560693359375,-1.7242912053890525,1.341001059229672,0.7607926488280295
1783170454060677000,6.685677001953125,-1.595246161672473,1.1660714855641126,0.7661679121255874
1783170454070746000,6.69574609375,-1.4171592930197714,1.0370470462441443,0.7041290968418121
1783170454080816000,6.705816162109375,-1.1601854962654412,0.9244687148123979,0.7250152330040931
1783170454090886100,6.71588623046875,-0.8399694997869431,0.9816729495465755,0.7830453971683978
1783170454100956000,6.725955810546875,-0.6141166713528334,1.061352343200147,0.917635069400072
1783170454111025200,6.736025146484375,-0.5049613001070916,1.1049401405140757,0.9801000011414289
1783170454121095200,6.74609521484375,-0.4826870705872774,1.0991250244945288,0.9253303000777959
1783170454131165000,6.7561650390625,-0.35587899214252827,1.0968252231195568,0.9319178617745637
1783170454141235200,6.766235107421875,-0.2245871924124658,1.2042533321812747,0.9517658870607614
1783170454151304000,6.776303955078125,-0.21355901791974902,1.2490610266789792,0.9625579147100448
1783170454161374200,6.786374267578125,-0.11963175707459449,1.2124281630694866,0.9302794469177722
1783170454171444200,6.7964443359375,0.05105272636711597,1.1055258314475416,0.753106185978651
1783170454181514000,6.806513916015625,0.3256447435289621,0.971802420656383,0.6114362000972032
1783170454191583200,6.816583251953125,0.6087725338459015,0.9453054588750004,0.5382821165591478
1783170454201653000,6.826653076171875,0.8039905700415373,0.9746803141802549,0.5151262818992137
1783170454211723000,6.836722900390625,0.892443491128832,1.0219792409718036,0.5315332268208265
1783170454221793300,6.846793212890625,0.7970300833791494,1.1735881448045373,0.4900339262187481
1783170454231862000,6.856862060546875,0.5668390796102583,1.4080956965982914,0.29084406378269195
1783170454241932000,6.86693212890625,0.30219898601174355,1.6794538464054465,0.07001695455610751
1783170454252002000,6.877001953125,-0.06809373140856623,1.8327753993749618,-0.07923194214701652
1783170454262072000,6.887072021484375,-0.46599648641869423,1.6616703524336218,-0.05928104100823402
1783170454272141000,6.89714111328125,-0.5637086726300418,1.2943608886078,-0.045509705287218094
1783170454282211000,6.907211181640625,-0.3809532276444137,0.870012317481637,0.001522095000743866
1783170454292281000,6.917281005859375,-0.13053067916445432,0.43305210206359623,0.04075754232406616
1783170454302351000,6.92735107421875,0.06480667256191372,0.13697802867293357,0.10100538253784179
1783170454312420000,6.937420166015625,-0.04613002914264798,-0.1541308235257864,0.15052841511964798
1783170454322489900,6.94748974609375,-0.4491296689003706,-0.5731149450093508,0.15473814176917075
1783170454332560100,6.95756005859375,-0.7157238191761076,-1.0020575659275055,0.14555647192597387
1783170454342628900,6.96762890625,-0.7590881829977035,-1.3792524639517068,0.02099135010242462
1783170454352699100,6.97769921875,-0.694469434223324,-1.6953198163181542,-0.2351321134328842
1783170454362769200,6.98776904296875,-0.5586894562285393,-1.7962305063098667,-0.4435995073020458
1783170454372839000,6.9978388671875,-0.537246270705387,-1.7768214569628238,-0.5719260274857282
1783170454382908200,7.007908203125,-0.6236901169925928,-1.6881337042063473,-0.6646113254457712
1783170454392978000,7.01797802734375,-0.7997032481111586,-1.6189941170066595,-0.7630646854132414
1783170454403048000,7.0280478515625,-0.9322295580722391,-1.615703258767724,-0.8911702563226223
1783170454413118200,7.0381181640625,-0.9251305397219955,-1.6240438016116618,-1.018608303233981
1783170454423187000,7.04818701171875,-0.7307360948689281,-1.6902607793629167,-1.0896329735279082
1783170454433257200,7.05825732421875,-0.44143969891965384,-1.7846856144666672,-1.1633429373830557
1783170454443327200,7.0683271484375,-0.14385310207419097,-1.80875739492774,-1.293845632562041
1783170454453397000,7.07839697265625,-0.006444865290448069,-1.8054624450355767,-1.2956851229488848
1783170454463466200,7.08846630859375,-0.006385170992463827,-1.7491782477557658,-1.2851555456280708
1783170454473536000,7.098535888671875,-0.031706147797033186,-1.6131506516754626,-1.3007868300020693
1783170454483606000,7.10860595703125,-0.1097661235552281,-1.5147557438969612,-1.2321189519673585
1783170454493676300,7.11867626953125,-0.1647702909618616,-1.4289251341372728,-1.0564537575036286
1783170454503745000,7.1287451171875,-0.07012465271428227,-1.2626041066020726,-0.8870581448286772
1783170454513815000,7.13881494140625,-0.0334850671030581,-0.9789280347526073,-0.8385843290388584
1783170454523885000,7.148885009765625,-0.2203970472462475,-0.7050438735991716,-0.7795891192346811
1783170454533955000,7.158955078125,-0.47391157039217646,-0.5400450345784426,-0.6875672536194324
1783170454544024000,7.169024169921875,-0.6264052211701869,-0.4001210155814886,-0.6534808596223592
1783170454554094000,7.179093994140625,-0.7261397800546139,-0.5324024108707904,-0.7627163103669882
1783170454564164000,7.1891640625,-0.8875994120985269,-0.6482458815783262,-0.8109796982765197
1783170454574234000,7.199234130859375,-0.9808358411353081,-0.6419628557860851,-0.7238631403595208
1783170454584303000,7.20930322265625,-1.128798278224468,-0.6094926648139953,-0.6025158115386963
1783170454594372900,7.219372802734375,-1.0752121609222143,-0.16168752251565455,-0.21036299835741518
1783170454604443100,7.229443115234375,-1.1123743091028182,-0.20995149494707582,-0.017875848430395126
1783170454614513200,7.23951318359375,-1.3853086952507494,-1.0150333673566578,-0.5243143814831972
1783170454624582100,7.24958203125,-1.6928022805392742,-1.0763543897598982,-0.5684294175416231
1783170454634652200,7.259652099609375,-1.815328005489707,-0.5443184741139412,-0.014721768313646315
1783170454644722000,7.269721923828125,-1.808779606759548,-0.024832243439555167,0.5857599070489407
1783170454654792200,7.279792236328125,-1.5387660034291446,0.1685346119314432,0.9526835864275693
1783170454664861000,7.28986083984375,-1.3528301748417317,0.07580898196101188,0.9489689498186111
1783170454674931000,7.299930908203125,-1.2281681685149668,-0.06498714369535445,0.9509633385062217
1783170454685001200,7.310001220703125,-1.0289764794480054,-0.06591068828105927,0.9028957654297352
1783170454695071000,7.320071044921875,-0.8928170006163417,-0.017698153775930404,0.6178408064424992
1783170454705140200,7.33014013671875,-0.7946861506015062,-0.023726912546157837,0.3284861044347286
1783170454715210000,7.3402099609375,-0.7389310917623341,-0.011701543709635734,0.03901099091768265
1783170454725280000,7.350280029296875,-0.7121236027270555,0.04675882856547832,-0.12082184364199637
1783170454735349200,7.360349365234375,-0.5999141046077012,0.14060732508599758,-0.15975684671401977
1783170454745419000,7.3704189453125,-0.5224011682730167,0.30566520081758497,-0.14355682254135607
1783170454755489000,7.380489013671875,-0.7208452538430691,0.5170610493540764,-0.11907996841073036
1783170454765559000,7.39055908203125,-1.020132151800394,0.6144739603579044,-0.15217910493612288
1783170454775628000,7.4006279296875,-1.2268519713498651,0.5721358708441258,-0.21355039622187613
1783170454785698000,7.410697998046875,-1.1782973454087973,0.3579436695873737,-0.2419295184880495
1783170454795768000,7.42076806640625,-0.986677625966072,0.06378887382149696,-0.1976695210009813
1783170454805838000,7.430838134765625,-0.6698187578957527,-0.18646540541946888,-0.03324643604159355
1783170454815907000,7.440906982421875,-0.31584340741746125,-0.30844226431548594,0.1586573610395193
1783170454825977000,7.45097705078125,-0.1673356114052236,-0.3603361176818609,0.33414076919555663
1783170454836047000,7.461047119140625,-0.20946692630052566,-0.4493389277368784,0.38723523052334785
1783170454846117000,7.4711171875,-0.5232148227434605,-0.4620212991774082,0.2983662759810686
1783170454856186000,7.48118603515625,-0.931620924654603,-0.44093525652885435,0.14133563936054705
1783170454866256000,7.491255859375,-1.204238426873088,-0.37269875564873217,0.07097790854275227
1783170454876326100,7.501326171875,-1.3017109591096638,-0.29272096357047556,0.07363280696570873
1783170454886396200,7.511396240234375,-1.2647814506411552,-0.175523155644536,0.16442483852505682
1783170454896465200,7.521465087890625,-1.2384855643898247,-0.08286766830086707,0.21402561251819133
1783170454906535200,7.53153515625,-1.2004606619000435,-0.06443243242204189,0.2333323705345392
1783170454916605000,7.54160498046875,-1.1898965977877378,-0.08984452157616615,0.18828677562773227
1783170454926675200,7.55167529296875,-1.2816636118590832,-0.2105757643252611,0.07621814728379249
1783170454936744000,7.561743896484375,-1.4220418043643235,-0.372868851518631,-0.0658960752338171
1783170454946814000,7.57181396484375,-1.5740712716966867,-0.5240758965522051,-0.22511866894066332
1783170454956884200,7.58188427734375,-1.770998449897766,-0.6273223360151052,-0.24449264697432516
1783170454966954000,7.5919541015625,-1.9371096340745686,-0.6834317612498998,-0.2984691518336534
1783170454977023200,7.602023193359375,-2.0593566882140935,-0.7901490916937589,-0.3060416329145431
1783170454987093000,7.612093017578125,-2.171242361206561,-0.8721475759446621,-0.27923955070674417
1783170454997163000,7.6221630859375,-2.1706460027486085,-0.9460328963667154,-0.3148755122333765
1783170455007233000,7.63223291015625,-2.2116173339538276,-0.9735369893640279,-0.21721476394832134
1783170455017302000,7.642302001953125,-2.380313273926824,-0.9562105915099381,-0.16981062321662901
1783170455027371800,7.652371826171875,-2.451414078196883,-0.9575549918562173,-0.1921680009752512
1783170455037442000,7.662442138671875,-2.41193780785501,-0.9452098895460367,-0.22490122679769992
1783170455047511000,7.672510986328125,-2.3264316077440976,-0.8829922105640172,-0.197944246289134
1783170455057581000,7.6825810546875,-2.233239090914279,-0.8481237262785434,-0.15715630882680415
1783170455067651000,7.692651123046875,-2.103760770346969,-0.8914180936038494,-0.15018646981418132
1783170455077720800,7.702720947265625,-2.013619457781315,-0.9219009101510047,-0.09624737435579299
1783170455087790000,7.7127900390625,-2.0490344700336456,-0.9633978726655245,-0.06890870105326176
1783170455097860000,7.722860107421875,-2.308535154917091,-0.9803063373684883,-0.05045066882073879
1783170455107929900,7.732929931640625,-2.5793127283573147,-0.9691355395346879,0.05070610488653183
1783170455118000000,7.743000244140625,-2.8364368933677673,-0.8928665388464927,0.2193815865933895
1783170455128068900,7.75306884765625,-2.9012364055365323,-0.7838029375374317,0.3609954583734274
1783170455138139100,7.76313916015625,-2.8273493315488096,-0.701387689179182,0.49547231788039203
1783170455148209200,7.773209228515625,-2.6624410934209823,-0.6614572453290224,0.5745195511102676
1783170455158279000,7.78327880859375,-2.454588032057881,-0.6281044263035058,0.5888707325458526
1783170455168348200,7.79334814453125,-2.3550122439317405,-0.5383130962193012,0.5984323416173458
1783170455178418000,7.80341796875,-2.3991484689086673,-0.37401977511942386,0.6289981602728366
1783170455188488000,7.813488037109375,-2.5294617789953944,-0.17467618342638014,0.6448527320086955
1783170455198558200,7.82355810546875,-2.740304085302353,0.05331365703642368,0.6180430510163307
1783170455208627000,7.833626953125,-2.929282934847474,0.2934253124475479,0.5501666156202555
1783170455218697000,7.843697021484375,-3.0362761596232652,0.5072136090785264,0.5044096575736999
1783170455228767000,7.85376708984375,-3.029987873134017,0.6324865869104862,0.5266080453783274
1783170455238836000,7.8638359375,-2.862830979296565,0.7225859600305556,0.5428051469415426
1783170455248906000,7.873906005859375,-2.6782372129678724,0.7593909653365611,0.622768325972557
1783170455258976000,7.88397607421875,-2.578887196421623,0.7817039194315671,0.65659402320683
1783170455269046000,7.8940458984375,-2.594368843191862,0.862940187138319,0.4822206221193075
1783170455279115000,7.904114990234375,-2.7340719129145143,0.94147362562716,0.3669271865099668
1783170455289185000,7.91418505859375,-2.832031936407089,0.9861650002688169,0.3308551716536283
1783170455299254800,7.9242548828125,-2.8467987129062413,0.9674141225695609,0.20905893002152443
1783170455309325000,7.934324951171875,-2.829185899326205,0.8297229771912098,0.08923895689845085
1783170455319393800,7.944393798828125,-2.720922508484125,0.6576119680777192,-0.07717968579232692
1783170455329464000,7.954464111328125,-2.667152632112801,0.48535804336220023,-0.3520692245960235
1783170455339534000,7.9645341796875,-2.7331851932078597,0.2616524560898542,-0.512785271731019
1783170455349603800,7.974603759765625,-2.8246751439034936,0.086968966139853,-0.6470236463069915
1783170455359673000,7.984673095703125,-2.9239900891363617,-0.010222411067783831,-0.6755488990455866
1783170455369742800,7.994742919921875,-2.9386095661193132,-0.021679624627530574,-0.6608744770050048
1783170455379812900,8.004812744140626,-2.8862165310591457,-0.020664017844200133,-0.5658394010484218
1783170455389883100,8.014883056640626,-2.862972433593869,-0.11922259175181388,-0.5789484734684228
1783170455399952000,8.024951904296875,-2.8092385053187607,-0.2978293926253915,-0.7277683311045169
1783170455410022100,8.035022216796875,-2.6278619474709033,-0.47761897354274985,-0.8646551743626594
1783170455420092200,8.045092041015625,-2.383781680689752,-0.5138087695598602,-0.9005535862177609
1783170455430161000,8.055160888671875,-2.2034369501076636,-0.40814094816893337,-0.8372428513020277
1783170455440231200,8.065231201171875,-2.172083195944875,-0.27715543790906666,-0.735507985445857
1783170455450301000,8.075301025390624,-2.22876647554487,-0.16514730758070945,-0.6911813524633645
1783170455460371000,8.085370849609374,-2.178107278539985,-0.05981003331840038,-0.7366109782516956
1783170455470440000,8.09543994140625,-2.0412123981058596,0.003170154468715191,-0.831442056068778
1783170455480510000,8.105510009765625,-1.8955382911495864,0.02121083807200193,-0.9326900151908397
1783170455490580000,8.115580078125,-1.6507523603171108,-0.022009002712368962,-1.0289420657217503
1783170455500650000,8.12564990234375,-1.3321660108670592,-0.030748774006962774,-0.984262381517887
1783170455510719000,8.135718994140625,-1.075166641280055,0.0007823825493454932,-0.8916898962825536
1783170455520789000,8.1457890625,-1.0094503065273166,0.03938742301464081,-0.9400614207416772
1783170455530859000,8.15585888671875,-1.1038593595400452,-0.0016489362508058548,-1.003843280300498
1783170455540929000,8.165928955078124,-1.041130516165495,-0.01134527761787176,-1.059429558444023
1783170455550998000,8.175998046875,-0.9232590467616916,-0.1332166303128004,-1.19608434651196
1783170455561068000,8.186068115234375,-0.8875912287920713,-0.3609147943526506,-1.226284254464507
1783170455571137800,8.1961376953125,-0.7220777182474732,-0.4467456963732838,-1.1302876399993895
1783170455581208000,8.2062080078125,-0.6053185939997434,-0.4844841831371188,-1.0358417621076106
1783170455591276800,8.21627685546875,-0.5570256877347827,-0.2770437942281365,-1.240569969448447
1783170455601347000,8.22634716796875,-0.6282113938093185,-0.03935059813559055,-1.549419060999155
1783170455611417000,8.2364169921875,-0.8124196679517627,0.11145926427394151,-1.4175357251167298
1783170455621485800,8.24648583984375,-0.9926280588030815,0.3603185820251703,-1.2492004351496695
1783170455631556000,8.25655615234375,-1.1634349995806812,0.6353444605596363,-1.0271066669881344
1783170455641625900,8.2666259765625,-1.4478583826661109,0.9093009562969208,-0.7777683335483073
1783170455651695900,8.27669580078125,-1.5518836975470185,1.0033610497415064,-0.6567068359315394
1783170455661765000,8.28676513671875,-1.4726064549535511,0.9358005484268068,-0.7150164015591144
1783170455671835000,8.2968349609375,-1.3514213309571146,0.8965496112734079,-0.9198521609276532
1783170455681905200,8.3069052734375,-0.7264812139034271,0.9750479053836315,-0.834856832948327
1783170455691975000,8.316974853515624,-0.3155170250073075,0.9875216025095432,-0.9053221157938242
1783170455702044000,8.3270439453125,-0.23212299474477766,1.0456777311410754,-0.8219067504823208
1783170455712114200,8.3371142578125,-0.3440966382816434,1.0830768298827111,-0.6665186203718185
1783170455722184000,8.347183837890626,-0.42512218584716316,1.0319169168140738,-0.4295826723873615
1783170455732254000,8.35725390625,-0.3577624678015709,1.036604343977943,-0.1868734016984701
1783170455742323000,8.367322998046875,-0.23226386452019213,0.9556213934451341,-0.012230536019802092
1783170455752393000,8.37739306640625,0.01868131959438324,0.9575218933042138,-0.01797112549841404
1783170455762463000,8.387462890625,0.06006488486230373,0.9582940467204898,-0.12084814712703228
1783170455772532000,8.397531982421874,0.07548807944357394,0.8245989121757448,-0.18707506175041197
1783170455782602000,8.40760205078125,0.16275485948622226,0.905047244375199,-0.01917231798171997
1783170455792672000,8.417672119140626,0.07406652220785617,1.1148516590017825,0.07979717481434345
1783170455802742000,8.427741943359376,-0.0244908826559782,1.2339574194408953,0.1954571056485176
1783170455812811000,8.43781103515625,0.05308101732432842,1.315004740446806,0.34620822360813613
1783170455822881000,8.447881103515625,0.22385259452760217,1.4664406258001923,0.3512362809032202
1783170455832951000,8.457950927734375,0.356484702950716,1.4292030742958188,0.1696896271854639
1783170455843020800,8.468020751953125,0.5752870283514261,1.359443601632118,0.14972352847754955
1783170455853090000,8.478090087890624,0.871080823495984,1.4776114236339926,0.033759061738848684
1783170455863159800,8.488159912109374,0.9390092813402414,1.5006846945770085,-0.39276246951222415
1783170455873230000,8.49822998046875,0.8200099769502878,1.356219378888607,-0.866356717583537
1783170455883298800,8.508298828125,0.5297095185250044,1.2407181457474827,-1.0965502055704592
1783170455893368800,8.518368896484375,0.15238427211940286,1.3292629829019307,-0.9473837264537811
1783170455903439000,8.528439208984375,-0.10790741701126098,1.5389926517918706,-0.7534335182368755
1783170455913508900,8.5385087890625,-0.1282183836340904,1.4912541645392774,-0.6176981831014156
1783170455923578000,8.548578125,0.09464929150938987,1.327754478035122,-0.4016881187677383
1783170455933648000,8.55864794921875,0.24952070426940917,1.395712600365281,-0.4160317014187574
1783170455943718000,8.5687177734375,0.25308511875271794,1.3965860221989452,-0.7394120071470737
1783170455953788200,8.5787880859375,0.3556652032613754,1.39342975012511,-0.8893898026466369
1783170455963857000,8.58885693359375,0.49569034454524513,1.4361109539881347,-1.0878495972424744
1783170455973927000,8.598927001953125,0.6066472122550011,1.4246872043065726,-1.0230834028214215
1783170455983997000,8.608996826171875,0.6969932536125183,1.3672123359374702,-0.7832710226178169
1783170455994067000,8.61906689453125,0.8256710714519023,1.25524205340147,-0.48552609340548514
1783170456004136200,8.62913623046875,1.0133856001496315,1.2216112942174076,-0.48923430027365683
1783170456014206200,8.639206298828125,1.0945131467849016,1.3336316995054482,-0.738505121435225
1783170456024276000,8.64927587890625,1.1262380723476408,1.3731290126353501,-0.7436901228576898
1783170456034345200,8.65934521484375,1.3002607603013514,1.3339132929258048,-0.48031654206365343
1783170456044415000,8.6694150390625,1.302898707589507,1.4152911610603331,-0.5448135641545057
1783170456054485000,8.679485107421876,0.918082813167572,1.6123441575981676,-0.7706786675482988
1783170456064555300,8.68955517578125,0.09581249006986617,1.841875382284075,-0.9014423517510295
1783170456074624000,8.6996240234375,-0.71424132553339,1.7419382134996353,-0.9876692673519253
1783170456084694300,8.7096943359375,-1.2768337074846028,1.534650969325751,-1.1379869623303414
1783170456094764000,8.719763916015625,-1.2989853335380555,1.3908110920593142,-0.9157061471641064
1783170456104834000,8.729833984375,-0.7478828983724117,1.2704122961349784,-0.46881724292784926
1783170456114903000,8.739903076171874,0.1623737512141466,1.1923163722805679,-0.23582331056743858
1783170456124973000,8.74997314453125,1.0207593437880278,1.091172311924398,-0.14346329903900623
1783170456135043000,8.76004296875,1.621917310976982,0.9449057920329272,-0.051937400247156616
1783170456145112000,8.770112060546875,1.8493787436515092,0.9610950025506317,-0.21565350598096847
1783170456155182000,8.78018212890625,2.0490695413470266,0.98754403353706,-0.18513678716421125
1783170456165252000,8.790252197265625,2.204241398358345,0.9790886321417986,-0.1400850547775626
1783170456175322000,8.800322021484375,1.9622411527216432,1.0692520104087888,-0.11423895812034607
1783170456185391000,8.81039111328125,1.392137664487958,1.327792179697007,-0.07986322578787804
1783170456195461000,8.820461181640624,0.5927858601629734,1.5096698189347981,-0.23287965833097696
1783170456205531100,8.83053125,-0.0554302107989788,1.544480727814138,-0.04289250852614641
1783170456215601000,8.840600830078126,-0.3001794628828764,1.3513269306719302,0.28207360508888957
1783170456225670100,8.850670166015625,0.015422025537490844,1.156599162211269,0.1690954606845975
1783170456235740200,8.860740234375,0.7291524789392948,1.0013733830556273,0.05666910494416952
1783170456245810000,8.870809814453125,1.4755167894423007,0.8581737033888697,0.13845949940234423
1783170456255879200,8.880879150390625,2.0590105051249266,0.6455320195097476,-0.004448796102404594
1783170456265949000,8.890948974609374,2.3428011432647704,0.3353773983184248,-0.12447364414781331
1783170456276019200,8.901019287109374,2.1432634903043506,0.3350411521013826,-0.7587716643944382
1783170456286089200,8.911089111328126,1.5780927822977304,0.4312205027222633,-1.07838384976089
1783170456296158000,8.921157958984375,0.8110305516809224,0.3520703936398029,-0.8272527876853942
1783170456306228200,8.931228271484375,0.02694704363644123,0.07336399996168912,-0.7920812288001179
1783170456316298000,8.941298095703125,-0.5361784222781658,-0.06798274531476199,-0.7923654525689781
1783170456326368000,8.951367919921875,-0.45913960626125333,0.16100757742747662,-0.631372634319216
1783170456336437000,8.96143701171875,0.024901217022538183,0.4818884675554931,-0.4376129802383482
1783170456346507000,8.971507080078124,0.507296611186862,0.6089112116642296,-0.12545476413965226
1783170456356577300,8.981577392578124,0.9600058921396731,0.5382629004020244,0.0251369254745543
1783170456366646000,8.99164599609375,1.2145809571892023,0.2793314667738974,0.02311740234568715
1783170456376716000,9.001716064453126,1.2843489054203032,0.09100245943963527,-0.1559143459416926
1783170456386786000,9.0117861328125,1.2599345951318741,0.09129574329778552,-0.31428003055825826
1783170456396856000,9.02185595703125,1.028276879811287,0.08853241606429219,-0.2969241143487394
1783170456406925000,9.031925048828125,0.8294125960677862,0.0016948212191462515,-0.045537470076978205
1783170456416995000,9.0419951171875,0.844394476622343,-0.11260295441634953,0.11505027450323105
1783170456427065000,9.052065185546875,0.920188261014223,-0.20804368856437502,-0.08787979737445711
1783170456437135000,9.062135009765624,0.854666864311695,-0.38313780514188106,-0.4721251984320581
1783170456447204000,9.0722041015625,0.8867565315335989,-0.6166348647188394,-0.7593596934154629
1783170456457273900,9.08227392578125,0.9192945270448922,-0.7245908701121807,-0.7769255991138517
1783170456467344100,9.09234423828125,0.7549865928977727,-0.6262951118592173,-0.5957286356166005
1783170456477413000,9.1024130859375,0.643348757186532,-0.5097061565466224,-0.4356175686374306
1783170456487483100,9.112483154296875,0.7316057173103093,-0.39470034223962575,-0.28053426669239995
1783170456497553200,9.12255322265625,0.8705705358862876,-0.3468208025485277,-0.1757053803436458
1783170456507623000,9.132622802734375,1.1084037249714136,-0.3393306659888476,-0.1471924025647342
1783170456517692200,9.142692138671874,1.3699877920001744,-0.3239004571449011,-0.2124963571242988
1783170456527762200,9.15276220703125,1.0415712456703186,-0.14784608070049435,-0.23561770499274134
1783170456537832000,9.16283203125,0.7255664371460676,-0.46823038295060393,0.08403086686134338
1783170456547901200,9.172901123046875,0.12725859869122505,-0.43150432463232424,0.13779343670904637
1783170456557971000,9.182970947265625,-0.1383756205111742,-0.19059026679713278,-0.3242499281696975
1783170456568041000,9.193041015625,0.001817278555035591,-0.29166597462482746,-0.3669195877254009
1783170456578111200,9.203111328125,0.2638783154457807,-0.6888917802214622,-0.4678270628467202
1783170456588180000,9.213179931640624,0.44955870796740055,-0.861117940147221,-0.8313530626110732
1783170456598250200,9.223250244140624,0.5334072039991616,-0.912263897755742,-0.976276643460989
