time,seconds_elapsed,z,y,x
1783170447444829400,0.069829345703125,0.107102170586586,-0.3962686061859131,0.2357618510723114
1783170447454899200,0.079899169921875,0.11027505993843079,-0.40968403220176697,0.17241831123828888
1783170447464968400,0.089968505859375,0.12153942137956619,-0.47773513197898865,0.10089575499296188
1783170447475038200,0.1000380859375,0.15771153569221497,-0.5852122902870178,0.06335769593715668
1783170447485108500,0.1101083984375,0.20832814276218414,-0.7240937948226929,0.09047306329011917
1783170447495178500,0.120178466796875,0.2634321451187134,-0.8842288255691528,0.18230976164340973
1783170447505248300,0.130248291015625,0.31233343482017517,-1.024415373802185,0.29456356167793274
1783170447515317500,0.1403173828125,0.353669136762619,-1.0859522819519043,0.4247977137565613
1783170447525387300,0.15038720703125,0.3949345648288727,-1.127108097076416,0.5385052561759949
1783170447535457300,0.160457275390625,0.44646644592285156,-1.2076880931854248,0.5971464514732361
1783170447545527600,0.170527587890625,0.5163402557373047,-1.3363289833068848,0.6015577912330627
1783170447555597300,0.180597412109375,0.5892911553382874,-1.5341336727142334,0.5258452296257019
1783170447565667300,0.190667236328125,0.6334202885627747,-1.8386335372924805,0.34126347303390503
1783170447575736300,0.200736328125,0.6271147131919861,-2.195357322692871,0.04402247071266174
1783170447585806300,0.210806396484375,0.5769159197807312,-2.452667236328125,-0.2941915690898895
1783170447595876400,0.22087646484375,0.5350004434585571,-2.515773057937622,-0.6331102252006531
1783170447605946400,0.2309462890625,0.5606353282928467,-2.4028878211975098,-0.8824464678764343
1783170447616016400,0.241016357421875,0.6135616898536682,-2.1753218173980713,-0.9803732633590698
1783170447626085400,0.25108544921875,0.6892215013504028,-1.9746776819229126,-0.9391927123069763
1783170447636155400,0.2611552734375,0.7897483706474304,-1.9707986116409302,-0.7674809098243713
1783170447646225400,0.271225341796875,0.8719092607498169,-2.061415433883667,-0.5337614417076111
1783170447656295400,0.28129541015625,0.9739706516265869,-2.225724458694458,-0.3279803395271301
1783170447666365400,0.291365478515625,1.0826308727264404,-2.443000078201294,-0.17924277484416962
1783170447676435500,0.301435546875,1.1833258867263794,-2.6358642578125,-0.09500432759523392
1783170447686504400,0.31150439453125,1.3009846210479736,-2.7560415267944336,-0.03710297867655754
1783170447696574500,0.321574462890625,1.4325815439224243,-2.7672173976898193,0.010666141286492348
1783170447706644200,0.331644287109375,1.57547926902771,-2.7313413619995117,0.049993835389614105
1783170447716714500,0.341714599609375,1.685892105102539,-2.7552032470703125,0.1370275467634201
1783170447726784500,0.351784423828125,1.7401031255722046,-2.8313369750976562,0.2664559483528137
1783170447736853200,0.361853271484375,1.781089186668396,-2.9445979595184326,0.36282509565353394
1783170447746923500,0.371923583984375,1.8543566465377808,-3.099346160888672,0.3154038190841675
1783170447756993300,0.3819931640625,1.8880581855773926,-3.319019317626953,0.16431523859500885
1783170447767063300,0.392063232421875,2.0422918796539307,-3.3410727977752686,0.12486356496810913
1783170447777133600,0.402133544921875,2.2005574703216553,-3.6260502338409424,0.026938868686556816
1783170447787203300,0.412203369140625,2.2340166568756104,-4.095479965209961,-0.03527972102165222
1783170447797272300,0.422272216796875,2.2834646701812744,-3.755356788635254,0.12483830749988556
1783170447807342300,0.43234228515625,2.246696710586548,-3.221048355102539,0.13364416360855103
1783170447817412400,0.442412353515625,2.168285369873047,-2.778177261352539,-0.08636517822742462
1783170447827482400,0.452482421875,2.038395643234253,-2.364682674407959,-0.4394926428794861
1783170447837552400,0.462552490234375,1.9078495502471924,-1.8060836791992188,-0.8253039717674255
1783170447847621400,0.472621337890625,1.8417848348617554,-1.1931819915771484,-1.147377848625183
1783170447857691400,0.48269140625,1.8969788551330566,-0.6803717613220215,-1.3761266469955444
1783170447867761400,0.492761474609375,2.070896625518799,-0.4968887269496918,-1.5036197900772095
1783170447877831400,0.50283154296875,2.293802499771118,-0.6882889866828918,-1.4884393215179443
1783170447887901200,0.512901123046875,2.4726614952087402,-1.0406464338302612,-1.344765543937683
1783170447897971500,0.522971435546875,2.6148412227630615,-1.402743935585022,-1.083945631980896
1783170447908040200,0.533040283203125,2.685925006866455,-1.6120094060897827,-0.7318782806396484
1783170447918110500,0.5431103515625,2.610793113708496,-1.795812726020813,-0.4071475863456726
1783170447928180500,0.553180419921875,2.3496992588043213,-1.7813022136688232,-0.23852212727069855
1783170447938250200,0.563250244140625,2.0162527561187744,-1.5922178030014038,-0.19101133942604065
1783170447948320500,0.573320556640625,1.7391804456710815,-1.3269110918045044,-0.2468588650226593
1783170447958389200,0.58338916015625,1.5834473371505737,-1.1067689657211304,-0.37001755833625793
1783170447968459300,0.593459228515625,1.5480084419250488,-0.8846088647842407,-0.49516215920448303
1783170447978529500,0.603529541015625,1.5935816764831543,-0.7356332540512085,-0.597639262676239
1783170447988599300,0.613599365234375,1.6510233879089355,-0.625728189945221,-0.6086348295211792
1783170447998672600,0.623672607421875,1.6491918563842773,-0.5804719924926758,-0.52901291847229
1783170448008743000,0.633742919921875,1.5815151929855347,-0.6311576962471008,-0.39823487401008606
1783170448018811600,0.643811767578125,1.441400408744812,-0.7457281947135925,-0.25463563203811646
1783170448028881700,0.653881591796875,1.2666734457015991,-0.9501693844795227,-0.13667622208595276
1783170448038951700,0.66395166015625,1.1042892932891846,-1.1662143468856812,-0.018883805721998215
1783170448049021700,0.674021728515625,0.9720451235771179,-1.3232922554016113,0.09904751926660538
1783170448059091700,0.684091796875,0.8349831104278564,-1.3521883487701416,0.20618648827075958
1783170448069160700,0.69416064453125,0.7595846652984619,-1.242939829826355,0.2659163177013397
1783170448079230700,0.704230712890625,1.013372778892517,-0.905944287776947,0.23145714402198792
1783170448089300700,0.71430078125,1.3288984298706055,-0.5530844330787659,0.14544722437858582
1783170448099370800,0.724370849609375,1.2459535598754883,-0.36215606331825256,-0.0024410374462604523
1783170448109440800,0.734440673828125,1.2068500518798828,-0.23350393772125244,-0.0741240382194519
1783170448119510500,0.744510498046875,1.2381768226623535,-0.26217392086982727,-0.032907888293266296
1783170448129579800,0.754579833984375,1.2332795858383179,-0.3431287109851837,0.08981381356716156
1783170448139649500,0.7646494140625,1.1781748533248901,-0.44815632700920105,0.2389758676290512
1783170448149719800,0.7747197265625,1.1342896223068237,-0.5433769822120667,0.36596089601516724
1783170448159789800,0.784789794921875,1.0908912420272827,-0.5882043838500977,0.45039987564086914
1783170448169859600,0.794859619140625,1.0116825103759766,-0.6018756031990051,0.47266465425491333
1783170448179928800,0.8049287109375,0.8989987969398499,-0.5812382102012634,0.426510751247406
1783170448189998600,0.81499853515625,0.7836122512817383,-0.5372228026390076,0.3409859836101532
1783170448200068600,0.825068603515625,0.675285279750824,-0.4807465076446533,0.24201121926307678
1783170448210139000,0.835138916015625,0.5856372714042664,-0.4336230754852295,0.13833235204219818
1783170448220208600,0.845208740234375,0.5062393546104431,-0.3808162808418274,0.07792175561189651
1783170448230278000,0.85527783203125,0.4334008991718292,-0.3365349769592285,0.08521702885627747
1783170448240347600,0.86534765625,0.36270567774772644,-0.27664661407470703,0.14848043024539948
1783170448250417700,0.875417724609375,0.28687623143196106,-0.23706884682178497,0.23712638020515442
1783170448260487700,0.88548779296875,0.2374756783246994,-0.22388619184494019,0.3215360641479492
1783170448270557700,0.8955576171875,0.20852749049663544,-0.222794309258461,0.3855244219303131
1783170448280626700,0.905626708984375,0.1870640069246292,-0.24009713530540466,0.43895116448402405
1783170448290696700,0.91569677734375,0.15609459578990936,-0.28250595927238464,0.4693756401538849
1783170448300766700,0.9257666015625,0.10434910655021667,-0.30373480916023254,0.4747970402240753
1783170448310836700,0.935836669921875,0.02352333255112171,-0.31705331802368164,0.4545290768146515
1783170448320906800,0.94590673828125,-0.0684547945857048,-0.3405604958534241,0.4289350211620331
1783170448330976800,0.955976806640625,-0.14324231445789337,-0.3762471079826355,0.42868706583976746
1783170448341045500,0.96604541015625,-0.19424770772457123,-0.41815727949142456,0.4648285508155823
1783170448351115800,0.97611572265625,-0.23006069660186768,-0.44072917103767395,0.5415359735488892
1783170448361185800,0.986185791015625,-0.25958770513534546,-0.45820537209510803,0.6364590525627136
1783170448371255600,0.996255615234375,-0.28524908423423767,-0.47455382347106934,0.7090822458267212
1783170448381325800,1.006325927734375,-0.3096039593219757,-0.47787851095199585,0.7373165488243103
1783170448391394600,1.01639453125,-0.3262447714805603,-0.4358415901660919,0.7131952047348022
1783170448401464600,1.026464599609375,-0.3421936333179474,-0.36217135190963745,0.6485192775726318
1783170448411534800,1.036534912109375,-0.3728620409965515,-0.30173224210739136,0.5711002349853516
1783170448421604600,1.0466044921875,-0.4226796627044678,-0.28519853949546814,0.5110576748847961
1783170448431674600,1.056674560546875,-0.47272536158561707,-0.34755992889404297,0.49036821722984314
1783170448441743600,1.06674365234375,-0.503332257270813,-0.4563881456851959,0.5040674805641174
1783170448451813600,1.076813720703125,-0.46825268864631653,-0.5633918046951294,0.5608762502670288
1783170448461884000,1.0868837890625,-0.4030049741268158,-0.6335903406143188,0.6490132808685303
1783170448471953700,1.09695361328125,-0.3521701991558075,-0.6711521148681641,0.7229703664779663
1783170448482023700,1.107023681640625,-0.3671014606952667,-0.6952025890350342,0.7343865633010864
1783170448492092700,1.1170927734375,-0.42790883779525757,-0.6726224422454834,0.6853234767913818
1783170448502162700,1.12716259765625,-0.5008909106254578,-0.5934980511665344,0.6168949007987976
1783170448512232700,1.137232666015625,-0.5794146656990051,-0.4825584888458252,0.5476910471916199
1783170448522302700,1.147302734375,-0.6770160794258118,-0.39954110980033875,0.47782090306282043
1783170448532372700,1.157372802734375,-0.777300238609314,-0.3480263948440552,0.42002400755882263
1783170448542442800,1.16744287109375,-0.8624587655067444,-0.3340109586715698,0.39291220903396606
1783170448552511700,1.17751171875,-0.9070688486099243,-0.3465774953365326,0.40214067697525024
1783170448562581800,1.187581787109375,-0.9227092862129211,-0.3568487763404846,0.45783376693725586
1783170448572651500,1.197651611328125,-0.923744797706604,-0.3431788980960846,0.541093647480011
1783170448582721800,1.2077216796875,-0.9201910495758057,-0.30289697647094727,0.6365567445755005
1783170448592791800,1.217791748046875,-0.9126282334327698,-0.24694545567035675,0.7249267101287842
1783170448602860800,1.22786083984375,-0.8960332870483398,-0.1836165338754654,0.7878867983818054
1783170448612930800,1.237930908203125,-0.8815823793411255,-0.12990204989910126,0.8022810220718384
1783170448623000600,1.24800048828125,-0.8760715126991272,-0.10387949645519257,0.7611759305000305
1783170448633070600,1.258070556640625,-0.8720486760139465,-0.10038743168115616,0.6829916834831238
1783170448643140900,1.268140869140625,-0.8507748246192932,-0.10851593315601349,0.5921446084976196
1783170448653209600,1.278209716796875,-0.8328611850738525,-0.1395963579416275,0.5063327550888062
1783170448663279900,1.28827978515625,-0.8247156143188477,-0.17228639125823975,0.43082311749458313
1783170448673349600,1.298349609375,-0.8173856735229492,-0.20273537933826447,0.3643396198749542
1783170448683419600,1.308419677734375,-0.797292947769165,-0.18462055921554565,0.31013602018356323
1783170448693489700,1.31848974609375,-0.7608683109283447,-0.11461710184812546,0.2608349323272705
1783170448703558700,1.32855859375,-0.7160486578941345,-0.06006491184234619,0.19915559887886047
1783170448713628700,1.338628662109375,-0.664959192276001,-0.04330989718437195,0.136949360370636
1783170448723698700,1.34869873046875,-0.5895400643348694,-0.051174744963645935,0.0895693302154541
1783170448733768700,1.358768798828125,-0.5042315721511841,-0.08301163464784622,0.042494941502809525
1783170448743838700,1.368838623046875,-0.4232321083545685,-0.14421240985393524,-0.0019502886570990086
1783170448753907700,1.37890771484375,-0.34444019198417664,-0.2165525108575821,-0.04239730164408684
1783170448763977700,1.388977783203125,-0.2755093276500702,-0.26935288310050964,-0.0628378614783287
1783170448774047500,1.399047607421875,-0.2239660620689392,-0.2817119359970093,-0.06790860742330551
1783170448784117800,1.40911767578125,-0.18626049160957336,-0.2329832911491394,-0.07108869403600693
1783170448794187800,1.419187744140625,-0.15675057470798492,-0.12189564853906631,-0.09340690076351166
1783170448804256800,1.4292568359375,-0.13317202031612396,-0.0024329042062163353,-0.1447257548570633
1783170448814326800,1.439326904296875,-0.11186329275369644,0.09136802703142166,-0.20206090807914734
1783170448824396500,1.449396484375,-0.07208552211523056,0.12691615521907806,-0.23523910343647003
1783170448834466800,1.459466796875,-0.0019308410119265318,0.11738936603069305,-0.22065255045890808
1783170448844536800,1.469536865234375,0.08486264199018478,0.052004240453243256,-0.15914206206798553
1783170448854606600,1.479606689453125,0.17851421236991882,-0.03347098082304001,-0.03613648936152458
1783170448864675800,1.48967578125,0.2715749144554138,-0.11061476171016693,0.1122489869594574
1783170448874745600,1.49974560546875,0.35287901759147644,-0.16316279768943787,0.2544305622577667
1783170448884815600,1.509815673828125,0.41797757148742676,-0.1689157634973526,0.34548136591911316
1783170448894886000,1.519885986328125,0.4657820165157318,-0.11533575505018234,0.37229806184768677
1783170448904954600,1.52995458984375,0.5041432976722717,-0.04772981256246567,0.34696316719055176
1783170448915024600,1.540024658203125,0.5439496636390686,-0.016833148896694183,0.29398757219314575
1783170448925094700,1.5500947265625,0.5885581374168396,-0.020649190992116928,0.23734238743782043
1783170448935164700,1.56016455078125,0.6405159831047058,-0.04649210721254349,0.2072751373052597
1783170448945234700,1.570234619140625,0.6919608116149902,-0.09464791417121887,0.1967788189649582
1783170448955304700,1.5803046875,0.7377573847770691,-0.13966000080108643,0.19709394872188568
1783170448965373700,1.590373779296875,0.7813472151756287,-0.1607719510793686,0.19412079453468323
1783170448975443700,1.600443603515625,0.8253889679908752,-0.1552852988243103,0.1829492300748825
1783170448985513700,1.610513671875,0.8666117191314697,-0.129155695438385,0.15835706889629364
1783170448995583700,1.620583740234375,0.8959740996360779,-0.08205009996891022,0.13254256546497345
1783170449005652000,1.63065185546875,0.9148650169372559,-0.03640937805175781,0.09143374115228653
1783170449015721000,1.640720947265625,0.9230121374130249,-0.026502151042222977,0.049746982753276825
1783170449025791000,1.650791015625,0.9341031312942505,-0.02867715433239937,0.016086753457784653
1783170449035861000,1.660861083984375,0.94720858335495,-0.04082556813955307,-0.008527574129402637
1783170449045930800,1.6709306640625,0.9609512686729431,-0.03992301970720291,-0.035733629018068314
1783170449056001000,1.6810009765625,0.9615438580513,-0.04288685321807861,-0.06917591392993927
1783170449066069800,1.69106982421875,0.9577224850654602,-0.03329814225435257,-0.10872625559568405
1783170449076140000,1.70114013671875,0.9499800801277161,-0.01007764134556055,-0.14364635944366455
1783170449086210000,1.7112099609375,0.9571006298065186,0.009903257712721825,-0.17699843645095825
1783170449096279800,1.72127978515625,0.9739208817481995,0.013940742239356041,-0.19375015795230865
1783170449106349800,1.731349853515625,0.9890508651733398,0.0064809625037014484,-0.19414323568344116
1783170449116418800,1.741418701171875,0.9963284134864807,-0.02902962453663349,-0.18011482059955597
1783170449126488800,1.75148876953125,0.998619556427002,-0.07706719636917114,-0.14446601271629333
1783170449136559000,1.76155908203125,1.0040448904037476,-0.1220523789525032,-0.11016035825014114
1783170449146628900,1.77162890625,1.0021042823791504,-0.14667117595672607,-0.102848120033741
1783170449156699000,1.781698974609375,0.994005024433136,-0.16287250816822052,-0.12729120254516602
1783170449166767900,1.791767822265625,0.9906992316246033,-0.163076251745224,-0.16608253121376038
1783170449176838000,1.801837890625,0.9725539684295654,-0.1556481570005417,-0.21525093913078308
1783170449186908000,1.811907958984375,0.9397307634353638,-0.12928499281406403,-0.2653982639312744
1783170449196978000,1.82197802734375,0.891652524471283,-0.07648596167564392,-0.3099871575832367
1783170449207047000,1.832046875,0.8153867721557617,-0.026424653828144073,-0.34645354747772217
1783170449217117000,1.842116943359375,0.7126942276954651,-0.00411335751414299,-0.389826238155365
1783170449227187000,1.85218701171875,0.6314553022384644,0.0016979258507490158,-0.42820611596107483
1783170449237257000,1.862257080078125,0.6056992411613464,0.02726760134100914,-0.4333779811859131
1783170449247327000,1.872326904296875,0.6307446360588074,0.049863722175359726,-0.3972277045249939
1783170449257396000,1.88239599609375,0.6626105904579163,0.0381346270442009,-0.32677626609802246
1783170449267465700,1.8924658203125,0.6682980060577393,0.007544230204075575,-0.25260135531425476
1783170449277536000,1.902535888671875,0.6465492248535156,-0.03605823963880539,-0.18327459692955017
1783170449287606000,1.91260595703125,0.6045873761177063,-0.06433728337287903,-0.1303219050168991
1783170449297675800,1.92267578125,0.562818169593811,-0.05432046949863434,-0.09113872051239014
1783170449307745000,1.9327451171875,0.5194621682167053,-0.014627117663621902,-0.05518098175525665
1783170449317814800,1.942814697265625,0.4499248266220093,0.025265436619520187,-0.01613803207874298
1783170449327884800,1.952884765625,0.3481220304965973,0.05779675021767616,0.0406874343752861
1783170449337955000,1.962955078125,0.23321478068828583,0.09320720285177231,0.10782943665981293
1783170449348024800,1.97302490234375,0.10259551554918289,0.14000214636325836,0.19401945173740387
1783170449358094000,1.983093994140625,-0.03254566341638565,0.16908344626426697,0.2735067903995514
1783170449368164000,1.9931640625,-0.17262448370456696,0.19874149560928345,0.3502340614795685
1783170449378233900,2.00323388671875,-0.2839564383029938,0.20913513004779816,0.43588706851005554
1783170449388304000,2.013303955078125,-0.3489498198032379,0.2082538902759552,0.5194773077964783
1783170449398374000,2.023373779296875,-0.3893466889858246,0.20357352495193481,0.5980294346809387
1783170449408443000,2.03344287109375,-0.4168992042541504,0.17399033904075623,0.668014645576477
1783170449418513200,2.04351318359375,-0.4226667881011963,0.10720917582511902,0.7602536082267761
1783170449428583000,2.0535830078125,-0.42103880643844604,-0.003947709687054157,0.8676895499229431
1783170449438653000,2.06365283203125,-0.4132644534111023,-0.14143326878547668,0.979868471622467
1783170449448723000,2.073722900390625,-0.386351615190506,-0.3069090247154236,1.0961008071899414
1783170449458792000,2.0837919921875,-0.35078164935112,-0.45678362250328064,1.206520915031433
1783170449468862000,2.093862060546875,-0.3136798143386841,-0.5788405537605286,1.3122590780258179
1783170449478932000,2.103931884765625,-0.27512839436531067,-0.7120639085769653,1.4026448726654053
1783170449489002000,2.114001953125,-0.23207677900791168,-0.8338974118232727,1.4664206504821777
1783170449499071700,2.12407177734375,-0.183925062417984,-0.9417709708213806,1.5222886800765991
1783170449509141000,2.13414111328125,-0.14456142485141754,-1.0271450281143188,1.5467554330825806
1783170449519211000,2.1442109375,-0.13169042766094208,-1.0833438634872437,1.527191400527954
1783170449529281000,2.154281005859375,-0.14381207525730133,-1.109999179840088,1.4562116861343384
1783170449539351000,2.16435107421875,-0.17597709596157074,-1.0978708267211914,1.3609278202056885
1783170449549420800,2.1744208984375,-0.23245635628700256,-1.071448564529419,1.2654380798339844
1783170449559490000,2.184489990234375,-0.2885158956050873,-1.0146540403366089,1.179171085357666
1783170449569560000,2.19456005859375,-0.3300505578517914,-0.9260769486427307,1.109692096710205
1783170449579629800,2.2046298828125,-0.3666832149028778,-0.7902759909629822,1.0507010221481323
1783170449589700000,2.2147001953125,-0.4069230556488037,-0.6520491242408752,0.981888473033905
1783170449599768800,2.224768798828125,-0.45487380027770996,-0.5287302732467651,0.896305501461029
1783170449609838800,2.2348388671875,-0.4952952563762665,-0.42869821190834045,0.8124431371688843
1783170449619909000,2.2449091796875,-0.5304383635520935,-0.3771284818649292,0.7588517665863037
1783170449629979000,2.254978759765625,-0.5529887080192566,-0.3868604600429535,0.755535900592804
1783170449640049000,2.265048828125,-0.5623518824577332,-0.4224304258823395,0.8082743287086487
1783170449650118000,2.275117919921875,-0.5574820637702942,-0.49189820885658264,0.8802524209022522
1783170449660188000,2.28518798828125,-0.5489079356193542,-0.5703057646751404,0.9750648140907288
1783170449670258000,2.2952578125,-0.544891893863678,-0.6400185227394104,1.0678274631500244
1783170449680328000,2.305327880859375,-0.5319851040840149,-0.6649422645568848,1.1207661628723145
1783170449690398000,2.31539794921875,-0.5007672309875488,-0.6549690365791321,1.124906301498413
1783170449700467000,2.325467041015625,-0.4670546054840088,-0.6317469477653503,1.1008397340774536
1783170449710537000,2.335536865234375,-0.4254773259162903,-0.5920788645744324,1.0657455921173096
1783170449720607000,2.34560693359375,-0.37944403290748596,-0.5723636150360107,1.0159635543823242
1783170449730677000,2.355677001953125,-0.33906304836273193,-0.5813680291175842,0.9825329184532166
1783170449740747000,2.3657470703125,-0.29243698716163635,-0.6113236546516418,0.9675347805023193
1783170449750815700,2.375815673828125,-0.23369699716567993,-0.6553347706794739,0.9868160486221313
1783170449760886000,2.385885986328125,-0.17967559397220612,-0.6954774260520935,1.0277804136276245
1783170449770956000,2.3959560546875,-0.14444835484027863,-0.725759744644165,1.0609294176101685
1783170449781025800,2.40602587890625,-0.12095901370048523,-0.7448415160179138,1.0756821632385254
1783170449791096000,2.416095947265625,-0.12298301607370377,-0.7492924928665161,1.068222999572754
1783170449801164800,2.426164794921875,-0.13962259888648987,-0.743792712688446,1.0409767627716064
1783170449811235000,2.436235107421875,-0.1458280384540558,-0.7148007750511169,0.9967986941337585
1783170449821305000,2.44630517578125,-0.13887909054756165,-0.672956109046936,0.9505066871643066
1783170449831374800,2.456374755859375,-0.12859289348125458,-0.6318225264549255,0.9097800254821777
1783170449841444000,2.466444091796875,-0.12033011019229889,-0.5989689826965332,0.8797913789749146
1783170449851513900,2.476513916015625,-0.1082630604505539,-0.5650041103363037,0.8614621758460999
1783170449861584000,2.486583984375,-0.09425357729196548,-0.5143796801567078,0.8489673137664795
1783170449871654100,2.496654052734375,-0.07639148831367493,-0.4522979259490967,0.8167768716812134
1783170449881724000,2.506723876953125,-0.057869017124176025,-0.399895578622818,0.7699962854385376
1783170449891793000,2.51679296875,-0.015384671278297901,-0.3622584342956543,0.7461093068122864
1783170449901863000,2.52686279296875,0.04532351344823837,-0.3411101698875427,0.7565245628356934
1783170449911933000,2.536932861328125,0.08810346573591232,-0.35407495498657227,0.7838086485862732
1783170449922003000,2.5470029296875,0.08883639425039291,-0.4096050560474396,0.7818283438682556
1783170449932073000,2.557072998046875,0.10092741250991821,-0.4930267035961151,0.7601798176765442
1783170449942142000,2.567141845703125,0.15721258521080017,-0.5094816088676453,0.734279453754425
1783170449952212000,2.5772119140625,0.23163968324661255,-0.4590495824813843,0.701481282711029
1783170449962282000,2.587281982421875,0.3018646836280823,-0.4075300395488739,0.6716932058334351
1783170449972352000,2.59735205078125,0.33513420820236206,-0.37321680784225464,0.6393643021583557
1783170449982421800,2.607421875,0.3429584205150604,-0.3448963761329651,0.6017918586730957
1783170449992491000,2.617490966796875,0.35658955574035645,-0.3058754801750183,0.5688706636428833
1783170450002560000,2.62756005859375,0.3663780987262726,-0.2821080982685089,0.5544138550758362
1783170450012630000,2.637630126953125,0.3538782596588135,-0.2644020617008209,0.5689083933830261
1783170450022699800,2.64769970703125,0.3440973162651062,-0.254681259393692,0.6075589656829834
1783170450032769000,2.65776904296875,0.3548476994037628,-0.27280327677726746,0.6604176759719849
1783170450042839000,2.667839111328125,0.365590363740921,-0.28941768407821655,0.7150148749351501
1783170450052908800,2.67790869140625,0.37866541743278503,-0.29972225427627563,0.7632535099983215
1783170450062979000,2.68797900390625,0.37605831027030945,-0.3134232759475708,0.7898196578025818
1783170450073048800,2.698048828125,0.3545599579811096,-0.3217243552207947,0.8049168586730957
1783170450083118000,2.7081181640625,0.3213382661342621,-0.33162370324134827,0.8066842555999756
1783170450093188000,2.71818798828125,0.28852546215057373,-0.3232078552246094,0.7929282784461975
1783170450103257900,2.7282578125,0.2711454927921295,-0.31637805700302124,0.7778913378715515
1783170450113327900,2.738327880859375,0.27002429962158203,-0.3245593011379242,0.7535135746002197
1783170450123398000,2.74839794921875,0.2894035279750824,-0.34378769993782043,0.7227489352226257
1783170450133467000,2.758466796875,0.33377233147621155,-0.3612673580646515,0.7114102840423584
1783170450143537200,2.768537109375,0.4059324562549591,-0.3902661204338074,0.727070152759552
1783170450153607000,2.77860693359375,0.48605817556381226,-0.4254118502140045,0.7659980654716492
1783170450163677000,2.788677001953125,0.5701168179512024,-0.44792303442955017,0.8035100698471069
1783170450173746000,2.798745849609375,0.6490781903266907,-0.4601503908634186,0.8143701553344727
1783170450183816000,2.80881591796875,0.711249053478241,-0.4457134008407593,0.7911126613616943
1783170450193886000,2.818885986328125,0.7431289553642273,-0.4218890070915222,0.7421618700027466
1783170450203956000,2.8289560546875,0.7566354274749756,-0.40687358379364014,0.6822521090507507
1783170450214026000,2.83902587890625,0.7619417905807495,-0.41229870915412903,0.6300836801528931
1783170450224095000,2.849094970703125,0.7701263427734375,-0.43436354398727417,0.6102310419082642
1783170450234165000,2.8591650390625,0.772638738155365,-0.4768896996974945,0.626446008682251
1783170450244235000,2.869235107421875,0.7739086747169495,-0.5118058919906616,0.6746430397033691
1783170450254304800,2.8793046875,0.7789663076400757,-0.5055280327796936,0.7161233425140381
1783170450264375000,2.889375,0.790010929107666,-0.46676886081695557,0.7356342077255249
1783170450274443800,2.89944384765625,0.7911017537117004,-0.4260065257549286,0.7387682199478149
1783170450284514000,2.90951416015625,0.7945694327354431,-0.38943201303482056,0.7418525218963623
1783170450294584000,2.919583984375,0.8034635782241821,-0.38050001859664917,0.7563702464103699
1783170450304653800,2.92965380859375,0.8185696005821228,-0.41083091497421265,0.794525682926178
1783170450314724000,2.93972412109375,0.8348233699798584,-0.4625234007835388,0.8784924745559692
1783170450324792800,2.949792724609375,0.8509207963943481,-0.5246222019195557,0.9843599200248718
1783170450334862800,2.95986279296875,0.8648954629898071,-0.590945303440094,1.0843392610549927
1783170450344933000,2.96993310546875,0.8822486400604248,-0.641186535358429,1.162256121635437
1783170450355003000,2.9800029296875,0.9156109094619751,-0.6628561019897461,1.223824143409729
1783170450365072100,2.990072021484375,0.9435129165649414,-0.6961669325828552,1.266234278678894
1783170450375142000,3.000141845703125,0.9747336506843567,-0.7475923299789429,1.299843430519104
1783170450385212000,3.0102119140625,1.0042402744293213,-0.8187341094017029,1.3364022970199585
1783170450395282000,3.020281982421875,1.029218316078186,-0.8931745290756226,1.3897382020950317
1783170450405352000,3.03035205078125,1.0303038358688354,-0.974214494228363,1.4613161087036133
1783170450415421000,3.0404208984375,1.0243594646453857,-1.0469987392425537,1.5276893377304077
1783170450425491000,3.050490966796875,1.0038237571716309,-1.117806077003479,1.576167106628418
1783170450435561000,3.06056103515625,0.9749988913536072,-1.1700788736343384,1.6176713705062866
1783170450445631000,3.070630859375,0.9507375359535217,-1.2062543630599976,1.6418087482452393
1783170450455700000,3.080699951171875,0.9084393382072449,-1.2411460876464844,1.633013129234314
1783170450465770000,3.09077001953125,0.8580783009529114,-1.2670451402664185,1.5935766696929932
1783170450475839700,3.10083984375,0.8099730610847473,-1.2709519863128662,1.5404086112976074
1783170450485910000,3.110909912109375,0.7706116437911987,-1.2795078754425049,1.4971275329589844
1783170450495980000,3.12097998046875,0.7432961463928223,-1.2841354608535767,1.4850596189498901
1783170450506049000,3.131049072265625,0.717280387878418,-1.2972397804260254,1.502463698387146
1783170450516119000,3.141119140625,0.6973029971122742,-1.3425408601760864,1.5518014430999756
1783170450526188800,3.151188720703125,0.6744577288627625,-1.395013451576233,1.6009799242019653
1783170450536258800,3.1612587890625,0.6441874504089355,-1.4450055360794067,1.6278655529022217
1783170450546329000,3.1713291015625,0.6037510633468628,-1.4927079677581787,1.6240513324737549
1783170450556397800,3.181397705078125,0.5631303787231445,-1.5293253660202026,1.5876758098602295
1783170450566468000,3.191468017578125,0.5264518857002258,-1.5565459728240967,1.5544216632843018
1783170450576537900,3.201537841796875,0.504696786403656,-1.590896725654602,1.542544960975647
1783170450586607900,3.21160791015625,0.5050934553146362,-1.620612382888794,1.567624807357788
1783170450596676900,3.2216767578125,0.5334811806678772,-1.6380646228790283,1.6273679733276367
1783170450606747000,3.231746826171875,0.5727497339248657,-1.6526495218276978,1.7088172435760498
1783170450616817000,3.24181689453125,0.5958313345909119,-1.64862859249115,1.7788618803024292
1783170450626887000,3.251886962890625,0.5874061584472656,-1.6457619667053223,1.8223180770874023
1783170450636957000,3.26195703125,0.5522454977035522,-1.6327159404754639,1.8435919284820557
1783170450647026200,3.272026123046875,0.4995063245296478,-1.5801234245300293,1.836698293685913
1783170450657096000,3.282095947265625,0.43509671092033386,-1.5149873495101929,1.8210581541061401
1783170450667166000,3.292166015625,0.36936455965042114,-1.4587287902832031,1.8200708627700806
1783170450677236000,3.302236083984375,0.3158874809741974,-1.4271135330200195,1.8477925062179565
1783170450687305000,3.312304931640625,0.2681904137134552,-1.4141147136688232,1.905250072479248
1783170450697375000,3.322375,0.24118304252624512,-1.4139573574066162,1.9780054092407227
1783170450707445000,3.332445068359375,0.21443088352680206,-1.4267959594726562,2.035534620285034
1783170450717515000,3.342514892578125,0.18729113042354584,-1.4699831008911133,2.0862905979156494
1783170450727584800,3.352584716796875,0.16467402875423431,-1.530277967453003,2.142103433609009
1783170450737654000,3.362654052734375,0.13948479294776917,-1.5991318225860596,2.20444655418396
1783170450747724000,3.37272412109375,0.12877357006072998,-1.6414812803268433,2.259186029434204
1783170450757793800,3.382793701171875,0.13688476383686066,-1.6746989488601685,2.290515184402466
1783170450767864000,3.392864013671875,0.1417706310749054,-1.6705219745635986,2.294860601425171
1783170450777932800,3.402932861328125,0.14168541133403778,-1.6455942392349243,2.2765281200408936
1783170450788003000,3.413003173828125,0.1283465474843979,-1.6159499883651733,2.23612904548645
1783170450798073000,3.423072998046875,0.10480339825153351,-1.5782456398010254,2.170572280883789
1783170450808142800,3.433142822265625,0.08179350942373276,-1.5262088775634766,2.1043405532836914
1783170450818212900,3.443212890625,0.057759545743465424,-1.4584723711013794,2.046403169631958
1783170450828281900,3.45328173828125,0.03387870267033577,-1.4034777879714966,2.027672052383423
1783170450838352000,3.463351806640625,0.030963074415922165,-1.353776216506958,2.0266268253326416
1783170450848422100,3.473422119140625,0.04610253497958183,-1.290588140487671,2.024643898010254
1783170450858492000,3.483491943359375,0.04969487339258194,-1.2188904285430908,2.0036604404449463
1783170450868562000,3.49356201171875,0.03296825662255287,-1.1303441524505615,1.9480129480361938
1783170450878631000,3.503630859375,-0.003211050992831588,-1.0346534252166748,1.8567674160003662
1783170450888701000,3.513700927734375,-0.041832875460386276,-0.927736759185791,1.7582300901412964
1783170450898771000,3.52377099609375,-0.0850708931684494,-0.8309572339057922,1.6654267311096191
1783170450908841000,3.533841064453125,-0.1278393417596817,-0.7548655271530151,1.5989906787872314
1783170450918910000,3.543909912109375,-0.16372063755989075,-0.6816134452819824,1.5615087747573853
1783170450928980000,3.55397998046875,-0.19253851473331451,-0.6316688656806946,1.536751389503479
1783170450939050000,3.564050048828125,-0.22893141210079193,-0.6059970259666443,1.503721833229065
1783170450949120000,3.5741201171875,-0.2642430365085602,-0.5929697155952454,1.4793298244476318
1783170450959190000,3.58418994140625,-0.285663902759552,-0.5514243841171265,1.4566495418548584
1783170450969259000,3.594259033203125,-0.29879656434059143,-0.5002236366271973,1.431588053703308
1783170450979328800,3.604328857421875,-0.3008248209953308,-0.4458767771720886,1.4182565212249756
1783170450989399000,3.61439892578125,-0.2974039912223816,-0.4076620042324066,1.4122812747955322
1783170450999469300,3.62446923828125,-0.28750449419021606,-0.3737754225730896,1.415499210357666
1783170451009538300,3.634538330078125,-0.2707420587539673,-0.3445335328578949,1.4182857275009155
1783170451019608300,3.6446083984375,-0.24672408401966095,-0.3123875856399536,1.4134342670440674
1783170451029678300,3.65467822265625,-0.22847022116184235,-0.30298954248428345,1.4001781940460205
1783170451039748400,3.664748291015625,-0.21879495680332184,-0.3106304109096527,1.3760899305343628
1783170451049818400,3.674818359375,-0.20430384576320648,-0.2835270166397095,1.3202117681503296
1783170451059887400,3.684887451171875,-0.17994657158851624,-0.24486245214939117,1.245611548423767
1783170451069957400,3.694957275390625,-0.1526278704404831,-0.23177514970302582,1.213769793510437
1783170451080027400,3.70502734375,-0.11502323299646378,-0.24228344857692719,1.2328262329101562
1783170451090097400,3.715097412109375,-0.08627154678106308,-0.2536284923553467,1.2678985595703125
1783170451100166400,3.72516650390625,-0.06851784884929657,-0.22586478292942047,1.2704166173934937
1783170451110236400,3.735236328125,-0.06472574919462204,-0.1747993528842926,1.2371594905853271
1783170451120306200,3.74530615234375,-0.07254372537136078,-0.14693894982337952,1.1954309940338135
1783170451130376400,3.75537646484375,-0.08280595391988754,-0.15011464059352875,1.1607716083526611
1783170451140445200,3.765445068359375,-0.09788264334201813,-0.17504742741584778,1.1410574913024902
1783170451150515200,3.77551513671875,-0.11372546851634979,-0.2295086681842804,1.1304001808166504
1783170451160585500,3.78558544921875,-0.135248601436615,-0.29692259430885315,1.1140973567962646
1783170451170655200,3.7956552734375,-0.1591247171163559,-0.33708930015563965,1.0789536237716675
1783170451180725200,3.805725341796875,-0.17342296242713928,-0.3358594477176666,1.0226181745529175
1783170451190794200,3.815794189453125,-0.1921718716621399,-0.30189046263694763,0.9522376656532288
1783170451200864300,3.8258642578125,-0.21977819502353668,-0.2586473822593689,0.869724690914154
1783170451210934500,3.8359345703125,-0.24059028923511505,-0.18951542675495148,0.7643247246742249
1783170451221004300,3.84600439453125,-0.24821172654628754,-0.13610467314720154,0.6667619347572327
1783170451231073300,3.8560732421875,-0.256365031003952,-0.10855761170387268,0.5803727507591248
1783170451241143300,3.866143310546875,-0.2648645043373108,-0.11241252720355988,0.5085800886154175
1783170451251213300,3.87621337890625,-0.27505695819854736,-0.13646180927753448,0.44836509227752686
1783170451261283300,3.886283447265625,-0.28518521785736084,-0.16753317415714264,0.380105584859848
1783170451271353300,3.896353271484375,-0.2960934638977051,-0.18414224684238434,0.2904457151889801
1783170451281422300,3.90642236328125,-0.2802516520023346,-0.18083220720291138,0.1780049055814743
1783170451291492000,3.9164921875,-0.26496434211730957,-0.142607182264328,0.06103990599513054
1783170451301562400,3.926562255859375,-0.24088458716869354,-0.0937938466668129,-0.03903635963797569
1783170451311632400,3.93663232421875,-0.1951485276222229,-0.04541272297501564,-0.13205072283744812
1783170451321701400,3.946701416015625,-0.14075851440429688,0.0039542908780276775,-0.22120323777198792
1783170451331771400,3.956771484375,-0.09388270229101181,0.03803543001413345,-0.2988632619380951
1783170451341841200,3.966841064453125,-0.053580284118652344,0.047612421214580536,-0.3788158595561981
1783170451351911400,3.976911376953125,-0.003518124809488654,0.020310893654823303,-0.45754125714302063
1783170451361981400,3.9869814453125,0.054866887629032135,-0.022282373160123825,-0.5186866521835327
1783170451372050200,3.99705029296875,0.12287338078022003,-0.08818855881690979,-0.5427178144454956
1783170451382120400,4.007120361328125,0.1915706843137741,-0.14807584881782532,-0.5370324850082397
1783170451392190200,4.017190185546875,0.22430911660194397,-0.19722862541675568,-0.505085289478302
1783170451402260200,4.02726025390625,0.23187968134880066,-0.23565085232257843,-0.4499503970146179
1783170451412329500,4.03732958984375,0.2403385192155838,-0.2627258598804474,-0.37050583958625793
1783170451422399200,4.047399169921875,0.2744317650794983,-0.22915352880954742,-0.28167104721069336
1783170451432469200,4.05746923828125,0.3041965067386627,-0.1241898238658905,-0.22464291751384735
1783170451442539300,4.067539306640625,0.32268205285072327,-0.025890957564115524,-0.21293538808822632
1783170451452609300,4.077609375,0.32142600417137146,0.009669167920947075,-0.23242893815040588
1783170451462678500,4.087678466796875,0.3178890645503998,0.0006881901063024998,-0.2831043601036072
1783170451472748300,4.097748291015625,0.32864469289779663,-0.029216714203357697,-0.336283415555954
1783170451482818300,4.107818359375,0.3399050533771515,-0.07392772287130356,-0.37920746207237244
1783170451492888300,4.117888427734375,0.3375318646430969,-0.12445227801799774,-0.38686010241508484
1783170451502957300,4.127957275390625,0.3140428066253662,-0.18163487315177917,-0.3729277551174164
1783170451513027300,4.13802734375,0.2917298972606659,-0.18432654440402985,-0.35117751359939575
1783170451523097300,4.148097412109375,0.2727532684803009,-0.10625144094228745,-0.37298694252967834
1783170451533167400,4.15816748046875,0.2543475329875946,0.02692631632089615,-0.4597216248512268
1783170451543237000,4.168237060546875,0.2463924139738083,0.14969699084758759,-0.5826001167297363
1783170451553306400,4.178306396484375,0.2410753220319748,0.25860002636909485,-0.6944441199302673
1783170451563376400,4.18837646484375,0.2505037188529968,0.34731394052505493,-0.7762148976325989
1783170451573446400,4.1984462890625,0.2680366635322571,0.3759552836418152,-0.7965934872627258
1783170451583516400,4.208516357421875,0.2907395660877228,0.32138791680336,-0.750260591506958
1783170451593585200,4.218585205078125,0.300092488527298,0.2163708209991455,-0.6555508375167847
1783170451603655400,4.228655517578125,0.28758546710014343,0.13829278945922852,-0.5579472780227661
1783170451613725400,4.238725341796875,0.26402008533477783,0.11671146750450134,-0.4998520314693451
1783170451623795200,4.248795166015625,0.25449633598327637,0.14072012901306152,-0.4887498617172241
1783170451633864400,4.258864501953125,0.24498164653778076,0.1971001774072647,-0.480773389339447
1783170451643934200,4.268934326171875,0.235420361161232,0.27030888199806213,-0.46943819522857666
1783170451654004200,4.279004150390625,0.22438925504684448,0.3241196572780609,-0.4575459063053131
1783170451664074500,4.289074462890625,0.21539442241191864,0.3407822549343109,-0.43769070506095886
1783170451674144300,4.299144287109375,0.20291639864444733,0.3326241970062256,-0.4084635376930237
1783170451684213500,4.309213623046875,0.19614450633525848,0.31874966621398926,-0.3926456570625305
1783170451694283300,4.319283203125,0.1892044097185135,0.3187897205352783,-0.4001907706260681
1783170451704353300,4.329353271484375,0.191111221909523,0.32945194840431213,-0.42139989137649536
1783170451714423300,4.33942333984375,0.20240862667560577,0.35343238711357117,-0.4316275119781494
1783170451724492300,4.3494921875,0.2109437882900238,0.3729570806026459,-0.4336525797843933
1783170451734562300,4.359562255859375,0.21493053436279297,0.3873240351676941,-0.42098018527030945
1783170451744632300,4.36963232421875,0.20681162178516388,0.4147420823574066,-0.4098689556121826
1783170451754702300,4.379702392578125,0.1768677532672882,0.4534323811531067,-0.4008612632751465
1783170451764771300,4.389771240234375,0.1453780084848404,0.4848693907260895,-0.3974204659461975
1783170451774841300,4.39984130859375,0.1412171721458435,0.5114039182662964,-0.403751403093338
1783170451784911400,4.409911376953125,0.17530056834220886,0.5245354175567627,-0.4273446202278137
1783170451794981000,4.419981201171875,0.22500057518482208,0.5238547325134277,-0.44302695989608765
1783170451805051400,4.430051513671875,0.2682705521583557,0.5154327154159546,-0.44304320216178894
1783170451815120100,4.4401201171875,0.29915863275527954,0.48521265387535095,-0.4195232689380646
1783170451825190400,4.4501904296875,0.315409779548645,0.43058642745018005,-0.3661998510360718
1783170451835260400,4.460260498046875,0.3294808268547058,0.3763004243373871,-0.31069788336753845
1783170451845330200,4.470330078125,0.33602583408355713,0.3454383909702301,-0.26736241579055786
1783170451855399400,4.4803994140625,0.33323046565055847,0.3545972406864166,-0.2576906383037567
1783170451865469200,4.49046923828125,0.3141169548034668,0.3795609176158905,-0.2837528586387634
1783170451875539200,4.500539306640625,0.2824316918849945,0.3844033479690552,-0.3363996744155884
1783170451885609500,4.510609375,0.26345187425613403,0.36729785799980164,-0.3830004632472992
1783170451895678200,4.52067822265625,0.24396714568138123,0.33772292733192444,-0.39671996235847473
1783170451905748500,4.53074853515625,0.21898455917835236,0.2886534035205841,-0.3729214072227478
1783170451915818200,4.540818359375,0.1861138641834259,0.2417045384645462,-0.3350382447242737
1783170451925888300,4.55088818359375,0.1561591625213623,0.2215137779712677,-0.320702463388443
1783170451935958300,4.560958251953125,0.1438961625099182,0.2389885038137436,-0.3397330641746521
1783170451946027300,4.57102734375,0.13932964205741882,0.28213199973106384,-0.3646394908428192
1783170451956097300,4.58109716796875,0.12462589144706726,0.31437408924102783,-0.3971225619316101
1783170451966167300,4.591167236328125,0.08694269508123398,0.34028345346450806,-0.4276818037033081
1783170451976237300,4.6012373046875,0.033916521817445755,0.36213281750679016,-0.4670501947402954
1783170451986306300,4.611306396484375,-0.03617654740810394,0.38054752349853516,-0.5092855095863342
1783170451996376300,4.621376220703125,-0.12534692883491516,0.3850973844528198,-0.5663570165634155
1783170452006445300,4.6314453125,-0.21143200993537903,0.35356128215789795,-0.6259966492652893
1783170452016515600,4.641515625,-0.21459507942199707,0.3008135259151459,-0.6601392030715942
1783170452026584300,4.651584228515625,-0.16750267148017883,0.2248537838459015,-0.6360519528388977
1783170452036654600,4.661654541015625,-0.09586209803819656,0.1296740025281906,-0.534071683883667
1783170452046724600,4.671724609375,-0.0054725464433431625,0.04812641069293022,-0.4050430953502655
1783170452056794400,4.68179443359375,0.0514286570250988,-0.0326567180454731,-0.2928849756717682
1783170452066864400,4.691864501953125,0.04546556994318962,-0.08670450001955032,-0.24281539022922516
1783170452076933400,4.701933349609375,0.0193626806139946,-0.1063983142375946,-0.23437534272670746
1783170452087003400,4.71200341796875,-0.02534540183842182,-0.10544463992118835,-0.2547628879547119
1783170452097073700,4.72207373046875,-0.08987218886613846,-0.07229401171207428,-0.27807682752609253
1783170452107143400,4.732143310546875,-0.17030072212219238,-0.0071664052084088326,-0.2893387973308563
1783170452117212400,4.74221240234375,-0.25758445262908936,0.06060425192117691,-0.3001171946525574
1783170452127282400,4.752282470703125,-0.380229651927948,0.10716083645820618,-0.2854330539703369
1783170452137352400,4.7623525390625,-0.5466428399085999,0.1499117612838745,-0.23288200795650482
1783170452147422500,4.77242236328125,-0.7205222249031067,0.17695669829845428,-0.17135606706142426
1783170452157491500,4.782491455078125,-0.8627410531044006,0.22968995571136475,-0.10476609319448471
1783170452167561500,4.7925615234375,-0.9715969562530518,0.26165029406547546,-0.021012336015701294
1783170452177631500,4.802631591796875,-1.0321136713027954,0.2414078563451767,0.09950917959213257
1783170452187701500,4.812701416015625,-1.0552505254745483,0.18871721625328064,0.23443689942359924
1783170452197770500,4.8227705078125,-1.0737788677215576,0.10543590784072876,0.36706146597862244
1783170452207840500,4.832840576171875,-1.09006667137146,-0.009693877771496773,0.48525309562683105
1783170452217910500,4.84291064453125,-1.0849735736846924,-0.12049123644828796,0.577277660369873
1783170452227980300,4.852980224609375,-1.0689666271209717,-0.23311765491962433,0.6330248117446899
1783170452238050600,4.863050537109375,-1.0641270875930786,-0.27623450756073,0.6471174955368042
1783170452248119600,4.87311962890625,-1.0792179107666016,-0.20088326930999756,0.7238133549690247
1783170452258189300,4.883189208984375,-1.0811207294464111,-0.1575576364994049,0.7695168852806091
1783170452268259600,4.893259521484375,-1.0572495460510254,-0.16719429194927216,0.7682641744613647
1783170452278329300,4.903329345703125,-1.0439586639404297,-0.15920986235141754,0.7323100566864014
1783170452288398600,4.913398681640625,-1.0431435108184814,-0.18031567335128784,0.6831121444702148
1783170452298468600,4.923468505859375,-1.0338748693466187,-0.23144984245300293,0.6469207406044006
1783170452308538400,4.933538330078125,-1.031677007675171,-0.2421107292175293,0.6180001497268677
1783170452318608600,4.943608642578125,-1.0148450136184692,-0.22577571868896484,0.6122788786888123
1783170452328677400,4.953677490234375,-0.9555817246437073,-0.18549540638923645,0.6568439602851868
1783170452338747400,4.963747314453125,-0.9531801342964172,-0.12182440608739853,0.7351434230804443
1783170452348817700,4.973817626953125,-0.9406646490097046,-0.07711286097764969,0.7723323702812195
1783170452358887400,4.983887451171875,-0.9141281247138977,-0.005368638783693314,0.7320956587791443
1783170452368956700,4.993956787109375,-0.9131350517272949,0.10605189204216003,0.618613064289093
1783170452379026400,5.0040263671875,-0.9376314878463745,0.17560061812400818,0.48920103907585144
1783170452389096400,5.014096435546875,-0.9461554884910583,0.2043158859014511,0.40614742040634155
1783170452399166500,5.02416650390625,-0.9336351156234741,0.22474059462547302,0.3951500356197357
1783170452409236500,5.034236572265625,-0.9170079231262207,0.22028085589408875,0.4173256456851959
1783170452419305500,5.044305419921875,-0.9189242720603943,0.17953065037727356,0.43851786851882935
1783170452429375500,5.05437548828125,-0.9343317151069641,0.1225307434797287,0.42710116505622864
1783170452439445500,5.064445556640625,-0.93446284532547,0.10865446925163269,0.35491740703582764
1783170452449515500,5.074515625,-0.9237401485443115,0.14283880591392517,0.26003777980804443
1783170452459584500,5.08458447265625,-0.9191370010375977,0.22149792313575745,0.1683545857667923
1783170452469654500,5.094654541015625,-0.9076873064041138,0.3267814815044403,0.0775701031088829
1783170452479724300,5.104724365234375,-0.8832480311393738,0.44825199246406555,0.005969133693724871
1783170452489794600,5.114794677734375,-0.8443318009376526,0.5596067905426025,-0.03153456375002861
1783170452499863300,5.12486328125,-0.8314040899276733,0.6080313920974731,-0.04056711122393608
1783170452509933600,5.13493359375,-0.8271272778511047,0.5912212133407593,-0.042169537395238876
1783170452520003600,5.145003662109375,-0.8016901612281799,0.5312532186508179,-0.05907290056347847
1783170452530073300,5.1550732421875,-0.7668398022651672,0.4470329284667969,-0.09118396788835526
1783170452540142600,5.165142578125,-0.724218487739563,0.38709449768066406,-0.14919120073318481
1783170452550212400,5.17521240234375,-0.6610850691795349,0.3863741159439087,-0.2168826311826706
1783170452560282400,5.185282470703125,-0.5896680355072021,0.41236934065818787,-0.24408094584941864
1783170452570352600,5.1953525390625,-0.515330970287323,0.38724586367607117,-0.21806159615516663
1783170452580421400,5.20542138671875,-0.45423081517219543,0.33232322335243225,-0.15752282738685608
1783170452590491600,5.21549169921875,-0.4007777273654938,0.24572816491127014,-0.11884254217147827
1783170452600561400,5.2255615234375,-0.34370118379592896,0.14351844787597656,-0.12873420119285583
1783170452610631400,5.23563134765625,-0.26092374324798584,0.06765536963939667,-0.19181597232818604
1783170452620701400,5.245701416015625,-0.16191130876541138,0.0360453799366951,-0.3031383752822876
1783170452630770400,5.2557705078125,-0.06419593095779419,0.011546695604920387,-0.43222951889038086
1783170452640840400,5.26584033203125,0.024193573743104935,-0.04225248843431473,-0.5230410695075989
1783170452650910500,5.275910400390625,0.10458216071128845,-0.12887419760227203,-0.5562693476676941
1783170452660980500,5.28598046875,0.17453187704086304,-0.21755214035511017,-0.5413417220115662
1783170452671049500,5.296049560546875,0.20959186553955078,-0.3110072612762451,-0.49797749519348145
1783170452681119500,5.306119384765625,0.2382788509130478,-0.36427435278892517,-0.49595558643341064
1783170452691189500,5.316189453125,0.27189353108406067,-0.32723990082740784,-0.5827109813690186
1783170452701256400,5.32625634765625,0.28446701169013977,-0.21350041031837463,-0.7660232186317444
1783170452711326700,5.33632666015625,0.2794642448425293,-0.08234531432390213,-1.0127904415130615
1783170452721396500,5.346396484375,0.2591572403907776,0.014318913221359253,-1.2840869426727295
1783170452731466500,5.356466552734375,0.21823164820671082,0.07025008648633957,-1.5289829969406128
1783170452741536300,5.366536376953125,0.18686288595199585,0.11153627932071686,-1.709089756011963
1783170452751605500,5.37660546875,0.2011568695306778,0.1289038062095642,-1.8260140419006348
1783170452761675500,5.386675537109375,0.26681336760520935,0.09795495122671127,-1.8921805620193481
1783170452771745500,5.39674560546875,0.3583960235118866,0.07882440090179443,-1.9358428716659546
1783170452781815600,5.406815673828125,0.46127110719680786,0.02716653421521187,-1.984474539756775
1783170452791884500,5.416884521484375,0.5830420255661011,-0.02884294092655182,-2.0363588333129883
1783170452801954600,5.42695458984375,0.6962648034095764,-0.055768031626939774,-2.077526092529297
1783170452812024600,5.437024658203125,0.7857277989387512,0.008621878921985626,-2.112375259399414
1783170452822094300,5.44709423828125,0.8567633032798767,0.14887166023254395,-2.1445605754852295
1783170452832163600,5.45716357421875,0.9157267808914185,0.30728766322135925,-2.1815292835235596
1783170452842233300,5.4672333984375,0.9457272291183472,0.4756472706794739,-2.2301337718963623
1783170452852303600,5.4773037109375,0.9297592043876648,0.6043764352798462,-2.3196158409118652
1783170452862373600,5.48737353515625,0.8469233512878418,0.6960096955299377,-2.4688079357147217
1783170452872442400,5.4974423828125,0.7261245250701904,0.7607394456863403,-2.6262872219085693
1783170452882512600,5.5075126953125,0.5904259085655212,0.7799762487411499,-2.7349140644073486
1783170452892582400,5.51758251953125,0.48103606700897217,0.7757189273834229,-2.761023759841919
1783170452902652400,5.52765234375,0.3990103304386139,0.7669691443443298,-2.717956781387329
1783170452912721400,5.537721435546875,0.3246503472328186,0.7644119262695312,-2.6268858909606934
1783170452922791400,5.54779150390625,0.2555887699127197,0.7869212627410889,-2.5211281776428223
1783170452932861400,5.557861328125,0.2047053575515747,0.8116921186447144,-2.4384939670562744
1783170452942931500,5.567931396484375,0.15913458168506622,0.8028835654258728,-2.401597499847412
1783170452953000400,5.57800048828125,0.129319965839386,0.7750945091247559,-2.379753828048706
1783170452963070500,5.588070556640625,0.12123327702283859,0.75818932056427,-2.342256546020508
1783170452973140500,5.598140380859375,0.11479055881500244,0.7449067831039429,-2.257129669189453
1783170452983210500,5.60821044921875,0.1055443212389946,0.7198889255523682,-2.119367837905884
1783170452993279500,5.618279541015625,0.097519151866436,0.7000827789306641,-1.9594037532806396
1783170453003349500,5.628349609375,0.0931125059723854,0.7121572494506836,-1.8256855010986328
1783170453013419300,5.638419189453125,0.0898011326789856,0.7681566476821899,-1.752616286277771
1783170453023489500,5.648489501953125,0.061957910656929016,0.865451455116272,-1.754868507385254
1783170453033558300,5.658558349609375,0.02306510880589485,0.9865763187408447,-1.8245463371276855
1783170453043628500,5.668628662109375,-0.0021271533332765102,1.1095843315124512,-1.9192100763320923
1783170453053698600,5.678698486328125,-0.008628994226455688,1.199243426322937,-1.9869779348373413
1783170453063768300,5.688768310546875,0.005196688696742058,1.2266910076141357,-1.9965934753417969
1783170453073838600,5.698838623046875,0.0219919141381979,1.1867520809173584,-1.946508526802063
1783170453083909600,5.70890966796875,0.043897178024053574,1.1018766164779663,-1.827339768409729
1783170453093979600,5.718979736328125,0.07310779392719269,0.9853208661079407,-1.662231206893921
1783170453104049400,5.72904931640625,0.11053905636072159,0.8578723669052124,-1.4766440391540527
1783170453114119400,5.739119384765625,0.1413925737142563,0.7357879877090454,-1.3136556148529053
1783170453124189400,5.749189453125,0.16595721244812012,0.636568009853363,-1.1829687356948853
1783170453134258400,5.759258544921875,0.19329988956451416,0.5618165135383606,-1.0631227493286133
1783170453144328700,5.76932861328125,0.23316320776939392,0.4986356496810913,-0.9466345310211182
1783170453154398500,5.7793984375,0.2688876688480377,0.4428839683532715,-0.8523200154304504
1783170453164467500,5.789467529296875,0.3139292299747467,0.4119391143321991,-0.775216817855835
1783170453174537500,5.799537353515625,0.36339396238327026,0.3966760039329529,-0.7021729946136475
1783170453184607500,5.809607421875,0.405558705329895,0.37773001194000244,-0.6161870956420898
1783170453194677500,5.819677490234375,0.4302872121334076,0.350638210773468,-0.5143166780471802
1783170453204747500,5.82974755859375,0.44606995582580566,0.34247758984565735,-0.4176231026649475
1783170453214816500,5.83981640625,0.44395220279693604,0.35148975253105164,-0.34441280364990234
1783170453224886500,5.849886474609375,0.4251372814178467,0.368648499250412,-0.3163967728614807
1783170453234956500,5.85995654296875,0.40927577018737793,0.4040123522281647,-0.3413985073566437
1783170453245026600,5.870026611328125,0.38316866755485535,0.43828272819519043,-0.387580007314682
1783170453255095600,5.880095458984375,0.3563666045665741,0.4435427188873291,-0.4248906373977661
1783170453265165600,5.89016552734375,0.32449498772621155,0.4319601058959961,-0.4229896068572998
1783170453275235300,5.9002353515625,0.2842381000518799,0.42829611897468567,-0.4065302014350891
1783170453285305600,5.9103056640625,0.23775853216648102,0.4267868995666504,-0.41023746132850647
1783170453295374300,5.920374267578125,0.18805302679538727,0.4380747079849243,-0.4314556419849396
1783170453305444400,5.9304443359375,0.14015626907348633,0.4513857364654541,-0.46914198994636536
1783170453315514600,5.9405146484375,0.10665050894021988,0.4725879430770874,-0.5084683299064636
1783170453325584400,5.95058447265625,0.08388135582208633,0.4955395758152008,-0.5198951959609985
1783170453335653600,5.960653564453125,0.07441781461238861,0.5036145448684692,-0.4950375556945801
1783170453345723400,5.970723388671875,0.06441297382116318,0.47107821702957153,-0.4334361255168915
1783170453355793400,5.98079345703125,0.06462495774030685,0.4308018982410431,-0.37977370619773865
1783170453365863700,5.99086376953125,0.0571327768266201,0.4103615880012512,-0.350490927696228
1783170453375932400,6.000932373046875,0.060810334980487823,0.4226433038711548,-0.3539913594722748
1783170453386002400,6.01100244140625,0.0753549262881279,0.44477856159210205,-0.3793956935405731
1783170453396072400,6.021072509765625,0.08123651146888733,0.4490872919559479,-0.3978745639324188
1783170453406142500,6.031142578125,0.08440148830413818,0.4177011251449585,-0.40409016609191895
1783170453416211700,6.041211669921875,0.08060568571090698,0.3491106331348419,-0.3585737943649292
1783170453426281500,6.051281494140625,0.06635338813066483,0.23980168998241425,-0.27352026104927063
1783170453436351500,6.0613515625,0.06031626835465431,0.09439817070960999,-0.1717291921377182
1783170453446421500,6.07142138671875,0.045628346502780914,-0.0404515266418457,-0.07465951889753342
1783170453456490500,6.081490478515625,0.007637823931872845,-0.11851463466882706,-0.033529654145240784
1783170453466560500,6.091560546875,-0.05485235154628754,-0.13297906517982483,-0.05233553797006607
1783170453476630500,6.101630615234375,-0.09332304447889328,-0.09997689723968506,-0.11666605621576309
1783170453486700500,6.111700439453125,-0.07936610281467438,-0.03253248333930969,-0.1695471853017807
1783170453496769500,6.12176953125,-0.034182384610176086,0.04993096739053726,-0.17644423246383667
1783170453506839600,6.131839599609375,-0.009946625679731369,0.04919194057583809,-0.12571842968463898
1783170453516909600,6.14190966796875,-0.0020098730456084013,-0.022270258516073227,-0.01526995375752449
1783170453526979300,6.151979248046875,-0.03538837283849716,-0.12504950165748596,0.09202350676059723
1783170453537048600,6.162048583984375,-0.09799715131521225,-0.19953998923301697,0.15089480578899384
1783170453547118300,6.172118408203125,-0.14276285469532013,-0.2614780366420746,0.1647399216890335
1783170453557188600,6.182188720703125,-0.1703321635723114,-0.3075725734233856,0.16993920505046844
1783170453567258600,6.192258544921875,-0.19104644656181335,-0.3711608648300171,0.2288985550403595
1783170453577327600,6.20232763671875,-0.21080496907234192,-0.46501970291137695,0.3621141314506531
1783170453587397600,6.212397705078125,-0.21924392879009247,-0.5798489451408386,0.5273468494415283
1783170453597467400,6.22246728515625,-0.21338391304016113,-0.7177240252494812,0.6913394927978516
1783170453607537400,6.232537353515625,-0.2360600382089615,-0.8376886248588562,0.8254209160804749
1783170453617607700,6.242607666015625,-0.2585541605949402,-0.9197542071342468,0.924109697341919
1783170453627676400,6.252676513671875,-0.26302370429039,-0.966151237487793,0.9924883246421814
1783170453637746700,6.26274658203125,-0.24967753887176514,-1.0108857154846191,1.0635364055633545
1783170453647816400,6.27281640625,-0.2229551076889038,-1.1127289533615112,1.1721827983856201
1783170453657886500,6.282886474609375,-0.20681501924991608,-1.2471951246261597,1.3108749389648438
1783170453667955500,6.29295556640625,-0.20471543073654175,-1.3923617601394653,1.4713653326034546
1783170453678025500,6.303025390625,-0.23194491863250732,-1.4518407583236694,1.582509160041809
1783170453688095500,6.313095458984375,-0.27771735191345215,-1.3949178457260132,1.5576127767562866
1783170453698165500,6.32316552734375,-0.329880952835083,-1.2710928916931152,1.4190123081207275
1783170453708234500,6.333234375,-0.3978232145309448,-1.1178927421569824,1.2908395528793335
1783170453718304500,6.343304443359375,-0.45380446314811707,-0.989500105381012,1.2401283979415894
1783170453728374500,6.35337451171875,-0.49621906876564026,-0.916516900062561,1.2555655241012573
1783170453738444500,6.363444580078125,-0.5208008289337158,-0.9151565432548523,1.3121182918548584
1783170453748513500,6.373513427734375,-0.5202352404594421,-1.0014770030975342,1.3994303941726685
1783170453758583600,6.38358349609375,-0.5020639896392822,-1.1334283351898193,1.490373134613037
1783170453768653300,6.3936533203125,-0.4550437927246094,-1.2536638975143433,1.5854426622390747
1783170453778723600,6.4037236328125,-0.3913439214229584,-1.341914415359497,1.6776179075241089
1783170453788792300,6.413792236328125,-0.3364100158214569,-1.384438157081604,1.7503492832183838
1783170453798862300,6.4238623046875,-0.2893735468387604,-1.34604012966156,1.7783622741699219
1783170453808932600,6.4339326171875,-0.24107851088047028,-1.2462435960769653,1.7604962587356567
1783170453819002400,6.44400244140625,-0.1807912141084671,-1.1281299591064453,1.7071946859359741
1783170453829071600,6.454071533203125,-0.1363242119550705,-0.9892981052398682,1.615689992904663
1783170453839141400,6.464141357421875,-0.13554790616035461,-0.8466733694076538,1.4968914985656738
1783170453849211400,6.47421142578125,-0.1161445900797844,-0.7285545468330383,1.3621394634246826
1783170453859281700,6.48428173828125,-0.08585885912179947,-0.6626426577568054,1.2519842386245728
1783170453869350400,6.494350341796875,-0.06693330407142639,-0.6335000991821289,1.188577651977539
1783170453879420400,6.50442041015625,-0.06577589362859726,-0.6419620513916016,1.15944504737854
1783170453889490700,6.51449072265625,-0.07896389812231064,-0.656365156173706,1.151466965675354
1783170453899560400,6.524560546875,-0.10681390017271042,-0.6651259064674377,1.1338496208190918
1783170453909629700,6.534629638671875,-0.13388587534427643,-0.637454628944397,1.090842366218567
1783170453919699500,6.544699462890625,-0.1495756208896637,-0.6097012758255005,1.0174390077590942
1783170453929769500,6.55476953125,-0.15987667441368103,-0.6090171337127686,0.9491971135139465
1783170453939839500,6.564839599609375,-0.1529543250799179,-0.6000539660453796,0.9078227877616882
1783170453949908500,6.574908447265625,-0.12885405123233795,-0.5723620653152466,0.8842854499816895
1783170453959978500,6.584978515625,-0.0976487249135971,-0.519662082195282,0.8750818371772766
1783170453970048500,6.595048583984375,-0.0643967017531395,-0.47132501006126404,0.881549596786499
1783170453980118500,6.605118408203125,-0.034040387719869614,-0.4566696286201477,0.8833177089691162
1783170453990187500,6.6151875,-0.010597332380712032,-0.47552987933158875,0.8810626864433289
1783170454000257500,6.625257568359375,0.007658637128770351,-0.49192938208580017,0.8673032522201538
1783170454010328000,6.635328125,0.024872872978448868,-0.4724685847759247,0.8247975707054138
1783170454020398000,6.645398193359375,0.049410175532102585,-0.44584551453590393,0.7838192582130432
1783170454030467000,6.655467041015625,0.08581729233264923,-0.41509518027305603,0.7662463188171387
1783170454040537000,6.665537109375,0.12722545862197876,-0.3785872459411621,0.7616326212882996
1783170454050606800,6.67560693359375,0.14563249051570892,-0.3667369484901428,0.7642544507980347
1783170454060677000,6.685677001953125,0.14739976823329926,-0.35931524634361267,0.7631924152374268
1783170454070746000,6.69574609375,0.14142635464668274,-0.326188325881958,0.7512843608856201
1783170454080816000,6.705816162109375,0.13981221616268158,-0.26744431257247925,0.697871208190918
1783170454090886100,6.71588623046875,0.1488114595413208,-0.199039027094841,0.6146254539489746
1783170454100956000,6.725955810546875,0.17463986575603485,-0.1379069685935974,0.5333471298217773
1783170454111025200,6.736025146484375,0.19039519131183624,-0.09968288987874985,0.48222818970680237
1783170454121095200,6.74609521484375,0.20726871490478516,-0.0717465952038765,0.45249372720718384
1783170454131165000,6.7561650390625,0.2288154512643814,-0.09138940274715424,0.4504149258136749
1783170454141235200,6.766235107421875,0.261295884847641,-0.13908715546131134,0.4727311432361603
1783170454151304000,6.776303955078125,0.30457398295402527,-0.2006174921989441,0.5173162221908569
1783170454161374200,6.786374267578125,0.32698768377304077,-0.26264864206314087,0.5599856376647949
1783170454171444200,6.7964443359375,0.33528584241867065,-0.3035306930541992,0.5703465342521667
1783170454181514000,6.806513916015625,0.33105382323265076,-0.3223203718662262,0.519590437412262
1783170454191583200,6.816583251953125,0.32809343934059143,-0.29822009801864624,0.42360827326774597
1783170454201653000,6.826653076171875,0.3315292000770569,-0.23497667908668518,0.29659757018089294
1783170454211723000,6.836722900390625,0.3591902256011963,-0.16206730902194977,0.16130323708057404
1783170454221793300,6.846793212890625,0.40056243538856506,-0.12929044663906097,0.057728108018636703
1783170454231862000,6.856862060546875,0.45306673645973206,-0.14215750992298126,0.0014404822140932083
1783170454241932000,6.86693212890625,0.5289025902748108,-0.1709824949502945,-0.0007664794102311134
1783170454252002000,6.877001953125,0.6202816963195801,-0.1856735646724701,0.05914982035756111
1783170454262072000,6.887072021484375,0.6963785886764526,-0.19411632418632507,0.13763344287872314
1783170454272141000,6.89714111328125,0.7392396926879883,-0.21801753342151642,0.19712141156196594
1783170454282211000,6.907211181640625,0.7658888697624207,-0.24366404116153717,0.21645516157150269
1783170454292281000,6.917281005859375,0.8012134432792664,-0.24655409157276154,0.20126760005950928
1783170454302351000,6.92735107421875,0.8407099843025208,-0.23873211443424225,0.19305148720741272
1783170454312420000,6.937420166015625,0.8800788521766663,-0.2461135983467102,0.25766777992248535
1783170454322489900,6.94748974609375,0.9139710068702698,-0.2929535508155823,0.37531664967536926
1783170454332560100,6.95756005859375,0.9170204997062683,-0.37382614612579346,0.511259913444519
1783170454342628900,6.96762890625,0.8793932199478149,-0.46099913120269775,0.6414656043052673
1783170454352699100,6.97769921875,0.8211174011230469,-0.5343093276023865,0.7459323406219482
1783170454362769200,6.98776904296875,0.7692901492118835,-0.5792027711868286,0.8278765082359314
1783170454372839000,6.9978388671875,0.7389413118362427,-0.6276893019676208,0.9097472429275513
1783170454382908200,7.007908203125,0.7216715216636658,-0.6940158605575562,1.025198221206665
1783170454392978000,7.01797802734375,0.7066555619239807,-0.7940588593482971,1.1726820468902588
1783170454403048000,7.0280478515625,0.6840384006500244,-0.9061558246612549,1.3430864810943604
1783170454413118200,7.0381181640625,0.6489317417144775,-0.9990638494491577,1.4926793575286865
1783170454423187000,7.04818701171875,0.5999926924705505,-1.0646212100982666,1.5945096015930176
1783170454433257200,7.05825732421875,0.5349489450454712,-1.0932353734970093,1.6310224533081055
1783170454443327200,7.0683271484375,0.46951723098754883,-1.0690441131591797,1.607537865638733
1783170454453397000,7.07839697265625,0.4076721966266632,-1.0143377780914307,1.5572271347045898
1783170454463466200,7.08846630859375,0.35015299916267395,-0.9576054215431213,1.498867154121399
1783170454473536000,7.098535888671875,0.3010110557079315,-0.9443474411964417,1.459316372871399
1783170454483606000,7.10860595703125,0.2494911253452301,-0.9565726518630981,1.4384057521820068
1783170454493676300,7.11867626953125,0.20044691860675812,-0.9971436262130737,1.4100289344787598
1783170454503745000,7.1287451171875,0.16154105961322784,-1.0327783823013306,1.3636760711669922
1783170454513815000,7.13881494140625,0.13780921697616577,-1.0626837015151978,1.3229302167892456
1783170454523885000,7.148885009765625,0.1405370831489563,-1.0908887386322021,1.3158611059188843
1783170454533955000,7.158955078125,0.14394840598106384,-1.1837903261184692,1.3334826231002808
1783170454544024000,7.169024169921875,0.1364595890045166,-1.2927465438842773,1.363792061805725
1783170454554094000,7.179093994140625,0.13273835182189941,-1.3813064098358154,1.3957576751708984
1783170454564164000,7.1891640625,0.13891103863716125,-1.404797077178955,1.4176326990127563
1783170454574234000,7.199234130859375,0.16618390381336212,-1.360535740852356,1.429771065711975
1783170454584303000,7.20930322265625,0.2734490931034088,-1.4498183727264404,1.4805139303207397
1783170454594372900,7.219372802734375,0.40044325590133667,-1.5857598781585693,1.5414364337921143
1783170454604443100,7.229443115234375,0.3016602098941803,-1.4883131980895996,1.4724347591400146
1783170454614513200,7.23951318359375,0.13557900488376617,-1.200606107711792,1.358383059501648
1783170454624582100,7.24958203125,0.06194712966680527,-0.9930022954940796,1.3375760316848755
1783170454634652200,7.259652099609375,0.10414081811904907,-0.9587202072143555,1.4298427104949951
1783170454644722000,7.269721923828125,0.19886226952075958,-1.0017399787902832,1.5336352586746216
1783170454654792200,7.279792236328125,0.2505475580692291,-1.0532649755477905,1.6265687942504883
1783170454664861000,7.28986083984375,0.2830972671508789,-1.1305161714553833,1.7338476181030273
1783170454674931000,7.299930908203125,0.3251117765903473,-1.2214105129241943,1.8485201597213745
1783170454685001200,7.310001220703125,0.3556438684463501,-1.3119275569915771,1.9374291896820068
1783170454695071000,7.320071044921875,0.36685195565223694,-1.3995405435562134,1.9885759353637695
1783170454705140200,7.33014013671875,0.36918380856513977,-1.4533441066741943,2.0120925903320312
1783170454715210000,7.3402099609375,0.3625592589378357,-1.485435962677002,2.0329198837280273
1783170454725280000,7.350280029296875,0.35531145334243774,-1.5011054277420044,2.045419931411743
1783170454735349200,7.360349365234375,0.35598188638687134,-1.491797924041748,2.0234413146972656
1783170454745419000,7.3704189453125,0.3797692358493805,-1.475716233253479,2.0231852531433105
1783170454755489000,7.380489013671875,0.4316382110118866,-1.4698468446731567,2.0633482933044434
1783170454765559000,7.39055908203125,0.49247920513153076,-1.4791189432144165,2.1510114669799805
1783170454775628000,7.4006279296875,0.5264876484870911,-1.4940019845962524,2.2304813861846924
1783170454785698000,7.410697998046875,0.5309021472930908,-1.4846875667572021,2.274317979812622
1783170454795768000,7.42076806640625,0.5140916705131531,-1.4453506469726562,2.258042812347412
1783170454805838000,7.430838134765625,0.4899408519268036,-1.3860005140304565,2.1826529502868652
1783170454815907000,7.440906982421875,0.4706323444843292,-1.3395538330078125,2.073606252670288
1783170454825977000,7.45097705078125,0.45988011360168457,-1.3454731702804565,1.9830507040023804
1783170454836047000,7.461047119140625,0.4462014436721802,-1.3709442615509033,1.9416860342025757
1783170454846117000,7.4711171875,0.4195229709148407,-1.402694821357727,1.9728790521621704
1783170454856186000,7.48118603515625,0.39175352454185486,-1.4576144218444824,2.0424039363861084
1783170454866256000,7.491255859375,0.3742051422595978,-1.5298553705215454,2.115628242492676
1783170454876326100,7.501326171875,0.37780019640922546,-1.57301664352417,2.1575729846954346
1783170454886396200,7.511396240234375,0.39809319376945496,-1.5716270208358765,2.173759937286377
1783170454896465200,7.521465087890625,0.43604302406311035,-1.5327543020248413,2.1485812664031982
1783170454906535200,7.53153515625,0.46736153960227966,-1.4606376886367798,2.0952184200286865
1783170454916605000,7.54160498046875,0.4936371147632599,-1.4044655561447144,2.0359344482421875
1783170454926675200,7.55167529296875,0.5032655000686646,-1.3821083307266235,2.001195192337036
1783170454936744000,7.561743896484375,0.5034916400909424,-1.3873142004013062,1.9953583478927612
1783170454946814000,7.57181396484375,0.5028823018074036,-1.4018287658691406,2.016613006591797
1783170454956884200,7.58188427734375,0.49673160910606384,-1.413949728012085,2.044088840484619
1783170454966954000,7.5919541015625,0.49233579635620117,-1.4292943477630615,2.0797579288482666
1783170454977023200,7.602023193359375,0.47609981894493103,-1.4362189769744873,2.1120870113372803
1783170454987093000,7.612093017578125,0.460521936416626,-1.4131600856781006,2.1449458599090576
1783170454997163000,7.6221630859375,0.4531692862510681,-1.398777961730957,2.163745164871216
1783170455007233000,7.63223291015625,0.4389895498752594,-1.393091082572937,2.204500675201416
1783170455017302000,7.642302001953125,0.41501954197883606,-1.403510332107544,2.2696778774261475
1783170455027371800,7.652371826171875,0.38434845209121704,-1.4443488121032715,2.352947950363159
1783170455037442000,7.662442138671875,0.35780638456344604,-1.5140994787216187,2.4281747341156006
1783170455047511000,7.672510986328125,0.3326949179172516,-1.5791943073272705,2.4845986366271973
1783170455057581000,7.6825810546875,0.30316436290740967,-1.6304583549499512,2.5136120319366455
1783170455067651000,7.692651123046875,0.26672112941741943,-1.6444084644317627,2.504136800765991
1783170455077720800,7.702720947265625,0.22315149009227753,-1.6156349182128906,2.464810371398926
1783170455087790000,7.7127900390625,0.16300931572914124,-1.5824174880981445,2.4307610988616943
1783170455097860000,7.722860107421875,0.10313697159290314,-1.548973560333252,2.4133963584899902
1783170455107929900,7.732929931640625,0.054009631276130676,-1.5104587078094482,2.414888620376587
1783170455118000000,7.743000244140625,0.004307261668145657,-1.4600589275360107,2.4246435165405273
1783170455128068900,7.75306884765625,-0.04274067282676697,-1.4081393480300903,2.414768934249878
1783170455138139100,7.76313916015625,-0.08605215698480606,-1.3378006219863892,2.3700504302978516
1783170455148209200,7.773209228515625,-0.13646180927753448,-1.259749174118042,2.294480562210083
1783170455158279000,7.78327880859375,-0.18877719342708588,-1.1907143592834473,2.196047306060791
1783170455168348200,7.79334814453125,-0.241310715675354,-1.1456125974655151,2.101923942565918
1783170455178418000,7.80341796875,-0.27837932109832764,-1.1288002729415894,2.022378921508789
1783170455188488000,7.813488037109375,-0.2966710031032562,-1.1330450773239136,1.9762598276138306
1783170455198558200,7.82355810546875,-0.3043608069419861,-1.1453357934951782,1.964142918586731
1783170455208627000,7.833626953125,-0.2979590892791748,-1.1406254768371582,1.97028386592865
1783170455218697000,7.843697021484375,-0.2907494604587555,-1.1169804334640503,1.9688349962234497
1783170455228767000,7.85376708984375,-0.2826230823993683,-1.06354820728302,1.9293824434280396
1783170455238836000,7.8638359375,-0.27191606163978577,-1.0020426511764526,1.8659636974334717
1783170455248906000,7.873906005859375,-0.25086086988449097,-0.9546915292739868,1.795857310295105
1783170455258976000,7.88397607421875,-0.2348560392856598,-0.936507523059845,1.7397433519363403
1783170455269046000,7.8940458984375,-0.21285566687583923,-0.9408279657363892,1.7170369625091553
1783170455279115000,7.904114990234375,-0.18249918520450592,-0.9446007013320923,1.7216248512268066
1783170455289185000,7.91418505859375,-0.15177695453166962,-0.9613817930221558,1.7277674674987793
1783170455299254800,7.9242548828125,-0.11951308697462082,-0.9645793437957764,1.7140260934829712
1783170455309325000,7.934324951171875,-0.09709033370018005,-0.9283571243286133,1.6718615293502808
1783170455319393800,7.944393798828125,-0.08978009968996048,-0.8762739896774292,1.614579677581787
1783170455329464000,7.954464111328125,-0.08996066451072693,-0.8233998417854309,1.574009895324707
1783170455339534000,7.9645341796875,-0.10809888690710068,-0.7872968316078186,1.5634422302246094
1783170455349603800,7.974603759765625,-0.14224858582019806,-0.763511061668396,1.5691334009170532
1783170455359673000,7.984673095703125,-0.18475933372974396,-0.7486634254455566,1.5859922170639038
1783170455369742800,7.994742919921875,-0.21358779072761536,-0.7391200065612793,1.6132640838623047
1783170455379812900,8.004812744140626,-0.24066601693630219,-0.730628252029419,1.6439050436019897
1783170455389883100,8.014883056640626,-0.2762485146522522,-0.7187966108322144,1.6849491596221924
1783170455399952000,8.024951904296875,-0.3276413083076477,-0.6962517499923706,1.7176157236099243
1783170455410022100,8.035022216796875,-0.3883802890777588,-0.6616573333740234,1.7207849025726318
1783170455420092200,8.045092041015625,-0.4624795615673065,-0.6258372664451599,1.7037891149520874
1783170455430161000,8.055160888671875,-0.5319212675094604,-0.5940985083580017,1.6781426668167114
1783170455440231200,8.065231201171875,-0.588833212852478,-0.5589755177497864,1.657386302947998
1783170455450301000,8.075301025390624,-0.6357706189155579,-0.5044305324554443,1.6467649936676025
1783170455460371000,8.085370849609374,-0.6450790762901306,-0.4213317632675171,1.635864019393921
1783170455470440000,8.09543994140625,-0.634801983833313,-0.3013526499271393,1.6308375597000122
1783170455480510000,8.105510009765625,-0.6508326530456543,-0.19411127269268036,1.631168007850647
1783170455490580000,8.115580078125,-0.7016063332557678,-0.14366300404071808,1.6122074127197266
1783170455500650000,8.12564990234375,-0.7588282227516174,-0.1374092400074005,1.5675599575042725
1783170455510719000,8.135718994140625,-0.7987604737281799,-0.1771840751171112,1.5295555591583252
1783170455520789000,8.1457890625,-0.8294939994812012,-0.20555418729782104,1.52095365524292
1783170455530859000,8.15585888671875,-0.8612287640571594,-0.18401187658309937,1.5337355136871338
1783170455540929000,8.165928955078124,-0.920440673828125,-0.12624859809875488,1.5302398204803467
1783170455550998000,8.175998046875,-0.9920101761817932,-0.06231994181871414,1.514235258102417
1783170455561068000,8.186068115234375,-1.0518401861190796,0.020065343007445335,1.4367449283599854
1783170455571137800,8.1961376953125,-1.0986816883087158,0.14561420679092407,1.3071783781051636
1783170455581208000,8.2062080078125,-1.1643595695495605,0.2897012233734131,1.1496837139129639
1783170455591276800,8.21627685546875,-1.2518784999847412,0.42922234535217285,0.9963961839675903
1783170455601347000,8.22634716796875,-1.351080060005188,0.651353120803833,0.8441051840782166
1783170455611417000,8.2364169921875,-1.4199882745742798,0.8554237484931946,0.747776210308075
1783170455621485800,8.24648583984375,-1.4441639184951782,0.9973751306533813,0.6889854669570923
1783170455631556000,8.25655615234375,-1.4192638397216797,1.1040432453155518,0.6865020394325256
1783170455641625900,8.2666259765625,-1.3310538530349731,1.1785131692886353,0.7228933572769165
1783170455651695900,8.27669580078125,-1.2578091621398926,1.3316835165023804,0.7909419536590576
1783170455661765000,8.28676513671875,-1.438806176185608,1.6768959760665894,0.9870060086250305
1783170455671835000,8.2968349609375,-1.4688173532485962,1.6831210851669312,1.0435858964920044
1783170455681905200,8.3069052734375,-1.352108359336853,1.4139269590377808,0.9234713315963745
1783170455691975000,8.316974853515624,-1.2140344381332397,1.1188284158706665,0.7663983702659607
1783170455702044000,8.3270439453125,-1.1297047138214111,0.9534916281700134,0.6913623213768005
1783170455712114200,8.3371142578125,-1.1007548570632935,0.9688007831573486,0.6913109421730042
1783170455722184000,8.347183837890626,-1.0601099729537964,0.9954891204833984,0.7042921185493469
1783170455732254000,8.35725390625,-0.9896091222763062,0.9598767757415771,0.6934972405433655
1783170455742323000,8.367322998046875,-0.9262472987174988,0.9009644389152527,0.6402116417884827
1783170455752393000,8.37739306640625,-0.894840657711029,0.8603461980819702,0.5903277397155762
1783170455762463000,8.387462890625,-0.8958789706230164,0.9100013375282288,0.5391664505004883
1783170455772532000,8.397531982421874,-0.9168252944946289,1.084135890007019,0.4789515733718872
1783170455782602000,8.40760205078125,-0.9805948734283447,1.3485984802246094,0.40879809856414795
1783170455792672000,8.417672119140626,-1.0591213703155518,1.6335257291793823,0.36850449442863464
1783170455802742000,8.427741943359376,-1.1200014352798462,1.8871709108352661,0.3452546298503876
1783170455812811000,8.43781103515625,-1.1509846448898315,2.123715877532959,0.3077645003795624
1783170455822881000,8.447881103515625,-1.2098612785339355,2.412869930267334,0.25974032282829285
1783170455832951000,8.457950927734375,-1.2502577304840088,2.661147356033325,0.19426597654819489
1783170455843020800,8.468020751953125,-1.2378557920455933,2.8172874450683594,0.1044687032699585
1783170455853090000,8.478090087890624,-1.202996015548706,2.9032299518585205,0.02145797573029995
1783170455863159800,8.488159912109374,-1.1684075593948364,2.864405870437622,-0.03674885630607605
1783170455873230000,8.49822998046875,-1.1299896240234375,2.699974775314331,-0.07130390405654907
1783170455883298800,8.508298828125,-1.0691617727279663,2.57122540473938,-0.06440495699644089
1783170455893368800,8.518368896484375,-0.9960299730300903,2.5938751697540283,-0.00641834968701005
1783170455903439000,8.528439208984375,-0.888903796672821,2.59851336479187,0.07029495388269424
1783170455913508900,8.5385087890625,-0.7251803874969482,2.4837710857391357,0.12579843401908875
1783170455923578000,8.548578125,-0.568438708782196,2.343552589416504,0.14576034247875214
1783170455933648000,8.55864794921875,-0.5007363557815552,2.236374855041504,0.15976910293102264
1783170455943718000,8.5687177734375,-0.5010128021240234,2.1826789379119873,0.15133921802043915
1783170455953788200,8.5787880859375,-0.5490623116493225,2.093593120574951,0.11451461911201477
1783170455963857000,8.58885693359375,-0.5967430472373962,1.95341157913208,0.05520524084568024
1783170455973927000,8.598927001953125,-0.6158416867256165,1.8333081007003784,-0.007596625946462154
1783170455983997000,8.608996826171875,-0.5978199243545532,1.8202855587005615,-0.06520262360572815
1783170455994067000,8.61906689453125,-0.5533896088600159,1.8879588842391968,-0.13839587569236755
1783170456004136200,8.62913623046875,-0.5276496410369873,1.8467756509780884,-0.24599577486515045
1783170456014206200,8.639206298828125,-0.5371600389480591,1.728375792503357,-0.3786456882953644
1783170456024276000,8.64927587890625,-0.5552479028701782,1.748368740081787,-0.5404399037361145
1783170456034345200,8.65934521484375,-0.5360307693481445,1.859926462173462,-0.7135400772094727
1783170456044415000,8.6694150390625,-0.5078356266021729,1.8095605373382568,-0.8447076678276062
1783170456054485000,8.679485107421876,-0.49853160977363586,1.565305233001709,-0.8450813293457031
1783170456064555300,8.68955517578125,-0.5350266695022583,1.3036646842956543,-0.6838634014129639
1783170456074624000,8.6996240234375,-0.6136090755462646,1.1535271406173706,-0.38826265931129456
1783170456084694300,8.7096943359375,-0.6658012270927429,1.0835795402526855,-0.030265454202890396
1783170456094764000,8.719763916015625,-0.6757832765579224,1.0414496660232544,0.24175353348255157
1783170456104834000,8.729833984375,-0.6953842639923096,0.9236115217208862,0.29872721433639526
1783170456114903000,8.739903076171874,-0.7328898310661316,0.7802075147628784,0.1328255832195282
1783170456124973000,8.74997314453125,-0.7453590631484985,0.8650847673416138,-0.12808534502983093
1783170456135043000,8.76004296875,-0.70976322889328,0.9976116418838501,-0.3891531527042389
1783170456145112000,8.770112060546875,-0.6399123668670654,1.118822693824768,-0.6417400240898132
1783170456155182000,8.78018212890625,-0.5798839330673218,1.205256462097168,-0.8813869953155518
1783170456165252000,8.790252197265625,-0.5421919822692871,1.196368932723999,-1.0422298908233643
1783170456175322000,8.800322021484375,-0.5076995491981506,1.1162714958190918,-1.0657929182052612
1783170456185391000,8.81039111328125,-0.4848068356513977,0.9038148522377014,-0.9086894989013672
1783170456195461000,8.820461181640624,-0.4568588435649872,0.6360233426094055,-0.602669894695282
1783170456205531100,8.83053125,-0.40857991576194763,0.45300304889678955,-0.21499690413475037
1783170456215601000,8.840600830078126,-0.35511884093284607,0.34109434485435486,0.13381034135818481
1783170456225670100,8.850670166015625,-0.32672321796417236,0.24302105605602264,0.27517977356910706
1783170456235740200,8.860740234375,-0.2953367829322815,0.13709355890750885,0.19065448641777039
1783170456245810000,8.870809814453125,-0.24708925187587738,0.05783229321241379,-0.06785576790571213
1783170456255879200,8.880879150390625,-0.17233698070049286,0.23534822463989258,-0.395920991897583
1783170456265949000,8.890948974609374,-0.13422851264476776,0.3517220914363861,-0.6706806421279907
1783170456276019200,8.901019287109374,-0.1860312521457672,0.33502113819122314,-0.8345931768417358
1783170456286089200,8.911089111328126,-0.2553250789642334,0.25766924023628235,-0.8154096603393555
1783170456296158000,8.921157958984375,-0.3474329113960266,0.20297136902809143,-0.6345725059509277
1783170456306228200,8.931228271484375,-0.45703616738319397,0.18232108652591705,-0.3617519736289978
1783170456316298000,8.941298095703125,-0.5147556662559509,0.12622585892677307,-0.13324317336082458
1783170456326368000,8.951367919921875,-0.5058536529541016,0.03232067450881004,-0.018644561991095543
1783170456336437000,8.96143701171875,-0.44032976031303406,-0.01998886838555336,-0.016022145748138428
1783170456346507000,8.971507080078124,-0.3460853099822998,0.014147663488984108,-0.09681810438632965
1783170456356577300,8.981577392578124,-0.233545184135437,0.14799894392490387,-0.23145394027233124
1783170456366646000,8.99164599609375,-0.1308421790599823,0.35243090987205505,-0.38165420293807983
1783170456376716000,9.001716064453126,-0.06691860407590866,0.5101504921913147,-0.48055654764175415
1783170456386786000,9.0117861328125,-0.0624224878847599,0.5717635154724121,-0.49675577878952026
1783170456396856000,9.02185595703125,-0.0624786801636219,0.5447225570678711,-0.43538644909858704
1783170456406925000,9.031925048828125,-0.02447197400033474,0.5195361375808716,-0.33716779947280884
1783170456416995000,9.0419951171875,0.05466225743293762,0.5305589437484741,-0.26381930708885193
1783170456427065000,9.052065185546875,0.10818840563297272,0.5857882499694824,-0.20954588055610657
1783170456437135000,9.062135009765624,0.1091708391904831,0.6095207333564758,-0.19341669976711273
1783170456447204000,9.0722041015625,0.07403738796710968,0.5488957166671753,-0.19643157720565796
1783170456457273900,9.08227392578125,0.03511475399136543,0.43443015217781067,-0.18275384604930878
1783170456467344100,9.09234423828125,-0.006832384504377842,0.38071340322494507,-0.13535049557685852
1783170456477413000,9.1024130859375,-0.024812450632452965,0.3128392994403839,-0.12409704923629761
1783170456487483100,9.112483154296875,-0.005414419807493687,0.3133334517478943,-0.1716066151857376
1783170456497553200,9.12255322265625,0.04737662151455879,0.3904231786727905,-0.2519800066947937
1783170456507623000,9.132622802734375,0.1215813159942627,0.4838700294494629,-0.34995460510253906
1783170456517692200,9.142692138671874,0.15305082499980927,0.42241039872169495,-0.10775794833898544
1783170456527762200,9.15276220703125,0.19588489830493927,0.054474446922540665,-0.09716932475566864
1783170456537832000,9.16283203125,0.16370218992233276,-0.08738335967063904,0.020313896238803864
1783170456547901200,9.172901123046875,0.12018559873104095,-0.021804746240377426,0.11352995038032532
1783170456557971000,9.182970947265625,0.11705878376960754,0.0420602522790432,0.16343946754932404
1783170456568041000,9.193041015625,0.08227202296257019,0.21637865900993347,0.10900666564702988
1783170456578111200,9.203111328125,-0.010438206605613232,0.43026646971702576,0.007404675707221031
1783170456588180000,9.213179931640624,-0.09552008658647537,0.5933482050895691,-0.09674453735351562
1783170456598250200,9.223250244140624,-0.08628398180007935,0.6875812411308289,-0.12550348043441772
