time,seconds_elapsed,z,y,x
1783169527375444200,0.0764443359375,-0.09263444455564021,0.039432965489686465,0.027132969546422827
1783169527385514000,0.086513916015625,0.048772506475448604,0.01711695178791415,0.003769166108057834
1783169527395583200,0.096583251953125,0.0709194563537836,0.012898589740786701,-0.0031470886869588866
1783169527405652000,0.10665185546875,-0.057470192193984984,0.011875612501753494,0.0027976427783374673
1783169527415722200,0.11672216796875,-0.0785702633678913,0.031371011258265934,0.01424539895657217
1783169527425791000,0.126791015625,0.013756138151884078,0.024464780100341886,0.01618371235867962
1783169527435860200,0.136860107421875,0.07705226002037524,0.04197611520043574,0.018930093023949303
1783169527445930000,0.146929931640625,-0.01093406646847725,0.03573753590469714,0.017913755588256752
1783169527455999200,0.156999267578125,-0.06121230133175849,0.03614448643750511,-0.007456421519746072
1783169527466069200,0.1670693359375,-0.019762100568413734,0.023619260053755715,-0.02101487025861861
1783169527476138200,0.17713818359375,0.019891864427924157,0.0357656294880202,-0.04075025406675413
1783169527486207000,0.18720703125,-0.011232172632217407,0.027471898627607152,-0.025116108732100108
1783169527496277000,0.197277099609375,-0.03667114979326725,0.04446203656492289,-0.02718684374168515
1783169527506346200,0.20734619140625,-0.021707973939180374,0.04797853851958643,-0.004873556286538951
1783169527516415200,0.217415283203125,0.013158172258734703,0.029568656277726403,0.00012074715270427986
1783169527526485200,0.2274853515625,0.02213642848432064,0.011533233371446839,0.01664408499560086
1783169527536554000,0.237553955078125,-0.013477905732393264,0.016938165721483527,0.04858634538673796
1783169527546624300,0.247624267578125,-0.025748189240694046,0.008745529748522676,0.06493324895049445
1783169527556693000,0.25769287109375,-0.007343933022022247,-0.020800512838596477,0.07498659619484097
1783169527566761700,0.26776171875,0.007171499064564705,-0.01866579323168844,0.045819118296261875
1783169527576831700,0.277831787109375,-0.026048048970103262,0.0012383918216917662,0.053770442626904696
1783169527586900700,0.287900634765625,-0.02515139239132404,0.02163055218826048,0.05550494740246795
1783169527596969700,0.2979697265625,-0.007194879940152167,0.029819242638465946,0.04990304487533867
1783169527607039700,0.308039794921875,-0.011235679763555526,0.02955463688552845,0.009412581105798016
1783169527617108700,0.318108642578125,-0.014827566775679587,0.028545158448885194,-0.016973070354794617
1783169527627177700,0.328177734375,-0.015876783567667006,0.025923682804917914,-0.029815456945914774
1783169527637247700,0.338247802734375,-0.009442366605997085,0.038124284910759886,-0.01799381453754613
1783169527647316700,0.348316650390625,-0.0009130231916904449,0.05294323912172112,-0.02850914413729915
1783169527657386800,0.35838671875,0.006719079121947288,0.043569645169307475,-0.013389423731341957
1783169527667455700,0.368455810546875,-0.013032500052452087,0.047924936035671266,-0.000736022656969726
1783169527677524700,0.378524658203125,0.0008837970972061156,0.03227839929361362,0.011369361746357753
1783169527687595000,0.388594970703125,0.0046259062349796294,0.011230218137148766,-0.0036528325522784144
1783169527697663700,0.398663818359375,-0.01647299589514732,0.0297202118439367,0.005207930206903256
1783169527707732700,0.408732666015625,-0.008242927688360213,0.017430351418908686,0.028947480755636933
1783169527717802800,0.418802734375,-0.011833645656704903,0.02575940932102967,0.026528971204708793
1783169527727872000,0.4288720703125,0.004177577945590019,0.02133161034088116,0.022411067007505333
1783169527737941800,0.438941650390625,-0.0036029929280281064,0.012599565695016645,0.03431240532227093
1783169527748010800,0.4490107421875,-0.017819149807095525,0.012571796338679268,0.02913911260390887
1783169527758079700,0.459079833984375,-0.017819149807095525,0.0084791978293797,0.030218187961331567
1783169527768149800,0.469149658203125,-0.008542202895879744,0.003262709856685251,0.03517256809885148
1783169527778218800,0.47921875,-0.017222352957725524,0.004159713495336473,0.05012930051242001
1783169527788288000,0.4892880859375,-0.022310616007447243,0.0033662524295505133,0.04407262168880552
1783169527798357800,0.499357666015625,-0.013631634989380836,0.012554689940251409,0.04675877833312843
1783169527808426800,0.5094267578125,-0.0010626607954502105,0.014715772397699766,0.021743675440223886
1783169527818495700,0.519495849609375,-0.012733809366822241,0.023945934724854304,-0.0025223147019860334
1783169527828565800,0.529565673828125,-0.01767126576900482,0.035815834438451565,-0.005103570216707885
1783169527838634800,0.539634765625,-0.011985036826133727,0.028554017608775756,-0.009001685050234664
1783169527848704800,0.549704833984375,-0.018120178580284117,0.037460094514139924,-0.015908420814946294
1783169527858773800,0.559773681640625,-0.024555180063843725,0.03878729256386868,-0.03543948910646141
1783169527868842800,0.5698427734375,-0.03188742264807224,0.04144582141574937,-0.031872980847477445
1783169527878912800,0.579912841796875,-0.028893501529097556,0.036860671882843594,-0.028428308869875036
1783169527888981800,0.589981689453125,-0.007644377273321151,0.02770419127983041,-0.007934384612285066
1783169527899050800,0.60005078125,0.0134545248568058,0.029249991383147423,0.009313417880528141
1783169527909120800,0.610120849609375,-0.010786182430386542,0.01752003899635747,0.011244198713439981
1783169527919189800,0.620189697265625,-0.009738719204068184,0.014391440380737185,0.02757055039622355
1783169527929259800,0.630259765625,-0.007943652480840682,0.009366186964092776,0.0445190685483627
1783169527939328800,0.640328857421875,-0.02275777525305748,0.009366917616454884,0.06802965319640934
1783169527949397800,0.650397705078125,-0.00734510206580162,0.0007906800202326849,0.03773604592828778
1783169527959467800,0.6604677734375,-0.006747136172652244,0.014791586713423021,0.02720859434918966
1783169527969536800,0.670536865234375,-0.03353285176753998,0.013864959688065573,0.021715750820259564
1783169527979605800,0.680605712890625,-0.0065986676126718515,0.023891030766419134,0.022455547753337305
1783169527989675800,0.69067578125,-0.006748305216431617,0.025871756254858335,0.012545613867940847
1783169527999744800,0.700744873046875,-0.013331775259971618,0.022530035478365608,0.024912199640856125
1783169528009813800,0.710813720703125,-0.0012117138773202894,0.00595604059388861,0.011899023060093168
1783169528019883800,0.7208837890625,-0.013781857115030287,0.021494098293059503,0.007895370059437117
1783169528029952800,0.730952880859375,-0.016624387064576147,0.03162975352599751,-0.012333220076141878
1783169528040022800,0.741022705078125,-0.011087211203575134,0.04216638620868325,-0.008301375310751608
1783169528050091800,0.751091796875,-0.0226087221711874,0.02469190795368049,-0.017945171356538774
1783169528060160800,0.761160888671875,-0.005550035342574119,0.026527265588101,0.004259043400676455
1783169528070230800,0.771230712890625,-0.0031558336824178694,0.04971368261596653,-0.001312174010532908
1783169528080299800,0.7812998046875,-0.006297638839483261,0.04403743621099274,-0.01731463206777116
1783169528090368800,0.79136865234375,-0.017220599392056463,0.03557805276035796,0.004587279841199051
1783169528100438800,0.801438720703125,-0.018865443989634512,0.029747780270874498,0.004096939040988218
1783169528110507800,0.8115078125,-0.011833061134815215,0.028358823830238543,0.021182956834521607
1783169528120577800,0.821577880859375,-0.006146832191944122,0.028167141749616712,0.0025039091123268005
1783169528130646800,0.831646728515625,-0.008691255977749824,0.028077614002372138,0.010919241075392347
1783169528140715800,0.8417158203125,-0.011534370449185372,0.004638546520844102,0.02603034663334256
1783169528150785800,0.851785888671875,-0.01587444548010826,-0.006970469200285151,0.036854096011584625
1783169528160854800,0.861854736328125,-0.020213351467251776,0.019249415505654177,0.0537708262193948
1783169528170923800,0.871923828125,-0.017817980763316154,0.0016220436773030087,0.06308306363970041
1783169528180993800,0.881993896484375,-0.010934650990366935,0.014076154753332957,0.032452965842653066
1783169528191062800,0.892062744140625,-0.020063129341602325,0.02482215587038081,0.04241994997779838
1783169528201132800,0.9021328125,-0.014676760128140448,0.014354926028940826,0.02105170198753476
1783169528211201800,0.912201904296875,-0.011235679763555526,0.015462727440637536,0.009055540979187935
1783169528221270800,0.922270751953125,-0.012582418197393417,0.018526814019260925,-0.0036272551530273627
1783169528231340800,0.9323408203125,-0.004053074783086776,0.03958579056437593,-0.03136346042276127
1783169528241409800,0.942409912109375,-0.018568506869673727,0.04599478995699901,-0.0030425506002502516
1783169528251478800,0.952478759765625,-0.01437865396440029,0.041269871193799185,-0.007423848124127835
1783169528261548800,0.962548828125,-0.009440613040328026,0.033483628631220196,-0.02106431030735839
1783169528271617800,0.97261767578125,-0.0226087221711874,0.020808317119139247,-0.005751852941431571
1783169528281686800,0.982686767578125,-0.010935820034146308,0.01745172300050035,-0.002144391617551446
1783169528291756800,0.9927568359375,-0.009438274952769278,0.021824540390400216,0.005340210250485688
1783169528301825800,1.00282568359375,-0.015124503895640372,0.027242053660796954,0.010130214156128931
1783169528311895800,1.012895751953125,-0.013178630524873733,0.02673594446929637,0.0169702139607165
1783169528321964800,1.02296484375,-0.007492986103892326,0.013200687093054875,0.030576043221983127
1783169528332033800,1.03303369140625,-0.021707973939180374,0.03182312980678398,0.01719103308756603
1783169528342103800,1.043103759765625,-0.0027039982616901396,0.000595641505322419,0.011557593777857254
1783169528352172800,1.0531728515625,-0.0016559505134820937,-0.0010306125562172383,0.029190673827787395
1783169528362241800,1.06324169921875,-0.01093406646847725,0.017249012635787948,0.03126326286774128
1783169528372311800,1.073311767578125,-0.017069792744517327,0.017471884439117274,0.032858366022480184
1783169528382380800,1.083380859375,-0.004349427381157875,0.02152632462880574,0.0401965428738622
1783169528392449800,1.09344970703125,-0.003003273469209671,0.012088583965576253,0.023052488449891096
1783169528402519800,1.103519775390625,-0.021259645649790763,0.03043941579684615,0.024257873051124625
1783169528412588800,1.1135888671875,-0.00554828177690506,0.01631365888128057,-0.0013119593814015387
1783169528422658600,1.123658447265625,-0.009437690430879593,0.035041607796098106,0.008579635129706002
1783169528432727800,1.133727783203125,0.0025339023917913435,0.02884691787443589,-0.007820345761580392
1783169528442796800,1.143796875,-0.01392681854367256,0.03342437729123048,-0.014976158633246086
1783169528452866800,1.15386669921875,-0.015122750329971313,0.044774933872418474,-0.009795678122271783
1783169528462935800,1.163935791015625,-0.0036006548404693603,0.04108966035526246,-0.03608552050859434
1783169528473004800,1.1740048828125,-0.004048983129858971,0.03053915897742845,-0.03116642859687563
1783169528483074600,1.184074462890625,-0.024549919366836547,0.025282421192736364,0.00330309209942352
1783169528493143800,1.194143798828125,-0.004198620733618736,0.03785082913108635,0.007890248643036465
1783169528503213800,1.2042138671875,-0.00853811124265194,0.017637591828266158,0.00882019328677561
1783169528513282800,1.21428271484375,0.002985153290629387,0.019563536655856296,0.005530853434780146
1783169528523351600,1.2243515625,-0.006142740538716316,0.034125388000323435,0.030614829445967915
1783169528533421800,1.234421875,-0.01556990957558155,0.00352556661053095,0.03624927568596322
1783169528543490800,1.24449072265625,-0.008088613909482956,0.0007274192254059016,0.039712755112024024
1783169528553559800,1.254559814453125,-0.015870353826880453,0.019907646518945693,0.04344384509886149
1783169528563629800,1.2646298828125,-0.005844049853086471,0.02684016746217385,0.018128240872442254
1783169528573698800,1.27469873046875,-0.011680500921607016,0.023548482672753744,0.017258278221054933
1783169528583767800,1.284767822265625,-0.013176876959204673,0.024303109565493648,0.017541883218695875
1783169528593838000,1.294838134765625,0.0022357962280511855,0.02746460580371786,0.03187940830497537
1783169528603906800,1.30490673828125,-0.016468904241919515,0.020146318679605608,-0.020442018257128075
1783169528613976800,1.314976806640625,-0.005694996771216392,0.03149763331261929,0.0024188748771091922
1783169528624045800,1.3250458984375,-0.011531447839736938,0.031875019824225456,-0.006750357892911415
1783169528634115000,1.335114990234375,-0.009286883783340454,0.033703381462278775,-0.01376481008210685
1783169528644184800,1.345184814453125,-0.015123919373750686,0.04270361205765512,-0.01179195052300347
1783169528654254000,1.355254150390625,-0.0022539164066314697,0.032106262163678186,-0.007486636278207879
1783169528664322800,1.36532275390625,-0.01721767678260803,0.038077463794080536,0.00008008863204158841
1783169528674392800,1.375392822265625,-0.02350245614051819,0.05337370752743445,0.001733728457428515
1783169528684461800,1.3854619140625,0.002533317869901657,0.022786352893570436,0.010017383165110368
1783169528694531800,1.39553173828125,-0.004200958821177482,0.03303728680294007,0.003993136173218954
1783169528704600800,1.405600830078125,-0.00360240840613842,0.04012263738743495,0.01153544816141948
1783169528714669800,1.415669921875,-0.02155950537919998,0.016632830665935763,0.017608518714120145
1783169528724739800,1.42573974609375,-0.022158055794239042,0.021880983285373076,0.012161991695081814
1783169528734808800,1.435808837890625,0.004327215549349785,0.025887469847220925,0.0397574893028941
1783169528744877800,1.4458779296875,-0.024553426498174664,0.008846391740534454,0.03787503199058119
1783169528754947800,1.45594775390625,-0.011236264285445212,0.010416381003614514,0.03460634676754707
1783169528765016800,1.466016845703125,-0.006449030008912086,0.014993945451686157,0.030340748045209327
1783169528775085800,1.4760859375,-0.022760113340616225,0.009772562108165584,0.043970892047113734
1783169528785155800,1.48615576171875,-0.013181553134322165,0.007819980435399339,0.03405694870688021
1783169528795224800,1.496224853515625,-0.013778934505581856,0.0266553580803331,0.02823029751316644
1783169528805294800,1.506294921875,-0.0022568390160799027,0.03428076579170301,0.010676219249889254
1783169528815363800,1.51636376953125,-0.014676175606250763,0.033746512784529475,-0.0013569470173097214
1783169528825432800,1.526432861328125,-0.009438274952769278,0.03573375477872323,-0.015200642438349314
1783169528835502800,1.5365029296875,-0.009288637349009513,0.048828944803844206,-0.012563973791827446
1783169528845571800,1.54657177734375,-0.01063596030473709,0.03255957715543918,-0.027628338148200416
1783169528855640800,1.556640869140625,-0.0064461073994636535,0.02938021646696143,-0.018567659769591408
1783169528865710800,1.5667109375,-0.0022556699723005292,0.03369604297261685,-0.01706116191348992
1783169528875779800,1.57677978515625,-0.002405307576060295,0.028292599326767958,-0.004528855051693972
1783169528885848800,1.586848876953125,-0.01452595348060131,0.030187390964268705,0.006777296132186893
1783169528895918800,1.5969189453125,-0.025149054303765295,0.017029278071038424,0.025925979793281293
1783169528905988000,1.606988037109375,-0.008838555493950843,0.0035164014899637546,0.02871142981032608
1783169528916057900,1.617057861328125,-0.0049479777961969375,0.022561339365504682,0.03502709978013299
1783169528926126800,1.627126953125,-0.004798340192437172,0.020929463847354054,0.026104907423607073
1783169528936195800,1.63719580078125,0.002983399724960327,0.013398374222777783,0.03982843564725481
1783169528946265900,1.647265869140625,-0.018714637342095376,0.01765752037144266,0.03326160621126182
1783169528956334800,1.6573349609375,-0.022754852643609047,0.021446651555295102,0.015982333151239436
1783169528966403800,1.66740380859375,-0.014524784436821937,0.011912985370075329,0.0027592378635541534
1783169528976473900,1.677473876953125,-0.015122750329971313,0.029681295472499914,0.017140894352504984
1783169528986542800,1.68754296875,-0.013626374292373657,0.028952401242638006,0.017133498780627268
1783169528996611800,1.69761181640625,-0.02215630222856998,0.02823138892513234,0.010642515626398381
1783169529006681900,1.707681884765625,-0.009437105908989905,0.03426775561308022,0.004095886444929055
1783169529016750800,1.717750732421875,-0.029489129334688186,0.028819020653935146,-0.0038824925727094523
1783169529026820900,1.72782080078125,-0.011981529694795608,0.030893539072782732,-0.0026414087537210435
1783169529036889900,1.737889892578125,-0.0052484220474958414,0.04491247461300809,0.016151785133744122
1783169529046958800,1.747958740234375,-0.007642623707652092,0.026989759400160983,0.005866200036101508
1783169529057028900,1.75802880859375,-0.0033037177205085754,0.025802015486895105,0.004083163960673846
1783169529067097900,1.768097900390625,-0.012581249153614044,0.025085665644775143,-0.010311548372672405
1783169529077166800,1.778166748046875,-0.024403204372525213,0.014271170435356906,0.008201033908547832
1783169529087236900,1.78823681640625,-0.017220599392056463,0.009538415425573476,0.013332259317161515
1783169529097305900,1.798305908203125,-0.0010603227078914642,0.012744581922586075,0.028042444507579783
1783169529107374800,1.808374755859375,0.001482347512245178,0.01992951129088178,0.016150778203457592
1783169529117444900,1.81844482421875,-0.017671850290894506,0.009967952249525115,0.020152316878840792
1783169529127513900,1.828513916015625,-0.009143675920367241,0.01923314479086548,0.03025039146419149
1783169529137583900,1.838583984375,-0.0037573067069053647,-0.001200776924774982,0.02353249280246673
1783169529147652900,1.84865283203125,-0.005254267266392707,0.018112497597327453,0.043972357918415216
1783169529157721900,1.858721923828125,-0.0187222361266613,0.01578903678555507,0.039233995151752604
1783169529167791900,1.8687919921875,-0.006003039807081222,0.008153509538969955,0.02506770529639907
1783169529177860900,1.87886083984375,-0.009894202026724815,0.006938676689378917,0.009514539076352958
1783169529187929900,1.888929931640625,-0.021565935119986532,0.02751307088821195,0.007862972477043513
1783169529197999900,1.898999755859375,-0.008995791882276534,0.03724400864462368,-0.0009008555465727112
1783169529208068900,1.90906884765625,-0.01288636958003044,0.028902789947250856,0.001728853636200074
1783169529218137900,1.919137939453125,-0.013037176227569579,0.036237626347364854,-0.013393321305036078
1783169529228207900,1.929207763671875,-0.004357610687613487,0.028395255983644164,-0.01793702914927853
1783169529238276900,1.93927685546875,-0.001813186901807785,0.03739916267371736,0.007941097480861935
1783169529248347000,1.949346923828125,-0.001513327172398567,0.04100912876522634,0.0014638734239269978
1783169529258415900,1.959415771484375,-0.038921559068560596,0.029565724535123444,0.017045852463215123
1783169529268484900,1.96948486328125,-0.019468670579791066,0.00854517117110081,0.003342718573624734
1783169529278555000,1.979554931640625,-0.003907528832554817,0.01267897390704602,-0.0013259673571563324
1783169529288623900,1.989623779296875,-0.008846154278516769,0.03209209664100781,-0.0014802811360335908
1783169529298692900,1.99969287109375,-0.019919336956739423,0.014812392039434052,0.017429876494873313
1783169529308763000,2.009762939453125,-0.02620411631464958,0.018222606908297165,0.007512309575581457
1783169529318831900,2.019831787109375,-0.007051672077178954,0.019580898782610892,0.019144838603038804
1783169529328900900,2.02990087890625,-0.0034603695869445798,0.0047000628831563515,0.02077042822758667
1783169529338971000,2.039970947265625,-0.011540800189971924,0.012092899381089955,0.019187734746560454
1783169529349039900,2.050039794921875,-0.019770283874869347,0.012660433603357522,0.02030759420552058
1783169529359110000,2.06010986328125,-0.03383621862828731,0.0187344882534584,0.026162599277461413
1783169529369179000,2.070178955078125,-0.027401801666617393,0.00999231493922416,0.02003221589681925
1783169529379247900,2.080247802734375,0.0004296235889196396,0.0221818841943983,0.02270024322940735
1783169529389317600,2.090317626953125,-0.008100888869166373,0.009614120143442415,0.02251842495567398
1783169529399387000,2.100386962890625,-0.020969722792506217,0.020641468085674568,0.022007536841067484
1783169529409455900,2.110455810546875,-0.00720306324660778,0.019247383378772062,0.02797047296662349
1783169529419526000,2.12052587890625,-0.019623568880558013,0.025541414622217415,0.025405705079110337
1783169529429595000,2.130594970703125,-0.006454875227808952,0.013211916306545026,0.006041864846972748
1783169529439663900,2.140663818359375,-0.005407412001490593,0.015606579191004857,0.013254004165891092
1783169529449734000,2.15073388671875,-0.010945172384381294,0.009144762765755876,-0.005117639841255732
1783169529459803000,2.160802978515625,-0.0239636439114809,0.027134177406108937,0.0029437230184092187
1783169529469873000,2.170872802734375,-0.01079495025873184,0.014469592784019186,0.012258629603125154
1783169529479942000,2.18094189453125,-0.005108721315860748,0.017801550218323244,0.013417307252110912
1783169529490011000,2.191010986328125,-0.017827333113551138,0.03416718131543603,0.02248562094790395
1783169529500081000,2.201080810546875,-0.01872574325799942,0.01441699494710192,0.0017800289842998607
1783169529510150000,2.21114990234375,-0.019774375528097153,0.01718551437894348,0.0017530838951584882
1783169529520219000,2.221218994140625,-0.01199322013258934,0.02207600353397429,0.01976974273546366
1783169529530289000,2.231288818359375,-0.003614683365821838,0.02130174949215725,-0.0076479780194931655
1783169529540358000,2.24135791015625,-0.0076566522330045695,0.030496137253032064,0.009136351130437105
1783169529550427000,2.251427001953125,-0.010798457390069962,0.029768297902517952,-0.005053029622847679
1783169529560497000,2.261496826171875,0.0017699322819709777,0.028754563415865412,-0.007338644925551489
1783169529570565600,2.271565673828125,0.007904489514231682,0.019511103215720502,-0.0025543789242394267
1783169529580636000,2.281635986328125,0.003713467565178871,0.04123712883482221,-0.010990422598482109
1783169529590704600,2.29170458984375,-0.008856675672531128,0.028464320898172444,-0.01607975422728341
1783169529600774000,2.30177392578125,-0.014693126741051672,0.024038969603437,-0.004011728992545977
1783169529610844000,2.311843994140625,-0.01274783789217472,0.03505528012842406,-0.0015286069399211555
1783169529620913000,2.321912841796875,-0.006163783326745033,0.024421708143595604,0.0022234093872248195
1783169529630981600,2.331981689453125,0.006554243949055671,0.03336395234088413,-0.0013129548952449113
1783169529641051600,2.3420517578125,-0.00601531476676464,0.010524704782874322,0.015933584938955025
1783169529651120600,2.35212060546875,-0.012301847690343856,0.01585525215587113,0.018407242760201916
1783169529661190000,2.36218994140625,-0.016941197928786275,0.018007100994093344,0.00532560633639805
1783169529671260000,2.372260009765625,-0.01454641174674034,0.025669050456723196,0.010511514224449637
1783169529681329000,2.382328857421875,-0.016491700595617293,0.021953295036335474,0.018799979821278248
1783169529691397600,2.392397705078125,-0.017388357174396515,0.027706460868730208,0.022428556998423298
1783169529701467600,2.402467529296875,0.0007172083586454391,0.010259372944151982,0.012122725980484392
1783169529711537000,2.412536865234375,-0.004969605106115341,0.013213624206441454,0.018221243784984107
1783169529721606700,2.422606689453125,-0.010955693778395652,0.0160941161127761,0.04696618770584464
1783169529731676000,2.432676025390625,-0.0009293898046016692,0.006938188065611757,0.028327976600825786
1783169529741744600,2.44274462890625,-0.0015285247415304183,0.009461053040158002,0.03236842251449125
1783169529751815000,2.45281494140625,-0.015744681620597837,0.005984960727696307,0.014819586681912187
1783169529761883600,2.462883544921875,-0.023975334349274634,0.019339317712234332,0.026487570615240836
1783169529771953000,2.472952880859375,-0.017691139513254163,0.0370991476806812,0.026142693567171225
1783169529782022700,2.483022705078125,-0.01679389841258526,0.036998988941567945,0.013872263928398023
1783169529792092000,2.493091796875,-0.009161796098947525,0.04088485393158626,-0.002684738722082693
1783169529802160600,2.50316064453125,-0.020983751317858696,0.036585375772533006,-0.013602778787654824
1783169529812231000,2.51323095703125,-0.010658756658434868,0.015221470597246661,-0.022700291178468612
1783169529822299600,2.523299560546875,-0.004075286614894867,0.02594387164299842,-0.027456997885997404
1783169529832370000,2.533369873046875,0.021513912671804428,0.02532308656326495,-0.020263814429298508
1783169529842438700,2.543438720703125,0.0016115268498659134,0.030704943998390806,-0.004161309514089953
1783169529852508000,2.5535078125,-0.026818448820710182,0.039819663252332244,0.0034528256013058125
1783169529862577700,2.56357763671875,-0.020534838506579396,0.016653448762279,0.010088541855313814
1783169529872647000,2.57364697265625,0.013283844465017318,0.01119178125632461,0.013049101844092364
1783169529882715600,2.583715576171875,0.003856675428152084,0.014227861016592942,0.021758943791303317
1783169529892785700,2.59378564453125,-0.025921207720041275,0.01348619407012593,0.019537141839275136
1783169529902854700,2.603854736328125,-0.008263385954499243,0.007859814688866026,0.020389326805376914
1783169529912924000,2.613923828125,-0.0070662851244211195,0.01762472778011579,0.008561462435487192
1783169529922994000,2.623993896484375,-0.013349895438551902,-0.007199003559420816,0.03666970447156345
1783169529933063000,2.63406298828125,-0.014697218394279479,0.01325592897820752,0.021952573517127892
1783169529943133000,2.6441328125,-0.021132219877839087,0.002267150347540155,0.014238373277452773
1783169529953201700,2.65420166015625,-0.022479542833566665,0.01713562908892054,0.006940674566931556
1783169529963270700,2.664270751953125,-0.005420856004953384,0.012160813518147915,0.026828123114642218
1783169529973340700,2.674340576171875,-0.004673252508044242,0.02321852463260293,0.01460994196962565
1783169529983410000,2.684409912109375,-0.00886310541331768,0.0069066193169914185,0.0290743060226785
1783169529993478700,2.694478759765625,-0.0049742812812328336,0.006585118577932007,0.0011188867780030705
1783169530003549000,2.704548828125,-0.006171382111310958,0.02229234056524001,0.005032436642679386
1783169530013617700,2.71461767578125,-0.004525952991843224,0.0025091241435613483,-0.008603344798856414
1783169530023687000,2.72468701171875,-0.009464578437805175,0.01466402394415345,-0.0032550380068831143
1783169530033756700,2.734756591796875,-0.02457856093943119,0.021886326180770993,-0.009476666167820804
1783169530043826000,2.744825927734375,-0.010063713374733925,0.02524817186326254,0.0047031841387157325
1783169530053895700,2.754895751953125,-0.012009002223610878,0.026126621498493475,-0.003280725003988482
1783169530063965000,2.76496484375,-0.015300444984436034,0.02901545197491068,0.01503053515200736
1783169530074033700,2.77503369140625,-0.020987258449196813,0.01759580307973083,0.014278675605088937
1783169530084104000,2.78510400390625,-0.015151391902565954,0.01984732203329913,0.01231597211381886
1783169530094172700,2.795172607421875,-0.015151976424455642,0.0052104418243980035,0.014699791660567278
1783169530104242000,2.805241943359375,-0.010961538997292518,0.0038859791544498873,0.028752812133484983
1783169530114311700,2.815311767578125,-0.01635024629831314,-0.0015804467250127344,0.03512193389015738
1783169530124381000,2.825380859375,-0.00003974748849868774,0.009667855058098212,0.02169385408228263
1783169530134450700,2.83545068359375,-0.00901858823597431,0.015305997942388056,0.028709555230359545
1783169530144519700,2.845519775390625,-0.018745617002248763,0.015348969434434548,0.024815159874013625
1783169530154588700,2.855588623046875,-0.010965630650520324,0.016927708259550853,0.009005943383532576
1783169530164658700,2.86565869140625,-0.0123129536062479,0.016466114063211714,0.006931029955751728
1783169530174727700,2.875727783203125,-0.015306874725222587,0.021392606113385407,0.006593320150696672
1783169530184797000,2.885796875,-0.005281739795207977,0.011986224136222154,-0.00756898536599474
1783169530194867000,2.895866943359375,-0.010817746612429619,0.012177435859385877,0.0002572581301210448
1783169530204935700,2.905935791015625,-0.024434184032678604,0.03651502308321651,0.013140725650300738
1783169530215004700,2.916004638671875,-0.010667524486780166,0.02078930645799264,0.008266055118909571
1783169530225074700,2.92607470703125,0.005344283637404442,0.02549209558777511,0.013329284192074554
1783169530235144000,2.93614404296875,-0.014556933140754699,0.018151409402186982,0.014923700076935347
1783169530245212700,2.946212646484375,-0.011564181065559386,0.02817203255386557,0.001319914358993992
1783169530255283000,2.956282958984375,-0.004531213688850402,0.020498680347809568,0.013723343277268577
1783169530265351700,2.9663515625,-0.020244331127405167,0.022423355666920542,0.025688214098208116
1783169530275422000,2.976421875,-0.0012397709280252457,0.02223807136104442,0.005954403475939761
1783169530285490700,2.98649072265625,-0.004233692046999931,0.02762394281758461,0.009319706057419535
1783169530295560000,2.996559814453125,-0.00722702864408493,0.02192769937077537,-0.003897918470704462
1783169530305629700,3.006629638671875,0.001602174499630928,0.010598852297896519,0.004243375474086496
1783169530315699000,3.016698974609375,-0.00917114844918251,0.012487684552068822,0.027066580646170766
1783169530325767700,3.026767578125,0.000405073669552803,0.003121269259112887,0.020738247557613065
1783169530335838000,3.036837890625,-0.021892098334431648,0.00292839986840263,0.00921657904308522
1783169530345906700,3.04690673828125,-0.02638064192533493,0.019333677989314308,0.01680524407379562
1783169530355976000,3.056975830078125,-0.012016016486287116,0.015272081973054446,0.027840830121410542
1783169530366045700,3.067045654296875,-0.008723989203572273,0.025632878598221578,0.02403201698955381
1783169530376115000,3.077114990234375,-0.018750293177366255,0.023268286625039762,-0.014728335051750764
1783169530386184700,3.087184814453125,-0.012615151423215865,0.014379028423735871,0.0054634324880666095
1783169530396254000,3.09725390625,-0.0010942249774932862,0.028758116212976165,-0.009286050382989923
1783169530406322700,3.10732275390625,-0.011868716970086096,0.02973353711639065,-0.006468734789802692
1783169530416392700,3.117392822265625,-0.007827332624793052,0.007487067819759249,-0.01771078492864035
1783169530426461700,3.127461669921875,-0.012615735945105552,0.023833816119888798,-0.00999761901871534
1783169530436531000,3.137531005859375,-0.011717910322546958,0.034870484446315096,-0.008166248006245587
1783169530446600700,3.1476005859375,-0.025035072535276412,0.011724550125887617,0.0049020859779906455
1783169530456669700,3.157669677734375,-0.005133855757117271,0.02407104980871081,0.01762987659598002
1783169530466738700,3.16773876953125,-0.01815232728421688,0.023817266843887044,0.014165721316484269
1783169530476808700,3.17780859375,-0.028327099817991256,0.006688487620861269,0.015402320756600238
1783169530486877700,3.187877685546875,-0.013662614649534225,0.020321414951607584,0.026413135405851062
1783169530496947700,3.19794775390625,0.0007031798332929611,0.017874985347292385,0.022887845073244532
1783169530507017000,3.208016845703125,-0.02563479199409485,0.014775535194342954,0.01278127893747296
1783169530517085700,3.218085693359375,-0.006931260567903518,0.018287023047171534,0.008060351362801156
1783169530527156000,3.228156005859375,-0.006483516800403595,-0.0009089087055763229,0.025384420262486673
1783169530537224700,3.238224609375,-0.016359598648548124,0.011371841397811657,0.00858815636287909
1783169530547293700,3.248293701171875,-0.02593698981106281,0.008902377977780998,0.02593226112030679
1783169530557363700,3.25836376953125,-0.013816928428411483,0.011082909487793221,0.01161238813843811
1783169530567433500,3.26843359375,-0.006336217284202575,0.004449736817320808,-0.006697771472437307
1783169530577502500,3.27850244140625,0.00039630584120750427,0.009440019385283813,0.00738291104225209
1783169530587572500,3.288572509765625,-0.006935936743021011,0.03746477525583468,0.012006869632028974
1783169530597641500,3.298641357421875,-0.009330722925066948,0.03216351790940389,-0.006318300318310503
1783169530607711500,3.30871142578125,-0.009779635736346244,0.02648286019079387,0.002760438873374369
1783169530617780500,3.318780517578125,-0.01456862357854843,0.0067120237600756805,0.006079507143353112
1783169530627849500,3.328849365234375,-0.015167173993587493,0.01634744698645081,-0.003599157003127038
1783169530637919500,3.33891943359375,-0.01322188514471054,0.0230620371629484,0.0048581144055235195
1783169530647988500,3.348988525390625,-0.0034960254222154616,0.023679685004102065,-0.0008504314004327171
1783169530658057500,3.359057373046875,-0.002598199799656868,0.0175869028206449,-0.01638561215592781
1783169530668127500,3.36912744140625,-0.006339139893651008,0.023240585767361335,0.021721824368019588
1783169530678196500,3.379196533203125,-0.006340308937430382,0.02380265379664488,0.01964806171770906
1783169530688265500,3.389265380859375,-0.0005056114345788955,0.0015154323645168914,-0.007717517858056817
1783169530698335500,3.39933544921875,-0.01606792222559452,0.009090881720627657,0.00757027999064885
1783169530708404500,3.409404541015625,-0.004695464339852333,0.019687656225869432,0.008312682156055233
1783169530718473500,3.419473388671875,-0.009334814578294753,0.01959807824627496,0.022865114934917073
1783169530728543500,3.42954345703125,-0.011280103427171706,0.014042983136093243,0.013833941212005447
1783169530738612500,3.439612548828125,-0.013525836527347564,0.03387242701940704,0.014280415471026207
1783169530748682500,3.4496826171875,-0.0129272861123085,0.016239990856871007,0.007635586612089537
1783169530758751500,3.45975146484375,-0.015471125376224517,0.009909828854119404,0.019867061063519213
1783169530768820500,3.469820556640625,-0.013076923716068268,0.010078828745475039,-0.0018466781794559209
1783169530778890500,3.479890380859375,-0.01008475616276264,0.01911274241474457,0.008282305284100584
1783169530788959500,3.48995947265625,-0.01846387745141983,0.02324307911854703,-0.006919481081853154
1783169530799028500,3.500028564453125,-0.013225392276048659,0.022235020887432618,0.0014430726644932292
1783169530809098500,3.510098388671875,-0.016368950998783112,0.005288233468076214,0.01580372746461071
1783169530819167500,3.52016748046875,-0.016219897916913032,0.02122137316574808,-0.0024584465523832476
1783169530829237500,3.530237548828125,-0.012778817552328108,0.010380181745649315,0.009316607634746468
1783169530839306500,3.540306396484375,-0.006344400590658187,0.012751066462299785,0.013540760101843624
1783169530849375500,3.55037548828125,-0.0023036007672548294,0.0006394212815444916,0.007307957526342943
1783169530859445500,3.560445556640625,-0.01173135432600975,0.01211563636928331,0.011318999249010812
1783169530869514500,3.570514404296875,-0.004849193596839905,0.014858222208847291,0.015632266188110224
1783169530879583500,3.58058349609375,-0.009937456646561623,0.01276908617618028,0.007706348010071087
1783169530889653500,3.590653564453125,-0.005598550659418106,0.01708660231542308,0.00887940809414722
1783169530899722500,3.600722412109375,0.004427168792486191,0.0022244071843568235,0.0041955497104092495
1783169530909791500,3.61079150390625,-0.019514847809076308,0.00039320970182307063,0.006217191731126513
1783169530919861500,3.620861572265625,-0.00784311471581459,-0.005469914744491689,0.0066939926297520285
1783169530929930500,3.630930419921875,-0.011136311042308807,0.02260153437857516,0.010689889298926572
1783169530939999500,3.64099951171875,-0.012483049476146698,0.01463552850203123,0.020596325186139436
1783169530950069500,3.651069580078125,-0.008443418696522712,0.01142180431964807,0.02228430567254545
1783169530960138500,3.661138427734375,-0.008292612048983574,0.006468150267913006,-0.0002484400694258511
1783169530970208500,3.67120849609375,0.007120061138272285,0.015943044603755698,0.004837875335093122
1783169530980277500,3.681277587890625,-0.01547580155134201,0.008396469715679995,0.01686168696876848
1783169530990346500,3.691346435546875,0.000685059654712677,0.0038176357591291885,-0.009874401347711682
1783169531000416500,3.70141650390625,-0.019217326167225837,0.013209719782881438,0.0012596309725427998
1783169531010485500,3.711485595703125,-0.01951777041852474,0.013179329211194999,0.020148006029904353
1783169531020554500,3.721554443359375,-0.014580898538231848,0.016013502324349244,0.008874110864521934
1783169531030624500,3.73162451171875,-0.015628361764550208,0.012194409827073104,-0.003176625308697112
1783169531040693500,3.741693603515625,-0.009644026657938957,0.014899855693755671,0.013379918400768655
1783169531050762500,3.751762451171875,-0.025506197178363797,0.017811354659707283,0.0011634291726280934
1783169531060832500,3.76183251953125,-0.027601123631000517,0.00009161010647658258,0.007188710494269617
1783169531070901500,3.771901611328125,-0.019071780216693878,0.024312251853174528,0.013802157834253738
1783169531080971500,3.781971435546875,-0.011591653594374656,0.0197006938039558,0.004891605683171656
1783169531091040300,3.792040283203125,-0.015184125128388404,0.011366183408582583,0.02124204606101848
1783169531101109500,3.802109619140625,-0.004710077387094497,0.017763410165021195,0.01090830640613567
1783169531111179500,3.812179443359375,-0.002315291205048561,0.013648745954385958,0.011919465343211777
1783169531121248500,3.82224853515625,-0.0011176058530807495,0.01608219734611921,-0.007518364857032429
1783169531131317500,3.8323173828125,-0.011442600512504578,0.008599120714887977,-0.0040563376025413165
1783169531141387500,3.842387451171875,-0.010694412493705749,0.006870401792717166,0.00028882231216412034
1783169531151456500,3.85245654296875,-0.018325930285453797,0.016864945221645757,0.015314420994149985
1783169531161525500,3.862525390625,-0.024161796832084654,0.020321355586103162,0.0050287947973120025
1783169531171595500,3.872595458984375,-0.014735796838998793,0.006386810393701307,0.0010796918453532271
1783169531181664500,3.88266455078125,-0.01533551629781723,0.011378458368266,0.013726106056512798
1783169531191734500,3.892734619140625,-0.0005202244818210602,0.0051543048901017754,-0.017203853753232395
1783169531201803500,3.902803466796875,0.004268763360381126,-0.002861709574051201,0.012609413518884683
1783169531211872500,3.91287255859375,0.002771218279004097,0.01172954139483627,-0.01963916374191176
1783169531221942500,3.922942626953125,-0.006356675550341606,0.029802839492936616,-0.0037735660052509046
1783169531232011500,3.933011474609375,0.0006762918263673782,0.015496602310775778,0.003246512207132764
1783169531242080500,3.94308056640625,0.0029196868389844894,0.026048368630511683,0.0006011602139449678
1783169531252150500,3.953150634765625,0.002470189505815506,0.00570689727156423,-0.010681904638581909
1783169531262219500,3.963219482421875,-0.016682839253544808,0.00901507653805893,0.007461202726140618
1783169531272288500,3.97328857421875,-0.019676760372519492,0.01724474745262414,-0.0023561757712857795
1783169531282358500,3.983358642578125,-0.01952653824687004,-0.0016580648387549445,0.01649150879937224
1783169531292427500,3.993427490234375,-0.0032166239589452744,0.0005831564830848947,0.007517609088495373
1783169531302496500,4.00349658203125,-0.020874445724487302,0.019382234405353665,0.023279362858191596
1783169531312566500,4.01356640625,-0.011896774020791053,0.0035860783258453008,0.021713796325190923
1783169531322635500,4.023635498046875,-0.0147398884922266,0.0016795916839735582,0.01982693683239631
1783169531332705500,4.03370556640625,-0.006509820285439491,0.003368051660992205,0.014874702986190095
1783169531342774300,4.043774169921875,0.0015694412738084791,0.011119273142539896,0.008439902432030067
1783169531352843500,4.053843505859375,0.010845803663134574,-0.0015323606664314866,0.015396235792397055
1783169531362913500,4.06391357421875,-0.0232709854722023,0.014089178631687536,0.026590862026356625
1783169531372982500,4.073982421875,-0.027910920232534407,0.01856746112348046,0.0030216196933644823
1783169531383051500,4.084051513671875,-0.004867898297309875,0.015973508240678346,-0.005680918013514019
1783169531393121500,4.09412158203125,0.004109773406386375,0.029455368628981522,-0.012445598976011387
1783169531403190300,4.104190185546875,-0.0062146367311477655,0.012456408064393326,0.0005476330785546452
1783169531413259500,4.114259521484375,-0.008459785309433936,0.011445787983434274,0.01622965897581307
1783169531423329500,4.12432958984375,-0.01444528945982456,-0.0025167959933634844,0.006452852234081365
1783169531433398500,4.1343984375,-0.005616086316108704,-0.0006730678228195757,0.015387091221427543
1783169531443468500,4.144468505859375,-0.009207388806343078,0.009163723194552584,0.017265831339848228
1783169531453537500,4.15453759765625,-0.00801087249815464,0.023355942075606435,0.016922237499989567
1783169531463606500,4.1646064453125,-0.013996961170434951,0.016705667573283425,0.017028967543784527
1783169531473676500,4.174676513671875,-0.0005301613539457321,-0.0008833632723661139,0.024343318278295917
1783169531483745500,4.18474560546875,0.011141571739315986,0.013450433203577994,0.007498580161039717
1783169531493814500,4.194814453125,-0.004869651862978935,0.007584559677750803,0.021197398635116403
1783169531503884500,4.204884521484375,-0.00023088614642620086,0.0029230569730047135,0.01493297936193412
1783169531513953500,4.21495361328125,-0.023425299251079557,0.002002485229098238,0.02266887084360933
1783169531524022500,4.2250224609375,-0.0026239187628030775,0.004457732894108631,-0.004353756496403366
1783169531534092500,4.235092529296875,-0.005316226586699485,-0.0010660446292022243,0.0039935631481930614
1783169531544161500,4.24516162109375,-0.014443535894155502,0.02979845557876397,0.0003645430130534805
1783169531554231300,4.255231201171875,-0.016537877824902535,0.022758277576556428,0.009905613903305494
1783169531564300500,4.265300537109375,0.002316460248827934,0.011984255941421725,-0.01821837140788557
1783169531574369500,4.27536962890625,-0.00187222361266613,0.023360631950455717,0.001787292125436943
1783169531584439300,4.285439208984375,-0.021323943057656287,0.022816985493851825,0.013941506939439567
1783169531594508300,4.29550830078125,-0.011596914291381835,0.002376839533401653,0.007548264521663077
1783169531604577300,4.305577392578125,-0.007258008304238319,0.0052926995806396,-0.003003378500486724
1783169531614647300,4.315647216796875,-0.009202128109335898,0.013324372838228009,-0.0017429780596750787
1783169531624716300,4.32571630859375,-0.015637129592895507,0.004463591812737286,0.00009884584815008565
1783169531634785500,4.33578564453125,-0.006959317618608474,0.014574441397981718,-0.0008083526742411777
1783169531644855300,4.345855224609375,-0.0042658407509326935,0.008439066748390905,0.015723088560008907
1783169531654924300,4.35592431640625,-0.011149755045771597,0.005073663702211343,0.01587323762042215
1783169531664994600,4.36599462890625,-0.009055997636914252,0.025127988682850263,-0.005717311351012904
1783169531675063300,4.376063232421875,-0.0026227497190237045,0.01556069422266446,0.005429457153228577
1783169531685132300,4.38613232421875,-0.005016951379179954,0.022030913150077686,0.014211115377768873
1783169531695202300,4.396202392578125,-0.006364274334907531,0.007625544708687811,0.008777301709831226
1783169531705271600,4.406271484375,-0.01100245552957058,0.01399536286839284,0.0011072260229615493
1783169531715340300,4.41634033203125,-0.02476853055357933,0.015619520870968698,0.020691483523149506
1783169531725410600,4.42641064453125,-0.010703180322051047,0.00015271091025788336,0.0032825356518733314
1783169531735479300,4.436479248046875,-0.017886369824409484,0.017198899016901848,0.006273554710997268
1783169531745548300,4.44654833984375,-0.01085515601336956,0.022909486082894726,0.0012060421883594245
1783169531755618300,4.456618408203125,-0.008162263667583465,0.008430079724336974,0.009880059336940757
1783169531765687600,4.4666875,-0.003972410762310028,0.01911389319221489,-0.0010838793967035598
1783169531775756300,4.47675634765625,-0.005019873988628387,0.01129096274790354,-0.002276888573553879
1783169531785826600,4.48682666015625,0.0029109190106391906,0.015804069957905446,-0.00550755475758342
1783169531795895300,4.496895263671875,-0.023874212062358856,0.017909074846561998,0.00525545000990387
1783169531805965300,4.50696533203125,-0.01803776099383831,0.01810958412103355,0.0036910867700120434
1783169531816034300,4.517034423828125,-0.011453706428408622,0.023868070015939883,-0.0037659466710872947
1783169531826103600,4.527103515625,-0.011454875472187995,0.022036260612052865,-0.0061095164058380756
1783169531836173300,4.53717333984375,-0.00861176100075245,0.005285945612867362,-0.0052578474629670375
1783169531846242300,4.5472421875,-0.000831190127134323,0.004955010325182229,0.010648858602216931
1783169531856311300,4.557311279296875,-0.010258359163999557,0.024119058235478587,0.00556787695994135
1783169531866381300,4.56738134765625,-0.03479834165871143,0.020607693680236114,0.0051358901672880165
1783169531876450300,4.5774501953125,-0.03075812635719776,0.009713543663616292,0.012896717444108799
1783169531886519600,4.58751953125,-0.008313654837012291,-0.0005896136233350262,0.018087351739627774
1783169531896589300,4.59758935546875,-0.015047347006201743,0.003890372201777063,0.017059150336205493
1783169531906658300,4.607658203125,-0.02118307328224182,0.009935488451761194,0.011634985846024938
1783169531916727300,4.617727294921875,-0.008463292440772057,0.006062546875397675,-0.007991439428611193
1783169531926797300,4.62779736328125,0.0032078561305999755,0.002352933501428924,0.000020597546745557336
1783169531936866300,4.6378662109375,-0.0060714288681745525,0.011093079255358315,0.006623130767070688
1783169531946936300,4.647936279296875,-0.017893384087085722,0.005611264010518789,-0.007617840892844833
1783169531957005300,4.65800537109375,-0.006519757157564162,0.01116432242724113,0.0015665186643600464
1783169531967074300,4.66807421875,-0.011008300748467445,0.011706790706911123,0.009349505257350392
1783169531977144600,4.67814453125,-0.021483517533540726,-0.004091287901625037,0.0007290905926842242
1783169531987213300,4.68821337890625,-0.012057517540454863,-0.0038431811923393976,0.006645694225328042
1783169531997282300,4.6982822265625,0.004852116206288337,0.009948758925287984,-0.002258195289527066
1783169532007352300,4.708352294921875,-0.015499182426929473,0.010492624577600508,-0.0017687289888621306
1783169532017421600,4.718421630859375,-0.017893968608975408,0.0042406697770580645,0.0047338098891312255
1783169532027490300,4.728490234375,-0.010112813213467598,0.008464383852737956,-0.0018722373123979195
1783169532037560600,4.738560546875,-0.020288754791021345,0.022172403979999943,0.009833765659935306
1783169532047629300,4.74862939453125,0.0026063831061124802,0.013857817561225965,0.026071445828711147
1783169532057699300,4.75869921875,-0.020588029998540876,0.009649246255750768,0.00828399720097659
1783169532067768300,4.768768310546875,-0.0222340436398983,0.018045775336935185,0.005790534134139306
1783169532077837600,4.778837646484375,-0.011309914043545722,0.011487298170756548,-0.00016783769744215532
1783169532087907300,4.7889072265625,-0.0053261634588241576,-0.005737306109559722,0.0018628529961220918
1783169532097976300,4.798976318359375,-0.000986088427901268,0.005769171685702167,0.008054421662224922
1783169532108045300,4.80904541015625,-0.014753917017579077,0.007726242303918115,0.006143681253632531
1783169532118115300,4.819115234375,-0.015501520514488219,0.016015986542380414,0.015777471928636076
1783169532128184300,4.829184326171875,-0.006522679767012596,0.01689091077996418,-0.0018808658601366913
1783169532138253600,4.839253662109375,0.005598550659418106,0.014752199984528123,0.006475625754892826
1783169532148323300,4.8493232421875,-0.00816810888648033,0.0011416260494850575,0.01015530064832419
1783169532158392300,4.859392333984375,-0.008318915534019469,0.01030695667923428,-0.0054665902762440965
1783169532168462300,4.86946240234375,-0.018344634985923765,0.008835094028385355,-0.008875371239846571
1783169532178531300,4.87953125,-0.005027472773194313,0.0198692142046988,0.018256566260114775
1783169532188600300,4.889600341796875,-0.00727320587337017,0.01797570120883174,-0.007894470443716273
1783169532198670300,4.89967041015625,-0.011912556111812592,0.009997141811391339,-0.007616160392411984
1783169532208739300,4.9097392578125,-0.006526186898350716,0.025545579340681433,0.0020956023060716687
1783169532218808300,4.919808349609375,-0.01685118155777454,0.004787855331040918,-0.01073450932536507
1783169532228878300,4.92987841796875,-0.02148994727432728,0.017911805659765377,0.004699218066362663
1783169532238947300,4.939947265625,-0.004133154281973838,0.009507495130924507,0.004162184013635851
1783169532249016300,4.950016357421875,-0.0006926584392786026,0.0025748417569557203,0.016354822008730844
1783169532259086300,4.96008642578125,-0.0054810617595911024,0.0004616170292254537,0.010784200535854323
1783169532269155300,4.9701552734375,-0.00981996774673462,0.006245182566461153,0.010665766354533843
1783169532279224300,4.980224365234375,-0.00009410802423954009,0.019395262850285505,0.019684222159767523
1783169532289294600,4.990294677734375,-0.008922726646065712,0.021345990492682904,0.003876642787235323
1783169532299363300,5.00036328125,0.00753682524561882,0.014817360475496389,0.009972527959942816
1783169532309433300,5.010433349609375,0.0009521861582994461,0.009912988925585522,0.004340776000532787
1783169532319502300,5.02050244140625,-0.0015910685837268828,0.0051672785361064595,0.013743470466556027
1783169532329571300,5.0305712890625,-0.009670330142974854,0.005763646127213724,0.012005903800937813
1783169532339641300,5.040641357421875,-0.008321838143467902,0.008862662455323151,0.008478295930370222
1783169532349710600,5.050710693359375,-0.012062193715572357,0.014480392739246598,-0.0012233426663209683
1783169532359779300,5.060779296875,-0.003234744137525558,-0.0025753075478365645,-0.003816701894078869
1783169532369849300,5.070849365234375,-0.0021866963893175124,0.015111018792982212,0.001641150236572139
1783169532379918300,5.08091845703125,-0.015654080727696418,0.012191528316820039,0.003387681093357969
1783169532389987600,5.090987548828125,-0.009818798702955246,0.016735724784829653,0.008086202756687998
1783169532400057300,5.101057373046875,-0.014756255105137825,0.016062204870861022,-0.007519716563902329
1783169532410126300,5.111126220703125,-0.000841126999258995,0.005793771837418899,-0.012852974200504831
1783169532420195300,5.1211953125,-0.01011924295425415,0.006607663769880309,0.008273338809644338
1783169532430265300,5.131265380859375,-0.024634090518951414,0.011015584439202211,0.020902596390026156
1783169532440334300,5.141334228515625,-0.0017395371437072752,0.006227774773933924,0.010201927685469854
1783169532450404400,5.151404296875,-0.025681553745269772,0.0062095267311902715,0.0013787866730708628
1783169532460473300,5.161473388671875,-0.016104747104644775,-0.0019858309218194333,0.013677001651201863
1783169532470542300,5.171542236328125,-0.006078443130850791,-0.004191939831082709,0.020626254533522296
1783169532480612400,5.1816123046875,-0.004731704697012901,-0.004768502176599577,0.010424377080402336
1783169532490681300,5.191681396484375,-0.021790976047515866,0.013126594376959837,-0.0008073731434182263
1783169532500750300,5.201750244140625,-0.0107183778911829,0.00207917176107876,0.010685491685022133
1783169532510820400,5.2118203125,-0.011316343784332274,-0.0027856532297329977,0.01123849049186101
1783169532520889300,5.221889404296875,-0.009372808501124381,0.010018312463583425,0.008352475310326554
1783169532530958300,5.231958251953125,-0.0027881694138050077,-0.0008124214945826679,0.016611979674152098
1783169532541028400,5.2420283203125,-0.023586627292633056,-0.00481885325750336,0.018280011067783923
1783169532551097300,5.252097412109375,-0.00443242948949337,0.021713106772024184,0.022662039244023616
1783169532561167400,5.26216748046875,-0.018199673557281495,0.012494397420645691,0.012079535292729269
1783169532571236000,5.272236083984375,-0.019994740280508995,0.012555708286981097,-0.003166798034426756
1783169532581305000,5.28230517578125,-0.007125321835279464,0.006529968024324625,-0.0065449349813046865
1783169532591375000,5.292375,-0.007274374917149543,0.006735934358625672,-0.006400135666155256
1783169532601444000,5.302444091796875,-0.014157704690098761,0.016192187926080077,0.006344756783684715
1783169532611513000,5.31251318359375,-0.021488778230547904,0.0024912505601532757,0.016045577963045798
1783169532621583000,5.3225830078125,-0.01116319904923439,-0.0032611709201475604,0.010411102040298282
1783169532631652000,5.332652099609375,-0.015950433325767517,0.017030529313208535,-0.0018874029154889284
1783169532641721000,5.34272119140625,-0.004278700232505798,0.012880939919664524,0.012809493535093497
1783169532651791000,5.352791015625,-0.001287117201089859,0.012262497494067064,0.009483938442112412
1783169532661860400,5.3628603515625,-0.004879004213213921,0.003671701649529859,0.018017953464959283
1783169532671929000,5.37292919921875,-0.010265957948565482,0.014020223315013573,0.006927744303410872
1783169532681999000,5.3829990234375,0.002153378641605377,0.013639028277969919,0.008423401105089578
1783169532692068000,5.393068115234375,-0.00861994430720806,0.011800734334369189,0.006403122207685373
1783169532702138000,5.40313818359375,-0.01146247425675392,0.00555864790729247,0.007009145826415624
1783169532712207000,5.41320703125,-0.023134791871905324,0.02318032978037372,0.012788587744382674
1783169532722276000,5.423276123046875,-0.008769581910967826,0.006788824456487782,0.02019903981410898
1783169532732346000,5.43334619140625,-0.016400515180826185,0.01192381272476632,0.008608872640633489
1783169532742415000,5.4434150390625,-0.016401099702715874,0.016988146909628993,0.0025033428567461666
1783169532752484000,5.453484130859375,0.005444821402430534,0.014857610287494025,0.020056571736652404
1783169532762554000,5.46355419921875,-0.019244798696041107,0.019119437017012388,-0.0004282011001021601
1783169532772623000,5.473623046875,-0.014606032979488372,0.009408126409677788,0.00010531897142063826
1783169532782692000,5.483692138671875,-0.007872340810298918,0.005353467024280689,0.0012224818665068596
1783169532792762000,5.49376220703125,0.0018541034340858458,0.008152427260158582,0.0015306687495554798
1783169532802831000,5.5038310546875,0.0018558569997549055,0.006450970804248936,0.006587837974692229
1783169532812901000,5.513901123046875,-0.009666238489747047,0.0037998580738436427,0.0171463673953549
1783169532822970000,5.52397021484375,-0.019842180067300794,0.007262259787670336,0.00898552165001165
1783169532833039000,5.5340390625,-0.006524433332681655,0.02306994647476822,0.012043383983825333
1783169532843109000,5.544109130859375,-0.0105658176779747,0.016506103580305354,0.018443273054808376
1783169532853178000,5.55417822265625,-0.006524433332681655,0.0042709233514266086,0.01166798165004002
1783169532863247000,5.5642470703125,-0.011014145967364311,0.004154845523973927,0.003760560393205378
1783169532873317000,5.574317138671875,-0.00966740753352642,-0.003208230589935556,0.009564860474504529
1783169532883386000,5.58438623046875,-0.012211246797442435,-0.0009340705462964251,-0.0017259903922560624
1783169532893455000,5.594455078125,-0.010115151301026344,0.011321832810202612,0.011971161281119566
1783169532903525000,5.604525146484375,-0.02044014596045017,0.008277820905228144,0.012358470965118612
1783169532913594000,5.614593994140625,-0.01385667591691017,0.01733418386832345,0.01637457473868271
1783169532923663000,5.6246630859375,-0.024481530305743217,0.01708209053708706,0.01915530976470327
1783169532933733000,5.634733154296875,-0.0237327577650547,0.011438833086262456,-0.0017239536987966857
1783169532943802000,5.644802001953125,-0.014604279413819312,0.0017865180905908345,-0.013152824796759523
1783169532953872100,5.6548720703125,-0.005775076270103454,0.018295124155236406,-0.0012728466471424325
1783169532963941000,5.664941162109375,-0.008767828345298767,-0.004311570455646142,-0.0013113063608529046
1783169532974010000,5.675010009765625,-0.0018844985723495483,-0.0011347213846631347,0.00019245154889067635
1783169532984080100,5.685080078125,-0.005475801062583923,0.00425381695299875,-0.011589176226209382
1783169532994149000,5.695149169921875,-0.01160977377295494,0.010087792936642654,0.006252377208939288
1783169533004218000,5.705218017578125,-0.010562895068526267,-0.0015106511581223457,0.033167354339838494
1783169533014288100,5.7152880859375,-0.013705284747481346,0.007859289532480761,0.015288231673545668
1783169533024357000,5.725357177734375,-0.00637304216325283,0.005087463898700662,-0.012232782775815576
1783169533034426000,5.735426025390625,-0.005177110376954079,0.012358751809620297,0.013540790926240151
1783169533044496100,5.74549609375,0.0006587561696767807,0.01831746841778513,0.02333332610171055
1783169533054565000,5.755565185546875,-0.017598200532793998,0.00397147918054834,0.01264468804495409
1783169533064634000,5.765634033203125,-0.014905308187007903,0.008091614150744863,0.013345851734385359
1783169533074704100,5.7757041015625,-0.022836685708165168,0.0006857492078794166,0.0049711029434576625
1783169533084773000,5.785773193359375,-0.002485387074947357,-0.004684892713488079,0.0029926721600932065
1783169533094843100,5.795843017578125,-0.00682487758398056,0.0007944976788247004,0.014574334083416032
1783169533104912100,5.805912109375,0.0017038813084363936,0.012698409259878099,0.006246790001657791
1783169533114981000,5.815981201171875,-0.009369885891675948,0.000517009611427784,0.014670426285476422
1783169533125051100,5.826051025390625,-0.009370470413565635,-0.004465203814511187,0.013562078026152448
1783169533135120100,5.8361201171875,-0.018797639450430868,0.02331868793829344,0.0005279853798798285
1783169533145189000,5.846189208984375,-0.01655365991592407,0.0228128710077377,0.0008661073185328859
1783169533155259100,5.856259033203125,-0.0015904840618371963,-0.010918119980674237,0.008129717671428806
1783169533165328100,5.866328125,-0.0021884499549865723,0.0006415995388990268,-0.005395215815264964
1783169533175397000,5.876397216796875,-0.021790976047515866,-0.009224276009062305,0.008295901126257376
1783169533185467000,5.886466796875,-0.012214169406890869,0.0015972197633003814,0.0026922747162112497
1783169533195536100,5.8965361328125,-0.007576572734117507,0.004735394491441548,0.016265314811083953
1783169533205605000,5.906605224609375,-0.009222001853585243,0.01260735170925036,0.006237768728274386
1783169533215675100,5.916675048828125,-0.0024877251625061033,0.0017180787971476093,0.005547252013732213
1783169533225744100,5.926744140625,-0.014459902507066726,0.0248018437347142,0.0019675052472623066
1783169533235814100,5.936814208984375,-0.006230418822169304,0.008191444096295162,0.008458479268336669
1783169533245883100,5.946883056640625,0.0017009586989879606,0.011126588799315504,0.006039663756731897
1783169533255952100,5.9569521484375,-0.005779752445220947,0.011081708477973006,0.019797066850517877
1783169533266022100,5.967022216796875,-0.006827215671539306,0.009117071041231974,0.009107867104758043
1783169533276091100,5.977091064453125,-0.014009236130118369,0.014144895440875552,0.006308863486396149
1783169533286160100,5.98716015625,0.002751344534754753,0.0049868256689747795,-0.009194291862752288
1783169533296230100,5.997230224609375,0.002302431723475456,0.011778275907388887,0.005487298562488286
1783169533306299100,6.007299072265625,0.0023018472015857694,0.010784931188216433,0.006498449508054182
1783169533316368100,6.0173681640625,-0.011613865426182746,0.0027295619612094013,0.015985147304477868
1783169533326438100,6.027438232421875,-0.01999357123672962,0.0004878885482205078,-0.01500376815937925
1783169533336507100,6.037507080078125,-0.01341010119318962,0.001934137267200276,-0.011083958658919436
1783169533346577200,6.0475771484375,-0.014905308187007903,0.012857883271062746,-0.0008387215546856168
1783169533356646100,6.057646240234375,-0.015204583394527434,0.009992853795341216,-0.0003637495702540036
1783169533366715100,6.067715087890625,-0.005478139150142669,0.013172931436449289,0.0019101376203936524
1783169533376785200,6.07778515625,-0.013559738796949385,0.018802936680056153,0.00130008628051728
1783169533386854100,6.087854248046875,-0.019395605343580244,0.02522440739518497,-0.006716769575496437
1783169533396923100,6.097923095703125,-0.017151625809073447,0.011248361148615367,0.0016752260361099615
1783169533406993200,6.1079931640625,-0.007574234646558761,-0.0009263256312580779,0.006105342554219533
1783169533417062100,6.118062255859375,-0.01341010119318962,0.012370181952510028,-0.0015103406308684497
1783169533427131100,6.128131103515625,-0.013110825985670089,0.007299089233297854,0.009300374594220192
1783169533437201000,6.138200927734375,-0.022988076877593994,0.006561564172408543,0.01466106251879828
1783169533447270100,6.148270263671875,-0.014160042777657507,0.007555310750380158,-0.0028907130478939506
1783169533457339100,6.158339111328125,-0.01371112996637821,0.010566813191818073,-0.0013029894820123444
1783169533467409200,6.1684091796875,-0.019996493846178055,-0.0025352403989294544,0.018425437145662724
1783169533477478100,6.17847802734375,-0.003836217162013054,0.0029519953731214628,0.011714289026777258
1783169533487548200,6.188548095703125,-0.010421440771222115,-0.0019493713689502327,0.007091725526354275
1783169533497617000,6.198616943359375,-0.009373977544903754,0.007240563979092985,0.008224031191645189
1783169533507686100,6.20868603515625,-0.012964695513248442,0.00829572645467706,0.0014030808641109615
1783169533517756200,6.218756103515625,-0.01939969699680805,0.0077629256190732115,0.0007848119684495032
1783169533527825200,6.2288251953125,-0.030622517278790472,0.0005856589674251154,0.0008398232414503581
1783169533537894000,6.238893798828125,-0.02059621330499649,-0.0009289742460707202,0.0028043305307393893
1783169533547964200,6.248964111328125,-0.004883680388331413,0.014356688727764412,0.0014857222128426655
1783169533558033200,6.259033203125,-0.009224339941143989,0.014067779650632292,0.0016296173456939868
1783169533568103200,6.269103271484375,-0.0012935469418764113,0.014183633715799077,-0.005791929223493207
1783169533578173200,6.279173095703125,-0.006679916155338287,0.0200001836406067,0.011896465776825788
1783169533588242200,6.2892421875,-0.003238251268863678,0.017013468580553307,0.0008553062216611579
1783169533598311200,6.299311279296875,-0.013563245928287506,0.019649493339681065,0.012587379783589857
1783169533608381000,6.309380859375,-0.01640636039972305,0.0066457672905642536,0.007665529659204184
1783169533618450200,6.3194501953125,-0.0050339025139808655,0.012209780926140956,0.012057060882728546
1783169533628520000,6.32952001953125,0.004693126252293587,0.003690598146244883,-0.0020537062429706564
1783169533638589200,6.339589111328125,-0.0072784665703773494,0.010808732188912108,0.009823062744474736
1783169533648658000,6.349657958984375,-0.0032400048345327375,-0.001863373585930094,-0.000682614252588246
1783169533658728200,6.359728271484375,-0.021944705304503438,0.004988606634107418,0.009759575904073427
1783169533668797000,6.369796875,-0.01745557719171047,0.01840861729995813,0.017535605316603323
1783169533678866200,6.3798662109375,-0.011171966877579688,0.0008852355690440163,0.006807113598426804
1783169533688936200,6.389936279296875,-0.01611059232354164,0.018117712628562002,0.014213081289280671
1783169533699005200,6.400005126953125,-0.007581833431124687,0.017848595097288488,-0.0015892465193988754
1783169533709074000,6.410073974609375,-0.02254559380710125,0.00618695413977839,-0.0011591502897324972
1783169533719144200,6.420144287109375,-0.002494739425182342,-0.0000188599640969187,-0.0017393978631007484
1783169533729213000,6.430212890625,-0.014915245059132574,0.004830141836497932,0.007769330243684817
1783169533739282200,6.4402822265625,-0.015962123763561247,0.012073226566240191,-0.0022741132362221832
1783169533749352200,6.450352294921875,-0.0021948796957731247,0.016787203810317442,-0.011632808730314718
1783169533759421200,6.460421142578125,-0.02119827085137367,0.011786061921622603,0.014267218062735627
1783169533769491200,6.4704912109375,-0.00668283876478672,-0.003014278920413926,0.0128441173239029
1783169533779560200,6.480560302734375,-0.000398059406876564,0.002672379280719906,0.0007386587136948946
1783169533789629200,6.490629150390625,-0.002792261067032814,0.005019275767006911,0.007136963182367617
1783169533799699000,6.500698974609375,-0.02478898881971836,0.01012884646623861,0.005288118162000319
1783169533809768200,6.510768310546875,-0.00009936872124671936,0.012857896970794536,0.003980272125068586
1783169533819837200,6.520837158203125,-0.011173135921359061,0.001716727090277709,0.010630136777082225
1783169533829907200,6.5309072265625,-0.0026432079851627347,0.00015007599517703055,0.005221834293025313
1783169533839976200,6.54097607421875,-0.0002484218031167984,-0.00042511181058362126,-0.008915231751132523
1783169533850045200,6.551045166015625,0.0034931028127670287,0.012702245184779167,0.010795752834685845
1783169533860115000,6.561114990234375,-0.016706220129132268,-0.00011315521800424904,0.00006793582829996012
1783169533870184200,6.57118408203125,-0.003837386205792427,0.0038099958753678945,0.006507384016469586
1783169533880253200,6.581253173828125,-0.0048848494321107865,0.016063716407935136,0.009493572778493399
1783169533890323200,6.5913232421875,-0.011019991186261176,0.010047310229204595,0.003508915728185093
1783169533900392000,6.601391845703125,-0.0053343467652797695,0.002840324292727746,0.009536016830865992
1783169533910462200,6.611462158203125,-0.00772854842543602,0.014792573094111866,0.004717676171660423
1783169533920531000,6.621531005859375,-0.0024929858595132827,0.010203048780187964,0.018032238860282813
1783169533930600200,6.63160009765625,-0.003989361897110939,0.005527211589412763,-0.00150012633917504
1783169533940670000,6.641669921875,-0.019851532417535782,0.015976271019922567,0.0040420088247337845
1783169533950739200,6.6517392578125,-0.0285299289137125,0.010425450226059183,-0.01780426619015052
1783169533960808000,6.661807861328125,-0.01715805554986,0.002043415461108088,-0.0008074131009692792
1783169533970878200,6.671878173828125,-0.01775543692111969,-0.0031992892316542562,-0.004738989529391983
1783169533980947000,6.681947021484375,-0.007729717469215393,0.005950784463458694,0.012026157712744316
1783169533991016200,6.69201611328125,-0.006233341431617736,0.016844427590002306,0.014262598969833925
1783169534001086000,6.7020859375,-0.018653262543678283,0.01574319291641004,0.015323699137504445
1783169534011155200,6.7121552734375,-0.01371639066338539,-0.004407171750650741,0.010235867629334098
1783169534021224000,6.722223876953125,-0.017906243568658827,-0.000829943451541476,0.00798956142371171
1783169534031294200,6.732294189453125,-0.028680151039361952,0.007119969806727021,0.003032509838492842
1783169534041363000,6.742363037109375,-0.016708558216691018,0.013405781211098654,-0.015095022072829305
1783169534051433000,6.752432861328125,-0.0006973346143960953,0.007408152798074297,0.005493197438667993
1783169534061502200,6.762502197265625,-0.008478490009903908,0.0023530613655922935,-0.0003716976979805622
1783169534071571200,6.7725712890625,-0.009376900154352188,0.0030075660518370565,0.009463378569629276
1783169534081641200,6.78264111328125,-0.009525953236222266,0.017575121051305903,0.006083579388627549
1783169534091710200,6.792710205078125,-0.014314941078424452,0.013179347477504051,-0.0003457572558370884
1783169534101779200,6.802779296875,-0.025537761360406874,0.00883195222322829,-0.00745400351708522
1783169534111849000,6.812848876953125,-0.012819149562716483,0.007582669114763848,-0.011322581728873774
1783169534121918200,6.822918212890625,-0.020750527083873746,0.005995925079705193,0.0035845679304155054
1783169534131987200,6.8329873046875,-0.01925415104627609,0.01466485962779261,0.014355616723751881
1783169534142057200,6.84305712890625,-0.011023498317599295,0.0050684532375540586,0.003896666086890036
1783169534152126000,6.8531259765625,-0.0003986439287662506,0.0067736268873559305,-0.003981787087075645
1783169534162195200,6.8631953125,0.0036409868508577347,0.0042305091426474975,-0.010533833370823413
1783169534172265000,6.873264892578125,-0.0083306059718132,-0.001791217098594643,-0.01259615446180105
1783169534182334200,6.883334228515625,-0.01252045887708664,0.010557497374201193,0.0042754180050978904
1783169534192404000,6.893404052734375,-0.00892974090874195,0.01486647401396185,-0.001800144757144153
1783169534202473200,6.90347314453125,0.004987140762805938,0.00492850134416949,-0.007720183597534196
1783169534212542000,6.9135419921875,-0.014165887996554374,0.012068728487635962,0.0005109463384666014
1783169534222612200,6.9236123046875,-0.006384732601046562,0.01818296445107553,0.011678611500264377
1783169534232681000,6.933680908203125,-0.003093289840221405,0.011807812529127113,-0.011623261158901731
1783169534242750200,6.943750244140625,-0.009976619613170623,-0.003951906830398365,0.013667490612406982
1783169534252820000,6.953820068359375,-0.014167057040333747,0.002754248877894133,0.016549303401215
1783169534262889200,6.96388916015625,-0.013120178335905074,0.0010440474265255033,0.013756832271628081
1783169534272958000,6.9739580078125,-0.004890110129117965,-0.0032802546465303746,0.005085354140005074
1783169534283028200,6.9840283203125,0.0027408231407403945,0.013420955947344191,-0.00434489276993554
1783169534293097000,6.994096923828125,-0.011474164694547652,0.011073812865884974,0.007077276875893585
1783169534303166200,7.004166259765625,-0.012072715109586714,0.001621769682667218,0.005304539573838701
1783169534313236000,7.014236083984375,-0.015215104788541793,-0.0009058171327691525,0.009274508358957245
1783169534323305200,7.02430517578125,-0.008930325430631637,-0.005103264256031252,0.0034906300111790184
1783169534333375200,7.034375244140625,-0.0032446810096502304,-0.008040628315601497,0.017763081371458246
1783169534343444200,7.0444443359375,-0.012221768191456794,0.0024901591481873765,-0.0030589948449749496
1783169534353513000,7.054512939453125,-0.012521627920866012,0.004976482371473684,0.004499327563110273
1783169534363583000,7.0645830078125,-0.01341886902153492,0.02448047085981816,0.010381412438221741
1783169534373652200,7.07465234375,-0.012820318606495856,0.004184076185035519,0.00958165977061144
1783169534383721200,7.08472119140625,-0.012072130587697029,0.009364652594132349,0.013647767565207322
1783169534393791200,7.094791259765625,-0.025389292800426483,0.010080436180671677,0.0014310420166933908
1783169534403860000,7.10485986328125,-0.009825812965631484,0.012960777389956638,-0.0077068389171268785
1783169534413929200,7.11492919921875,-0.005035656079649925,0.01848847760313656,0.0053424193322367496
1783169534423999000,7.1249990234375,-0.011470657563209533,0.017809254034166222,-0.0006252317843434866
1783169534434068200,7.135068115234375,-0.017456746235489845,0.023097925893659704,0.005395819745108019
1783169534444137200,7.14513720703125,-0.011172551399469375,0.01048781140516512,-0.003377067226154031
1783169534454207200,7.155207275390625,-0.0032417584002017974,0.00610487904662732,0.010944359533628448
1783169534464276000,7.16527587890625,-0.012370236751437187,0.016139078632509334,0.022014619602402672
1783169534474346200,7.17534619140625,-0.008030161720514297,0.015929984192783013,0.018443661213875747
1783169534484415000,7.1854150390625,-0.006385317122936249,0.003547728209989145,-0.0009957353223697281
1783169534494484200,7.195484130859375,-0.008930325430631637,0.01292598920436576,0.02280289075312903
1783169534504554000,7.205553955078125,-0.009529460367560387,0.0032751811791909857,0.01838363127246266
1783169534514623200,7.215623291015625,-0.01626315253674984,0.016106144477287306,0.005288569111505058
1783169534524692000,7.22569189453125,-0.014467501291632651,0.0035490342510864138,0.007996152136346791
1783169534534762200,7.23576220703125,-0.03167699476778507,0.003120127614797093,-0.0017645437208004295
1783169534544831000,7.2458310546875,-0.01776245118379593,0.018846095401770433,0.0017541855819232296
1783169534554900200,7.255900146484375,-0.014919921234250068,0.0069634960368042806,0.000506445976573741
1783169534564970000,7.265969970703125,-0.02748889542818069,0.007350230332068167,0.004506621528643882
1783169534575037700,7.27603759765625,-0.006838321587443351,-0.004123190010385588,-0.006173344597889809
1783169534585106700,7.286106689453125,-0.020604981133341787,0.020005786830908617,0.002396634504193207
1783169534595176700,7.2961767578125,-0.017612229058146477,0.003867584981233813,0.009083234987000468
1783169534605245700,7.30624560546875,0.006629062750935554,0.011209755304432474,-0.013193386277655372
1783169534615314700,7.316314697265625,-0.007734978166222572,0.0012344508655136451,0.009098862956039374
1783169534625384400,7.326384521484375,-0.013570844712853431,-0.0019847258101217445,0.015515303586312802
1783169534635453700,7.33645361328125,-0.010577508115768432,0.004702693231659941,-0.0050244565489119845
1783169534645523500,7.3465234375,-0.01267243456840515,0.015171073850570246,-0.0030874959953187497
1783169534655592700,7.3565927734375,0.0031897359520196913,0.019095896311220713,0.0075891719207866115
1783169534665661700,7.36666162109375,-0.019107436051964757,0.010572813674341887,0.011876918542850761
1783169534675731700,7.376731689453125,-0.01641395918428898,0.0015378451257245613,-0.0018850237287348136
1783169534685800400,7.386800537109375,-0.00743570295870304,0.004829598413803615,-0.012281145112321246
1783169534695869700,7.39686962890625,-0.024493805265426636,0.009373415855900383,0.01097077832474024
1783169534705939500,7.406939453125,-0.0018985270977020263,-0.004083858080417849,0.003062119525467278
1783169534716008700,7.4170087890625,-0.0011497545570135115,0.004928094918793067,0.018797599492879815
1783169534726077400,7.427077392578125,-0.00698737466931343,0.015626183507195673,0.013697269262740154
1783169534736147700,7.437147705078125,-0.012075637719035148,0.016291077156714164,0.009483484067674726
1783169534746216400,7.447216552734375,-0.0063911623418331145,0.019569742634356953,-0.010423372433404438
1783169534756285700,7.45728564453125,0.005129764103889465,0.007906937199644744,0.010065649603493512
1783169534766355500,7.46735546875,-0.015369418567419052,0.006693583921086974,0.012179469127912306
1783169534776424700,7.4774248046875,-0.013873627051711081,-0.0033857745473505926,-0.004567343306512339
1783169534786494700,7.48749462890625,-0.00893500160574913,0.0022138949234969912,0.03089737956426106
1783169534796563700,7.497563720703125,-0.0066904375493526454,0.007299075533566065,0.017371786207152764
1783169534806632400,7.507632568359375,-0.008935586127638817,0.00668825929199811,0.02082248720838688
1783169534816702700,7.51770263671875,-0.011929507246613501,0.0017323036853224038,0.015106081181316403
1783169534826771500,7.527771484375,-0.017316460981965064,-0.00427243488850072,-0.0022107280021649786
1783169534836840700,7.5378408203125,-0.016268997755646705,0.002582212212658487,-0.0024294407952518667
1783169534846910700,7.54791064453125,-0.016718495088815687,0.015688905445905402,0.020197277115285395
1783169534856979700,7.557979736328125,-0.007590601259469985,-0.003241237810393795,0.013591236763622146
1783169534867048400,7.56804833984375,-0.015969722548127174,-0.005765687387250363,0.006754618509497959
1783169534877118500,7.578118408203125,-0.009684943190217017,0.009909842553851194,0.0015025032426405232
1783169534887187700,7.588187744140625,-0.017915011397004126,0.019699995117634532,0.010068841641000472
1783169534897257500,7.598257568359375,-0.018363924208283422,-0.0027754560627043247,-0.012130615884350845
1783169534907326700,7.60832666015625,-0.005196984121203422,-0.0062448400731664145,-0.00965921281062765
1783169534917395700,7.618395751953125,-0.003998129725456237,0.004403710285085253,-0.006881807961076265
1783169534927465700,7.6284658203125,0.002286649632453918,0.01716165401274338,0.024081817797897382
1783169534937534500,7.638534423828125,-0.01103109710216522,0.004479122742009349,-0.003575741878210101
1783169534947603700,7.648603759765625,-0.02599368843436241,0.00417588374542538,0.00554097182835103
1783169534957673500,7.658673583984375,-0.0014525368958711623,0.0036994755724444983,-0.010798184537078486
1783169534967742700,7.66874267578125,-0.025843466308712957,0.014462701818929053,0.003512296137004159
1783169534977811500,7.6788115234375,-0.012077975806593894,0.002261305128643289,0.023393639170913957
1783169534987881700,7.6888818359375,0.0006406359910964965,0.01699439398732502,0.004102396100817714
1783169534997950500,7.698950439453125,-0.01746609858572483,0.0010714012243319302,-0.009932801021041814
1783169535008019700,7.709019775390625,-0.01641863535940647,-0.0006179857678711414,0.007419197065185289
1783169535018089500,7.71908935546875,-0.0237502934217453,0.012525217250594868,-0.002446379371965304
1783169535028158700,7.72915869140625,-0.01073182189464569,0.00636246140373405,0.0020426094602211376
1783169535038228500,7.739228515625,-0.012975801429152488,0.0044368362365523354,0.004624877613451098
1783169535048297700,7.749297607421875,0.00109013332426548,0.01118053834310267,0.009137708545528584
1783169535058366500,7.759366455078125,-0.000855155524611473,0.018801402310095725,0.0172373210563499
1783169535068436700,7.769436767578125,-0.0045966801404953,0.01770753809220623,-0.0016632718784792813
1783169535078505500,7.77950537109375,-0.011928338202834128,-0.0012944374244427308,-0.0024729020527098325
1783169535088574700,7.78957470703125,-0.017316460981965064,0.011789788248669355,-0.00794584900450427
1783169535098644700,7.799644775390625,-0.02000935332775116,0.012706469268747604,0.0007454115398228168
1783169535108713700,7.809713623046875,-0.014472177466750145,0.0013434961639810354,0.0032165155027352736
1783169535118782500,7.819782470703125,-0.005195230555534363,-0.00437545687155798,0.005921506994980154
1783169535128852500,7.8298525390625,-0.017915595918893815,0.0008595029061660171,0.0067536458285409025
1783169535138921500,7.83992138671875,-0.023752046987414357,0.01466983263043221,-0.008759881359216523
1783169535148990700,7.84999072265625,-0.014324293428659438,0.010226740183029322,-0.003594617825327441
1783169535159060700,7.860060791015625,0.0036339725881814953,0.013049565351684576,-0.0041422668869025075
1783169535169129700,7.870129638671875,-0.013424129718542099,0.0065237483460921794,0.005594267209945246
1783169535179198500,7.880198486328125,-0.02015782188773155,0.00931518742921762,0.005264640246646013
1783169535189268500,7.8902685546875,-0.011030512580275535,0.01013847737768665,-0.020284149397851434
1783169535199337700,7.900337646484375,-0.017613982623815534,-0.0005966918180929496,0.01894524264401989
1783169535209407500,7.910407470703125,-0.02015782188773155,0.00001505143865942955,0.0008845699904079083
1783169535219476700,7.920476806640625,-0.01551847164928913,0.020186865319125353,-0.011502660136669873
1783169535229545500,7.93054541015625,-0.029735213050246238,0.01617699492352549,0.02871616306765936
1783169535239615700,7.94061572265625,-0.020308044013381002,-0.018862256518704816,0.007089409130037529
1783169535249684500,7.9506845703125,-0.003996960681676864,-0.006502911054040305,0.0015141057738219388
1783169535259753700,7.960753662109375,-0.0159685535043478,0.002880724801775068,-0.0001068236586288549
1783169535269823500,7.970823486328125,-0.013723989447951316,0.021827083973935804,0.000546147799299797
1783169535279892700,7.980892822265625,-0.008486088794469833,0.0084741380617721,0.01151480837383424
1783169535289961500,7.99096142578125,-0.010879705932736397,0.0015006001215660944,0.005125827714288607
1783169535300031700,8.00103173828125,-0.007886369335651398,0.011059103920520282,-0.006401325259532313
1783169535310100500,8.0111005859375,-0.006388239732384681,0.013179612338985316,-0.0069460711196123156
1783169535320169700,8.021169677734376,-0.004892448216676712,-0.012937702475045807,0.0025084665564354507
1783169535330239500,8.031239501953126,-0.002050502789020538,0.008791186387999915,0.0012834856305213179
1783169535340308700,8.041308837890625,-0.014769699108600615,0.009673239052691497,0.0035986409798962993
1783169535350378500,8.05137841796875,-0.016267244189977645,-0.006613792116567492,0.009300626897613982
1783169535360447700,8.06144775390625,-0.011629647517204285,0.021147047554212622,-0.008821523302403511
1783169535370516500,8.0715166015625,-0.02180558909475803,0.006111770011717453,0.004126314690877916
1783169535380586800,8.081586669921874,-0.01926174983084202,-0.006154814569000154,-0.017971392643183936
1783169535390655500,8.091655517578126,-0.012079144850373267,0.0005298371269600466,-0.000481610646127956
1783169535400724700,8.101724853515625,-0.010134440523386001,0.01754226452789735,-0.00032270403216825796
1783169535410794500,8.11179443359375,-0.015521978780627249,0.009582172368909231,-0.0025562820453138555
1783169535420863700,8.12186376953125,-0.010134440523386001,0.0032281454333802683,0.006845704601233592
1783169535430932500,8.131932373046874,-0.01806523352265358,-0.009131428360147402,-0.00406376856539282
1783169535441002500,8.14200244140625,-0.003250526228547096,0.012878871260164305,-0.013488476217113202
1783169535451071500,8.152071533203125,-0.003252279794216156,0.0035032999797957017,-0.0076380080396833356
1783169535461140700,8.162140625,-0.020609657308459282,0.006034782085637562,-0.004593787213799078
1783169535471210800,8.172210693359375,-0.004748071309924125,-0.0072869056051597,0.01164944477128447
1783169535481279500,8.182279541015625,-0.012830255478620529,0.01238392735007219,0.008761926044186111
1783169535491348500,8.192348388671874,-0.021509236496686936,0.002639381193416193,-0.0015711046495765913
1783169535501418500,8.20241845703125,-0.00789279907643795,0.008425129554583691,0.011321733487147139
1783169535511487700,8.21248779296875,-0.016570026528835297,0.012216397896595298,0.02282894307641545
1783169535521556700,8.222556640625,-0.01492459740936756,0.012023510239575989,0.01534008173343609
1783169535531626800,8.232626708984375,-0.011634323692321777,0.008295201298291794,-0.003758619597868528
1783169535541695500,8.242695556640625,-0.016124036327004432,0.004383841107413172,-0.00019797824902343563
1783169535551765800,8.252765869140624,-0.016122867283225057,0.006960194401443004,0.01601797414513421
1783169535561834500,8.26283447265625,-0.02255728424489498,0.0010670675425091757,0.007840914767218054
1783169535571904300,8.272904296875,-0.012832009044289588,0.004571148407016881,0.001573234957869863
1783169535581974300,8.282974365234375,-0.022857143974304196,0.00044832372281234707,-0.0037187054292997343
1783169535592043500,8.29304345703125,-0.028094460105895995,0.0016802995034493505,-0.0037469337266520593
1783169535602112300,8.3031123046875,-0.02106324629485607,-0.0005539121222915128,0.007027774036716437
1783169535612182300,8.313182373046875,-0.01058978307545185,0.006663065485237166,0.021796713951847048
1783169535622251300,8.323251220703124,-0.024954408514499662,0.016780911066848783,0.015799087822111323
1783169535632320300,8.3333203125,-0.02076397108733654,0.02522774099658709,0.009355316226917784
1783169535642390300,8.343390380859375,-0.015676877081394196,0.0017400942661333829,0.015897595743543932
1783169535652459300,8.353459228515625,-0.017922610181570053,-0.0009418748268391937,0.013180245951580582
1783169535662528300,8.3635283203125,-0.012834931653738021,0.019136812843498774,0.0016747705200279596
1783169535672598300,8.373598388671875,0.002877601262927055,0.006944074383703991,0.01004874984268681
1783169535682667300,8.383667236328124,-0.01088905828297138,0.014878365381155162,-0.0014082719208148773
1783169535692736500,8.393736572265626,-0.006099485918879509,0.0038040045259986072,0.015429570664773927
1783169535702806300,8.40380615234375,-0.01268295596241951,-0.009918856977368704,0.008423946811072528
1783169535712875300,8.413875244140625,-0.02495323947072029,0.004731978691648692,0.003441088356095133
1783169535722945300,8.4239453125,-0.006100654962658882,0.008090828699455595,0.0002657108646351844
1783169535733014300,8.43401416015625,0.004822890111804009,-0.0014461665205890311,-0.0053396360033948435
1783169535743083300,8.444083251953124,-0.019569208344817162,-0.0009817821455420925,0.00331665597553947
1783169535753153300,8.4541533203125,-0.014632336464524269,0.009914002705737947,0.010232038554298923
1783169535763222300,8.46422216796875,-0.014035539615154266,0.01120050798547454,-0.01004282470868784
1783169535773291300,8.474291259765625,-0.0029617724150419232,-0.0034556751455180343,-0.010885304556461051
1783169535783361300,8.484361328125,-0.01433423030078411,0.0014005509803071618,-0.0040873458038026
1783169535793430300,8.49443017578125,-0.012088497200608252,0.015283626280375755,0.004851446061074966
1783169535803499300,8.504499267578124,0.003772504276037216,0.0034957651273114605,0.02097430991936708
1783169535813569300,8.5145693359375,-0.010742343288660049,-0.004219681787956506,0.012334236139582936
1783169535823638300,8.52463818359375,-0.0029617724150419232,-0.0009528437454253435,-0.004976042838412104
1783169535833707300,8.534707275390625,-0.0028127193331718443,0.005390118373394944,-0.0034621482687885873
1783169535843777300,8.54477734375,-0.00909925225675106,0.002338137791096233,0.005492040952976094
1783169535853846300,8.55484619140625,-0.004010989207029343,-0.006403834593738429,0.009085174640693004
1783169535863915300,8.564915283203124,-0.01089431897997856,0.00016774864918552338,0.013755518239020601
1783169535873985300,8.5749853515625,-0.016880992174148558,-0.005358741421019658,0.011345194277836708
1783169535884054300,8.58505419921875,-0.008651508489251137,0.0015160260195611044,0.013315397230617235
1783169535894124300,8.595124267578125,-0.009100421300530433,-0.0055379567457130175,-0.003033337530621793
1783169535904193300,8.605193359375,-0.01059679733812809,0.022139022300206125,0.009053293081530137
1783169535914262300,8.61526220703125,-0.01014671548306942,0.011342528538359329,0.022012971068010666
1783169535924332300,8.625332275390624,-0.003711713999509811,0.0037329257508972656,0.018239150476077336
1783169535934401300,8.6354013671875,-0.0040104046851396555,0.027901444584713317,0.0026481318970967547
1783169535944470300,8.64547021484375,-0.014185761740803719,0.0066210484078386795,0.01224856829177006
1783169535954540300,8.655540283203125,-0.004609539622068405,0.004119395184679888,0.010767784832237521
1783169535964609300,8.665609375,-0.018975334104895592,0.004695994062814861,0.009736174478888278
1783169535974678300,8.67567822265625,-0.03019815438687801,0.008668669686606153,-0.0013957012752536684
1783169535984748300,8.685748291015624,-0.02151975789070129,0.003402753081615083,0.005190818100253818
1783169535994817300,8.6958173828125,0.004517185163497924,0.0003981416052673012,0.012087425196595723
1783169536004886300,8.70588623046875,-0.01433773743212223,0.02685699073281139,0.0063619145561067845
1783169536014956300,8.715956298828125,-0.014487375035881996,-0.002088514978159219,-0.001471901466755662
1783169536025025300,8.726025390625,-0.012542670708894728,0.0053249578824266786,0.01113791961914976
1783169536035094300,8.73609423828125,0.01244680911898613,0.011586516194953583,0.0066299406754144
1783169536045164300,8.746164306640624,-0.014338321954011916,0.0025969531240640207,0.004543210087320767
1783169536055233300,8.7562333984375,0.005263619616627693,0.0006108299412997439,-0.012854017663409467
1783169536065302300,8.76630224609375,-0.0034159459233283995,0.01275847801719792,-0.006419972877786494
1783169536075372300,8.776372314453125,-0.011496961048245428,0.005048022370878607,0.001686706411349587
1783169536085441300,8.786441162109375,-0.003865443256497383,0.010460644837026484,-0.0005134568143170327
1783169536095511300,8.79651123046875,-0.025562311279773712,-0.005234649250470101,0.0030721488707815296
1783169536105580300,8.806580322265624,-0.004462240105867385,0.015283320319699123,0.002564185648912098
1783169536115649300,8.816649169921876,-0.012841945916414261,0.015713071772782132,-0.006120830101007595
1783169536125719300,8.82671923828125,-0.00999766240119934,0.0067386925712926305,0.01215761691406369
1783169536135788300,8.836788330078125,-0.022866496324539184,-0.009885260668443516,0.010420577688119374
1783169536145857300,8.846857177734375,-0.0110451256275177,0.013931458186171948,0.012580179432890144
1783169536155927300,8.85692724609375,-0.01777940231859684,-0.0009322621817002073,-0.007125256761553464
1783169536165996300,8.866996337890624,-0.021971008789539337,-0.0002747572541935369,0.0004066674050176516
1783169536176065300,8.877065185546876,-0.0207744924813509,-0.002428962446283549,-0.0014115941057738382
1783169536186135300,8.88713525390625,-0.002070961055159569,-0.0007071481889346614,0.00036746562250191344
1783169536196204300,8.897204345703125,-0.018231822261214257,0.0014091133126756176,0.0006014707411988638
1783169536206273300,8.907273193359375,-0.021972762355208397,0.0008982640139758586,0.003231352312263334
1783169536216343000,8.917343017578125,-0.018531681990623473,-0.007916654876060783,0.005827005103451665
1783169536226412300,8.927412353515624,-0.00521451977789402,0.002213657461479306,-0.005695793638948817
1783169536236481300,8.937481201171876,0.008402502164244652,0.005937587055168114,0.0005062792965036351
1783169536246551300,8.94755126953125,-0.008057634249329567,-0.0026339880656683816,0.017527293004340024
1783169536256620300,8.957620361328125,-0.011949380990862846,0.0052724102778593076,0.029249379461794157
1783169536266689300,8.967689208984375,0.005558218649029731,-0.016572565545793623,0.016259431917924665
1783169536276759300,8.97775927734375,-0.00745966835618019,0.003969679949106649,0.00763379423051374
1783169536286828300,8.987828369140624,-0.01434299812912941,0.019981127313687466,0.006879080572805832
1783169536296897300,8.997897216796876,-0.006561842733621597,-0.002190386183746159,0.004124127300368855
1783169536306967300,9.00796728515625,-0.01359481011033058,0.005172050609346479,0.019163381190015934
1783169536317036300,9.018036376953125,-0.02616319978237152,-0.0014630080575356258,-0.00486080411953153
1783169536327105300,9.028105224609375,-0.013742694148421287,-0.005739256038051099,-0.001879004979901947
1783169536337175300,9.03817529296875,-0.005511456897854805,0.010008813982876017,0.01548039438642445
1783169536347244300,9.048244384765624,-0.002069207489490509,-0.003412146531045437,0.009445535810617729
1783169536357314300,9.058314208984376,0.004215571868419647,0.007193528233282268,0.014302711784513667
1783169536367383300,9.06838330078125,0.004963759887218475,0.0035643688175361603,0.0005509803796885535
1783169536377452300,9.078452392578125,-0.02047112562060356,0.0022907960846088827,-0.022346401990170125
1783169536387522300,9.088522216796875,-0.05110650238096714,0.014132291687629184,-0.017688329926592996
1783169536397591300,9.09859130859375,-0.17286650365591047,0.04481017871573567,-0.05840600717279594
1783169536407660300,9.108660400390624,0.1723421875208616,-0.023907799238129517,0.1103930324150715
1783169536417730300,9.118730224609376,0.29395488927960395,-0.05941543994366657,0.12675515181426888
1783169536427799300,9.12879931640625,-0.36147885797619816,0.01871589315084275,-0.055340002631722014
1783169536437868300,9.138868408203125,0.037594109857082364,0.017758304731640962,-0.06252620607507414
1783169536447938300,9.148938232421875,0.1917190881639719,0.009908746575308032,-0.02242678744973382
1783169536458007300,9.15900732421875,-0.12745792065560818,0.051506712645734656,-0.026501254364009946
