time,seconds_elapsed,z,y,x
1783169527375444200,0.0764443359375,-0.0005936069646850228,-0.002394142560660839,-0.0019124515820294619
1783169527385514000,0.086513916015625,-0.0022519573103636503,0.00025543663650751114,0.003002145793288946
1783169527395583200,0.096583251953125,-0.0017082379199564457,-0.00033831968903541565,0.0007509519346058369
1783169527405652000,0.10665185546875,-0.0009692106395959854,0.0035264594480395317,-0.0034014489501714706
1783169527415722200,0.11672216796875,-0.0026125784497708082,-0.0012914752587676048,-0.0011961355339735746
1783169527425791000,0.126791015625,-0.0010809944942593575,-0.0007990570738911629,0.00040682125836610794
1783169527435860200,0.136860107421875,-0.0014400879153981805,-0.0014854902401566505,-0.0012515562120825052
1783169527445930000,0.146929931640625,-0.00013434002175927162,-0.0004503196105360985,0.00012263492681086063
1783169527455999200,0.156999267578125,0.0005523416912183166,-0.0001315344125032425,0.0004120988305658102
1783169527466069200,0.1670693359375,0.0016506293322890997,0.0007148180156946182,0.00026482599787414074
1783169527476138200,0.17713818359375,0.0005067227757535875,-0.00021303165704011917,0.001544667175039649
1783169527486207000,0.18720703125,0.000011374824680387974,-0.0008260905742645264,-0.00005216407589614391
1783169527496277000,0.197277099609375,0.0020586256869137287,0.00001760246232151985,-0.0003570220433175564
1783169527506346200,0.20734619140625,0.003827497363090515,-0.000501713715493679,-0.0005522319115698338
1783169527516415200,0.217415283203125,0.002856469014659524,0.002501796931028366,0.0010002211201936007
1783169527526485200,0.2274853515625,0.003967539872974157,-0.00046363286674022675,-0.0003374847583472729
1783169527536554000,0.237553955078125,-0.00020184542518109083,0.0007157516665756702,-0.00032591051422059536
1783169527546624300,0.247624267578125,0.0004852500860579312,0.00041960831731557846,-0.0029059809166938066
1783169527556693000,0.25769287109375,0.0021369620226323605,-0.00209667906165123,-0.0021028192713856697
1783169527566761700,0.26776171875,-0.003369123674929142,-0.00042075198143720627,0.001754503115080297
1783169527576831700,0.277831787109375,-0.0016294386005029082,-0.0006849439814686775,-0.0010558136273175478
1783169527586900700,0.287900634765625,-0.0024544857442378998,-0.001956603489816189,-0.0011775202583521605
1783169527596969700,0.2979697265625,-0.0012921345187351108,-0.004044367931783199,0.00004012905992567539
1783169527607039700,0.308039794921875,-0.0012383387656882405,-0.0021692365407943726,0.0017738469177857041
1783169527617108700,0.318108642578125,-0.0003948458470404148,0.0007048356346786022,-0.0022899177856743336
1783169527627177700,0.328177734375,-0.0006220134673640132,-0.003409215249121189,-0.0006946842186152935
1783169527637247700,0.338247802734375,-0.001018450129777193,-0.0005468567833304405,-0.0015537021681666374
1783169527647316700,0.348316650390625,0.0004199231625534594,-0.0019101286306977272,0.002562745939940214
1783169527657386800,0.35838671875,-0.0005199856823310256,-0.0010789604857563972,-0.0010746747720986605
1783169527667455700,0.368455810546875,0.0010773782851174474,0.0026100496761500835,-0.00016440637409687042
1783169527677524700,0.378524658203125,0.0001017153263092041,0.0005397140048444271,-0.0008336792234331369
1783169527687595000,0.388594970703125,-0.00043464533518999815,0.003277710173279047,0.0012382599525153637
1783169527697663700,0.398663818359375,0.0002469365717843175,-0.0014523258432745934,0.0006332634948194027
1783169527707732700,0.408732666015625,0.0026757395826280117,0.0015567801892757416,-0.0030008861795067787
1783169527717802800,0.418802734375,0.0031898480374366045,0.0019272314384579659,0.0017885194392874837
1783169527727872000,0.4288720703125,-0.000486113247461617,-0.0012083742767572403,0.002863637637346983
1783169527737941800,0.438941650390625,0.0008284520590677857,0.0006467723287642002,-0.0023057786747813225
1783169527748010800,0.4490107421875,-0.000878101447597146,0.0034199217334389687,-0.00032518571242690086
1783169527758079700,0.459079833984375,0.0015671536093577743,0.0008671460673213005,-0.0014555545058101416
1783169527768149800,0.469149658203125,0.0006433030357584357,-0.0009565865620970726,-0.0022039024624973536
1783169527778218800,0.47921875,0.00023984455037862062,-0.0007608309388160706,0.0018871052889153361
1783169527788288000,0.4892880859375,-0.0017095893854275346,-0.000746450386941433,0.0008173133246600628
1783169527798357800,0.499357666015625,-0.0019533473532646894,-0.0019249022006988525,-0.0014352616854012012
1783169527808426800,0.5094267578125,-0.0021450950298458338,-0.0020761704072356224,-0.00032126111909747124
1783169527818495700,0.519495849609375,0.00038279721047729254,-0.0017018625512719154,0.001885119709186256
1783169527828565800,0.529565673828125,-0.0005490428302437067,0.0005919178947806358,0.0013508896809071302
1783169527838634800,0.539634765625,-0.001937161316163838,-0.00013779103755950928,0.00005199178121984005
1783169527848704800,0.549704833984375,0.0012296035420149565,0.0001309216022491455,-0.0016915795858949423
1783169527858773800,0.559773681640625,0.000025962362997233868,-0.0011346209794282913,0.0007224262226372957
1783169527868842800,0.5698427734375,0.001656882232055068,0.0016470509581267834,-0.00023498013615608215
1783169527878912800,0.579912841796875,0.0015585520304739475,-0.00005857367068529129,0.0027223369106650352
1783169527888981800,0.589981689453125,0.0017337880562990904,-0.0009360853582620621,-0.0011016959324479103
1783169527899050800,0.60005078125,0.0012071612291038036,0.0014628847129642963,-0.0023251345846801996
1783169527909120800,0.610120849609375,0.0009514978155493736,0.0002202535979449749,0.0016656124498695135
1783169527919189800,0.620189697265625,-0.000631759176030755,0.0006132163107395172,0.000358181307092309
1783169527929259800,0.630259765625,0.0010846481891348958,-0.001542879268527031,0.00007641874253749847
1783169527939328800,0.640328857421875,-0.002346874214708805,0.0013578333891928196,-0.0009432106744498014
1783169527949397800,0.650397705078125,-0.0012816098751500249,-0.001675507053732872,-0.0019224549178034067
1783169527959467800,0.6604677734375,-0.0009925580816343427,-0.002143286168575287,0.0010384744964540005
1783169527969536800,0.670536865234375,-0.0030075060203671455,-0.0005280794575810432,-0.0007783342152833939
1783169527979605800,0.680605712890625,-0.003147182986140251,-0.0006634937599301338,0.0009824775625020266
1783169527989675800,0.69067578125,-0.0005948095349594951,0.0008228165097534657,0.00015077227726578712
1783169527999744800,0.700744873046875,-0.0018465593457221985,-0.00048801954835653305,0.0027439892292022705
1783169528009813800,0.710813720703125,-0.00037809228524565697,-0.004157589748501778,-0.0016776570118963718
1783169528019883800,0.7208837890625,0.00017757550813257694,-0.0008291518315672874,0.0017795104067772627
1783169528029952800,0.730952880859375,0.0000758427195250988,-0.00042807962745428085,0.001735568162985146
1783169528040022800,0.741022705078125,-0.0006080372259020805,0.00038458406925201416,-0.00019713607616722584
1783169528050091800,0.751091796875,-0.0015926078194752336,0.0007454422302544117,0.003518239827826619
1783169528060160800,0.761160888671875,0.0011619592551141977,-0.0007662968710064888,-0.0018383197020739317
1783169528070230800,0.771230712890625,0.0014823375968262553,0.0035203266888856888,0.0003310912288725376
1783169528080299800,0.7812998046875,0.002627910580486059,0.0010265358723700047,-0.0006630460266023874
1783169528090368800,0.79136865234375,0.0010047138202935457,-0.0006738919764757156,0.002539405133575201
1783169528100438800,0.801438720703125,0.0014392423909157515,-0.0009448733180761337,0.0016304408200085163
1783169528110507800,0.8115078125,-0.00005745410453528166,-0.00014272984117269516,-0.0016657537780702114
1783169528120577800,0.821577880859375,0.00315921101719141,-0.0007093120366334915,0.0019085024250671268
1783169528130646800,0.831646728515625,0.0015575860161334276,0.0008832579478621483,0.0003691953606903553
1783169528140715800,0.8417158203125,0.0022585694678127766,0.0008643525652587414,-0.0012168120592832565
1783169528150785800,0.851785888671875,-0.0007247035391628742,0.0004891129210591316,0.0023736616130918264
1783169528160854800,0.861854736328125,0.000178926857188344,0.0003198692575097084,0.001893711625598371
1783169528170923800,0.871923828125,-0.0006644962122663856,-0.00031502824276685715,0.000004731584340333939
1783169528180993800,0.881993896484375,-0.0006536854198202491,-0.0021432796493172646,0.002564176917076111
1783169528191062800,0.892062744140625,0.0011556661920621991,-0.0008692238479852676,-0.0024233912117779255
1783169528201132800,0.9021328125,-0.0030779214575886726,0.0005931197665631771,0.0005486004520207644
1783169528211201800,0.912201904296875,0.000868350500240922,-0.0002540312707424164,0.0009219755884259939
1783169528221270800,0.922270751953125,-0.0012338599190115929,0.00013278285041451454,-0.0034062929917126894
1783169528231340800,0.9323408203125,0.001735032070428133,-0.00015137623995542526,0.0008214754052460194
1783169528241409800,0.942409912109375,-0.0018204754451289773,0.00010695494711399078,0.0008106299210339785
1783169528251478800,0.952478759765625,0.0004368199734017253,-0.0021612588316202164,-0.00005090259946882725
1783169528261548800,0.962548828125,0.0010970261646434665,-0.0011185118928551674,0.0012775720097124577
1783169528271617800,0.97261767578125,0.0023713489063084126,-0.0005275560542941093,0.0006024606991559267
1783169528281686800,0.982686767578125,0.0010776049457490444,0.00006779422983527184,0.002147579099982977
1783169528291756800,0.9927568359375,-0.00009871332440525293,-0.00008800067007541656,-0.0007017366588115692
1783169528301825800,1.00282568359375,0.001418589148670435,0.001437329687178135,-0.00008385581895709038
1783169528311895800,1.012895751953125,-0.000020050560124218464,0.000012005679309368134,0.0016064525116235018
1783169528321964800,1.02296484375,0.0013729296624660492,-0.0006378116086125374,-0.0005743904039263725
1783169528332033800,1.03303369140625,0.0008826417615637183,0.0016599642112851143,0.000632287934422493
1783169528342103800,1.043103759765625,-0.0017802331130951643,-0.0006238287314772606,-0.0009118602611124516
1783169528352172800,1.0531728515625,-0.001297668321058154,-0.0010491358116269112,0.0017113534267991781
1783169528362241800,1.06324169921875,-0.002453568624332547,-0.001552625559270382,0.00007828325033187866
1783169528372311800,1.073311767578125,-0.0012772504705935717,0.0017246603965759277,-0.0015206784009933472
1783169528382380800,1.083380859375,-0.0021997694857418537,0.0009341239929199219,0.001809020759537816
1783169528392449800,1.09344970703125,-0.0008056048536673188,-0.0007990612648427486,-0.0006725126877427101
1783169528402519800,1.103519775390625,-0.0006956777069717646,-0.0007560965605080128,0.0004411572590470314
1783169528412588800,1.1135888671875,-0.0032802755013108253,0.0005302103236317635,0.0005918920505791903
1783169528422658600,1.123658447265625,-0.0017904872074723244,0.0017806370742619038,0.0007148096337914467
1783169528432727800,1.133727783203125,-0.000661573139950633,-0.0013909214176237583,0.003437625477090478
1783169528442796800,1.143796875,-0.0010097759077325463,-0.0037526972591876984,-0.00036789244040846825
1783169528452866800,1.15386669921875,-0.00006675056647509336,0.0010524443350732327,-0.00013752910308539867
1783169528462935800,1.163935791015625,-0.0010641023982316256,-0.0019087432883679867,0.0007232856005430222
1783169528473004800,1.1740048828125,0.0023367542307823896,0.0014694761484861374,0.0005658927839249372
1783169528483074600,1.184074462890625,0.002111097564920783,0.0003207302652299404,0.0005665307398885489
1783169528493143800,1.194143798828125,0.0014341219794005156,0.0003063492476940155,0.0006283160764724016
1783169528503213800,1.2042138671875,0.004448041319847107,0.0005363151431083679,0.0004535652697086334
1783169528513282800,1.21428271484375,0.0001435740850865841,-0.002723128069192171,0.0021145790815353394
1783169528523351600,1.2243515625,0.0006894224206916988,0.0016938531771302223,0.0009536780416965485
1783169528533421800,1.234421875,-0.001368135679513216,0.00128985196352005,0.0012455603573471308
1783169528543490800,1.24449072265625,-0.00004532025195658207,0.0005860654637217522,-0.003292165230959654
1783169528553559800,1.254559814453125,-0.0005683650961145759,0.0010646358132362366,-0.000850312877446413
1783169528563629800,1.2646298828125,0.0009662411757744849,0.0002877870574593544,0.0020412206649780273
1783169528573698800,1.27469873046875,-0.0012364593567326665,-0.003359411843121052,0.0003426563926041126
1783169528583767800,1.284767822265625,-0.0039041254203766584,-0.00010606413707137108,0.0004643388092517853
1783169528593838000,1.294838134765625,-0.000665455125272274,0.0017938348464667797,-0.002071789465844631
1783169528603906800,1.30490673828125,-0.0017031470779329538,-0.00023975130170583725,0.001466185785830021
1783169528613976800,1.314976806640625,-0.0008482723496854305,-0.00007756520062685013,-0.00020974152721464634
1783169528624045800,1.3250458984375,0.0008759049233049154,-0.00007660314440727234,-0.004157516174018383
1783169528634115000,1.335114990234375,-0.0009020213037729263,-0.00012027937918901443,0.002294523874297738
1783169528644184800,1.345184814453125,0.0009974560234695673,-0.0009623365476727486,-0.002643033629283309
1783169528654254000,1.355254150390625,-0.00014344218652695417,-0.0016603507101535797,0.0027373505290597677
1783169528664322800,1.36532275390625,0.0033582602627575397,0.002014686819165945,0.0004519275389611721
1783169528674392800,1.375392822265625,-0.001383498078212142,0.0009622056968510151,-0.0019651572220027447
1783169528684461800,1.3854619140625,0.00014708004891872406,0.0006547467783093452,-0.002769842743873596
1783169528694531800,1.39553173828125,-0.00006064656190574169,-0.0010869605466723442,0.0012054576072841883
1783169528704600800,1.405600830078125,-0.0004370301030576229,-0.00221427995711565,-0.0010732172522693872
1783169528714669800,1.415669921875,0.0020242633763700724,0.00016871700063347816,0.00045037735253572464
1783169528724739800,1.42573974609375,0.000012372736819088459,0.0009989505633711815,0.0005303414072841406
1783169528734808800,1.435808837890625,-0.0002376980846747756,0.00010039983317255974,-0.00219646911136806
1783169528744877800,1.4458779296875,-0.002157531213015318,-0.0005627265200018883,0.00023916224017739296
1783169528754947800,1.45594775390625,-0.0025482168421149254,-0.0007619308307766914,-0.001479375408962369
1783169528765016800,1.466016845703125,0.0005603582831099629,0.0010124491527676582,0.0007152101024985313
1783169528775085800,1.4760859375,0.00016035151202231646,0.0004121726378798485,-0.0011388827115297318
1783169528785155800,1.48615576171875,-0.001953033497557044,0.0006746295839548111,0.003846589010208845
1783169528795224800,1.496224853515625,0.0004107883432880044,0.000043993350118398666,-0.00016919150948524475
1783169528805294800,1.506294921875,-0.0004473217995837331,0.0011032982729375362,0.0002664134372025728
1783169528815363800,1.51636376953125,-0.002693165559321642,-0.0027066199108958244,0.0016403382178395987
1783169528825432800,1.526432861328125,0.0009380880510434508,0.000817218329757452,0.00014964072033762932
1783169528835502800,1.5365029296875,0.0017125352751463652,0.00046861032024025917,-0.00010522385127842426
1783169528845571800,1.54657177734375,-0.00018310232553631067,-0.0012683598324656487,0.0015258791390806437
1783169528855640800,1.556640869140625,0.0004989331937395036,0.0007042433135211468,0.0013226799201220274
1783169528865710800,1.5667109375,0.0012206298997625709,-0.0016551855951547623,0.0002470766194164753
1783169528875779800,1.57677978515625,-0.0002608866197988391,-0.0016868775710463524,0.0022279357071965933
1783169528885848800,1.586848876953125,-0.0016764363972470164,-0.0008557075634598732,0.001962874783203006
1783169528895918800,1.5969189453125,-0.0002356662880629301,0.0006026388145983219,-0.0002435541246086359
1783169528905988000,1.606988037109375,-0.0008078889222815633,-0.0018352018669247627,0.000256258063018322
1783169528916057900,1.617057861328125,0.0007447340176440775,-0.0011584926396608353,-0.0008806455880403519
1783169528926126800,1.627126953125,-0.0020021409727633,-0.00041815079748630524,0.0013181234244257212
1783169528936195800,1.63719580078125,0.0010072309523820877,-0.00020456500351428986,0.000717314425855875
1783169528946265900,1.647265869140625,-0.0016467085806652904,0.0006118211895227432,0.0008160886354744434
1783169528956334800,1.6573349609375,-0.0004842388443648815,-0.0004039080813527107,-0.0011160345748066902
1783169528966403800,1.66740380859375,0.0011942042037844658,-0.002265718299895525,0.001026888145133853
1783169528976473900,1.677473876953125,0.0003880653530359268,-0.00024624308571219444,0.000735538313165307
1783169528986542800,1.68754296875,-0.0016691387863829732,-0.0008741873316466808,-0.001014486886560917
1783169528996611800,1.69761181640625,-0.0008243840420618653,0.0007087960839271545,-0.0008328594267368317
1783169529006681900,1.707681884765625,0.0010849934769794345,0.0009120451286435127,-0.0020773299038410187
1783169529016750800,1.717750732421875,0.000006146845407783985,-0.0008136830292642117,-0.00017103925347328186
1783169529026820900,1.72782080078125,0.0002915797522291541,-0.000317924190312624,-0.002297414932399988
1783169529036889900,1.737889892578125,0.0005981096182949841,0.001583040226250887,0.0009559027384966612
1783169529046958800,1.747958740234375,0.0017557342071086168,0.0004999162629246712,0.00040699075907468796
1783169529057028900,1.75802880859375,0.0006779529503546655,0.00018060347065329552,-0.0007887682877480984
1783169529067097900,1.768097900390625,0.0016138589708134532,0.0013775783590972424,-0.0012596291489899158
1783169529077166800,1.778166748046875,0.0009073223336599767,0.001758144237101078,-0.000266003655269742
1783169529087236900,1.78823681640625,0.0002168923383578658,-0.0009016948752105236,-0.0028268289752304554
1783169529097305900,1.798305908203125,-0.0014105652226135135,-0.00046546896919608116,-0.0017208182252943516
1783169529107374800,1.808374755859375,-0.0006884750910103321,-0.00107933534309268,0.0014266199432313442
1783169529117444900,1.81844482421875,0.0008447067812085152,-0.0007704081945121288,0.0006151548586785793
1783169529127513900,1.828513916015625,-0.001465613255277276,-0.0009144744835793972,-0.00042511639185249805
1783169529137583900,1.838583984375,-0.0004355026176199317,-0.00019195815548300743,-0.0010674705263227224
1783169529147652900,1.84865283203125,-0.0008049292955547571,-0.0009749894961714745,-0.0005394669715315104
1783169529157721900,1.858721923828125,-0.000685353297740221,0.0015683290548622608,0.00005122204311192036
1783169529167791900,1.8687919921875,-0.0022551822476089,-0.002846729476004839,0.00019456748850643635
1783169529177860900,1.87886083984375,-0.00003517093136906624,0.0004393449053168297,0.00025954865850508213
1783169529187929900,1.888929931640625,-0.002099007600918412,0.0000932137481868267,-0.0020136567763984203
1783169529197999900,1.898999755859375,0.00043552269926294684,0.00027191173285245895,0.0002582860179245472
1783169529208068900,1.90906884765625,0.0004629449686035514,0.0011881771497428417,-0.0033032100182026625
1783169529218137900,1.919137939453125,-0.00032535067293792963,-0.00015645287930965424,-0.00014017359353601933
1783169529228207900,1.929207763671875,-0.001573998830281198,-0.0012400774285197258,0.001197784673422575
1783169529238276900,1.93927685546875,-0.0014072851045057178,0.0013458519242703915,0.0024990050587803125
1783169529248347000,1.949346923828125,-0.0002544778399169445,0.000854861456900835,0.003946672193706036
1783169529258415900,1.959415771484375,-0.0015522361500188708,0.000306516420096159,-0.000001996522769331932
1783169529268484900,1.96948486328125,0.0022439127787947655,0.001814668532460928,-0.003113826736807823
1783169529278555000,1.979554931640625,0.0003080609021708369,-0.00018696393817663193,-0.0010349629446864128
1783169529288623900,1.989623779296875,0.002074012067168951,0.0013865530490875244,0.00034757587127387524
1783169529298692900,1.99969287109375,0.00041992258047685027,0.0025703278370201588,0.0019236346706748009
1783169529308763000,2.009762939453125,0.001405410934239626,-0.0007154755294322968,-0.0014601994771510363
1783169529318831900,2.019831787109375,-0.0005621324526146054,-0.001919490285217762,0.0016541010700166225
1783169529328900900,2.02990087890625,0.0008556556422263384,0.0013753683306276798,-0.00042457040399312973
1783169529338971000,2.039970947265625,-0.0013148206053301692,-0.0014939215034246445,0.001960823079571128
1783169529349039900,2.050039794921875,-0.00022943282965570688,-0.00004750629886984825,0.0014249170199036598
1783169529359110000,2.06010986328125,-0.0010283810552209616,-0.0003636237233877182,-0.0003348998725414276
1783169529369179000,2.070178955078125,0.00035576376831158996,-0.0008108438923954964,-0.000823009992018342
1783169529379247900,2.080247802734375,0.00034031737595796585,-0.0018140561878681183,-0.004161548800766468
1783169529389317600,2.090317626953125,-0.0009062308818101883,0.00038114842027425766,0.0007453418802469969
1783169529399387000,2.100386962890625,-0.00025988160632550716,-0.0022452608682215214,-0.0000277739018201828
1783169529409455900,2.110455810546875,-0.002434347290545702,0.0018257605843245983,-0.0008187470957636833
1783169529419526000,2.12052587890625,-0.0008830557344481349,0.0002483702264726162,0.0007642358541488647
1783169529429595000,2.130594970703125,-0.001409385004080832,0.001433203462511301,0.0028095445595681667
1783169529439663900,2.140663818359375,0.0005935783847235143,-0.003126927185803652,-0.002061643172055483
1783169529449734000,2.15073388671875,-0.001344011863693595,0.0007169130258262157,0.0004477160982787609
1783169529459803000,2.160802978515625,-0.00020790740381926298,0.0005677756853401661,0.001272763591259718
1783169529469873000,2.170872802734375,-0.0011600980069488287,0.0013719401322305202,0.0020123212598264217
1783169529479942000,2.18094189453125,-0.0013449215330183506,-0.0005857497453689575,0.0011161675211042166
1783169529490011000,2.191010986328125,-0.000859218998812139,-0.001542077399790287,-0.00025396887212991714
1783169529500081000,2.201080810546875,-0.0004762563621625304,0.0007069623097777367,-0.0013834154233336449
1783169529510150000,2.21114990234375,0.0005503462161868811,0.0022684643045067787,-0.0008929937612265348
1783169529520219000,2.221218994140625,-0.0024009686894714832,-0.000479651615023613,0.000493447994813323
1783169529530289000,2.231288818359375,-0.0024963712785393,0.0008712774142622948,-0.0033416375517845154
1783169529540358000,2.24135791015625,0.00036759208887815475,-0.0008259546011686325,-0.0011842106468975544
1783169529550427000,2.251427001953125,-0.001069950289092958,-0.00010532047599554062,-0.00023876619525253773
1783169529560497000,2.261496826171875,-0.0011381272925063968,0.0008286498486995697,0.0010896185413002968
1783169529570565600,2.271565673828125,0.0018460667924955487,0.000729498453438282,-0.0007718116976320744
1783169529580636000,2.281635986328125,0.00011208269279450178,-0.0005544116720557213,-0.0007904535159468651
1783169529590704600,2.29170458984375,0.00006789225153625011,-0.00019968580454587936,-0.0020149166230112314
1783169529600774000,2.30177392578125,0.0027273250743746758,-0.000521395355463028,0.0013169641606509686
1783169529610844000,2.311843994140625,0.002729171421378851,-0.00011639995500445366,0.0017282849876210093
1783169529620913000,2.321912841796875,-0.00017580448184162378,-0.0004519582726061344,0.00043212459422647953
1783169529630981600,2.331981689453125,0.0007815425051376224,0.001862991601228714,-0.0007957154884934425
1783169529641051600,2.3420517578125,0.0016617171932011843,0.001811326015740633,-0.00064444774761796
1783169529651120600,2.35212060546875,-0.00034689868334680796,-0.0015033804811537266,-0.00008237781003117561
1783169529661190000,2.36218994140625,0.0011788263218477368,0.0011078491806983948,0.00010750559158623219
1783169529671260000,2.372260009765625,-0.0012922787573188543,0.0002345442771911621,0.0006375673692673445
1783169529681329000,2.382328857421875,-0.0008097139652818441,0.0008872849866747856,0.00031665642745792866
1783169529691397600,2.392397705078125,0.002074926858767867,-0.0008677174337208271,-0.00039607612416148186
1783169529701467600,2.402467529296875,0.00014200445730239153,0.001677731517702341,-0.00010845460928976536
1783169529711537000,2.412536865234375,0.00007340917363762856,-0.00019461056217551231,-0.0016550151631236076
1783169529721606700,2.422606689453125,0.0012254926841706038,-0.0013834456913173199,0.0011460974346846342
1783169529731676000,2.432676025390625,-0.0009977774461731315,-0.002398108597844839,0.0008647607173770666
1783169529741744600,2.44274462890625,-0.002338945399969816,-0.001325919758528471,-0.0010732216760516167
1783169529751815000,2.45281494140625,-0.0006166828097775578,-0.0006666523404419422,0.0019094881135970354
1783169529761883600,2.462883544921875,0.0007729547214694321,0.002174940425902605,-0.001322790514677763
1783169529771953000,2.472952880859375,0.000629620801191777,0.00016669975593686104,-0.003003808669745922
1783169529782022700,2.483022705078125,-0.000598895363509655,-0.0011070896871387959,0.0004186194855719805
1783169529792092000,2.493091796875,0.00009276531636714935,-0.0004919739440083504,-0.0009130719117820263
1783169529802160600,2.50316064453125,-0.0007234935183078051,0.0017445487901568413,0.0003050582017749548
1783169529812231000,2.51323095703125,0.0018493894021958113,0.000053144991397857666,-0.00039422581903636456
1783169529822299600,2.523299560546875,-0.0008071135962381959,-0.0010600565001368523,0.0020180654246360064
1783169529832370000,2.533369873046875,-0.001236050040461123,-0.002026219852268696,0.0031465364154428244
1783169529842438700,2.543438720703125,-0.0010142087703570724,0.0005570468492805958,0.0026706294156610966
1783169529852508000,2.5535078125,0.00295709865167737,0.00015848781913518906,-0.0023561010602861643
1783169529862577700,2.56357763671875,0.0000031203962862491608,0.0008485130965709686,-0.0014189344365149736
1783169529872647000,2.57364697265625,0.0013869855320081115,-0.0012246626429259777,-0.00018171104602515697
1783169529882715600,2.583715576171875,-0.000822372967377305,0.00121399387717247,0.0012803643476217985
1783169529892785700,2.59378564453125,0.0016085520619526505,-0.0014035305939614773,0.00008157803677022457
1783169529902854700,2.603854736328125,-0.000036216224543750286,-0.0005872719921171665,0.0027359507512301207
1783169529912924000,2.613923828125,-0.002312134485691786,-0.001091009471565485,0.0010685520246624947
1783169529922994000,2.623993896484375,-0.0009115784196183085,0.0008182101882994175,0.0006395166274160147
1783169529933063000,2.63406298828125,0.0012856591492891312,-0.0010701785795390606,-0.0018082777969539165
1783169529943133000,2.6441328125,0.0005644750781357288,-0.0007679094560444355,0.00109696458093822
1783169529953201700,2.65420166015625,-0.00007930281572043896,-0.00039363326504826546,-0.004348700866103172
1783169529963270700,2.664270751953125,0.0005031305481679738,0.0005054501816630363,-0.00039710220880806446
1783169529973340700,2.674340576171875,-0.0021341675892472267,-0.003045388963073492,0.0008451836183667183
1783169529983410000,2.684409912109375,-0.00019165792036801577,-0.000969721470028162,-0.0007274129893630743
1783169529993478700,2.694478759765625,-0.00007772655226290226,-0.0018399697728455067,0.0009905567858368158
1783169530003549000,2.704548828125,-0.0022945418022572994,-0.0010892250575125217,-0.000626248074695468
1783169530013617700,2.71461767578125,-0.0008928467286750674,0.00149111682549119,-0.0009925756603479385
1783169530023687000,2.72468701171875,-0.001915234257467091,0.001154226716607809,-0.0015851287171244621
1783169530033756700,2.734756591796875,0.0007663448923267424,-0.000030211172997951508,0.0005351442378014326
1783169530043826000,2.744825927734375,0.0019080420024693012,-0.0004706983454525471,0.00024619116447865963
1783169530053895700,2.754895751953125,-0.00236943899653852,-0.002171776257455349,0.0025455281138420105
1783169530063965000,2.76496484375,-0.0001558195799589157,0.0003965767100453377,-0.0021432333160191774
1783169530074033700,2.77503369140625,0.0008275779546238482,-0.001046204473823309,-0.002002984518185258
1783169530084104000,2.78510400390625,0.0014851123560220003,-0.0005822819657623768,0.0014082586858421564
1783169530094172700,2.795172607421875,0.002619121689349413,0.00028011947870254517,0.0013359531294554472
1783169530104242000,2.805241943359375,0.0009471892262808979,-0.0022030118852853775,-0.001836404437199235
1783169530114311700,2.815311767578125,-0.0008271097904071212,0.0005316473543643951,0.002600688487291336
1783169530124381000,2.825380859375,-0.0014343104558065534,-0.000309645663946867,-0.000862752553075552
1783169530134450700,2.83545068359375,0.0011730771511793137,-0.0001719561405479908,0.0000582975335419178
1783169530144519700,2.845519775390625,-0.001946815988048911,-0.0011274977587163448,0.0003046398051083088
1783169530154588700,2.855588623046875,0.00000887818168848753,0.0034818830899894238,-0.0042894259095191956
1783169530164658700,2.86565869140625,0.0008749382104724646,-0.0009259148500859737,-0.001384449889883399
1783169530174727700,2.875727783203125,0.00027011591009795666,0.0007149991579353809,-0.0028911179397255182
1783169530184797000,2.885796875,-0.0008097958052530885,0.0012015588581562042,-0.0020133398938924074
1783169530194867000,2.895866943359375,0.0006717087235301733,-0.00012376578524708748,0.0019323279848322272
1783169530204935700,2.905935791015625,-0.000023908913135528564,-0.0009283064864575863,-0.0008157878182828426
1783169530215004700,2.916004638671875,-0.0002516235690563917,0.0022307285107672215,-0.0007671336643397808
1783169530225074700,2.92607470703125,0.0008349461713805795,0.00044667674228549004,0.0012318352237343788
1783169530235144000,2.93614404296875,0.0012720964150503278,0.00034908391535282135,0.0011915473733097315
1783169530245212700,2.946212646484375,0.0006047082715667784,0.001745112705975771,0.00026450096629559994
1783169530255283000,2.956282958984375,0.0008220942690968513,0.0004964331164956093,0.0005643155891448259
1783169530265351700,2.9663515625,-0.00006420572753995657,0.0007909787818789482,0.000306255416944623
1783169530275422000,2.976421875,0.0008433236507698894,0.0011708727106451988,0.002937963465228677
1783169530285490700,2.98649072265625,0.0004861937486566603,0.000012131407856941223,-0.0034072839189320803
1783169530295560000,2.996559814453125,0.0014321639901027083,0.0009378455579280853,-0.00041717872954905033
1783169530305629700,3.006629638671875,-0.0012264697579666972,-0.001688830554485321,0.0021280040964484215
1783169530315699000,3.016698974609375,0.00016638031229376793,0.00027886033058166504,0.0028445206116884947
1783169530325767700,3.026767578125,0.0004992754547856748,0.001648257952183485,-0.002599247032776475
1783169530335838000,3.036837890625,-0.00030971039086580276,0.00026764674112200737,-0.0012924328912049532
1783169530345906700,3.04690673828125,-0.00019785761833190918,0.0013145352713763714,-0.000347277382388711
1783169530355976000,3.056975830078125,-0.004105542786419392,-0.0022575417533516884,0.0026457987260073423
1783169530366045700,3.067045654296875,-0.0016245422884821892,0.00042399484664201736,0.0001272473018616438
1783169530376115000,3.077114990234375,0.0027844756841659546,0.00024849502369761467,-0.0009758993983268738
1783169530386184700,3.087184814453125,-0.0007181135006248951,0.0007478375919163227,-0.000618502963334322
1783169530396254000,3.09725390625,-0.0008559732232242823,-0.002074616029858589,-0.0015995800495147705
1783169530406322700,3.10732275390625,-0.00007193861529231071,0.0011227745562791824,-0.0012629562988877296
1783169530416392700,3.117392822265625,-0.0014683142071589828,0.0017752074636518955,0.0006360795814543962
1783169530426461700,3.127461669921875,-0.000015293597243726254,0.0012750658206641674,0.0015751102473586798
1783169530436531000,3.137531005859375,0.0006861520814709365,-0.0010579852387309074,-0.0006305931601673365
1783169530446600700,3.1476005859375,-0.0009351804619655013,0.0006214040331542492,0.002576119266450405
1783169530456669700,3.157669677734375,0.002275211736559868,0.0007855980657041073,-0.001716357422992587
1783169530466738700,3.16773876953125,0.000610203598625958,0.0007107635028660297,-0.00008916575461626053
1783169530476808700,3.17780859375,0.00031132937874644995,-0.001493568066507578,0.0017116760136559606
1783169530486877700,3.187877685546875,0.0008772511500865221,0.0011243196204304695,0.0009577351156622171
1783169530496947700,3.19794775390625,-0.0005295173032209277,-0.0006542867049574852,0.003036449197679758
1783169530507017000,3.208016845703125,-0.0008107471512630582,0.001434696838259697,-0.003007860854268074
1783169530517085700,3.218085693359375,0.0016654992941766977,0.0002920469269156456,0.0009163690265268087
1783169530527156000,3.228156005859375,-0.000523352762684226,0.0008494462817907333,-0.000874074175953865
1783169530537224700,3.238224609375,-0.0010576315689831972,0.0003234539180994034,-0.0019160076044499874
1783169530547293700,3.248293701171875,-0.0005926436278969049,0.0005167997442185879,-0.001194024458527565
1783169530557363700,3.25836376953125,0.000266088405624032,0.00022121891379356384,-0.0008377002086490393
1783169530567433500,3.26843359375,-0.0009379266994073987,0.00007554423063993454,-0.0017130814958363771
1783169530577502500,3.27850244140625,0.0005612496752291918,-0.0010275575332343578,-0.0019687062595039606
1783169530587572500,3.288572509765625,-0.0006326453294605017,-0.0014448747970163822,0.0018800940597429872
1783169530597641500,3.298641357421875,-0.0004677348770201206,-0.002500687725841999,0.0011409202124923468
1783169530607711500,3.30871142578125,0.0006899412255734205,0.00019123591482639313,-0.0021531437523663044
1783169530617780500,3.318780517578125,-0.000776314758695662,0.00027163466438651085,-0.001694684149697423
1783169530627849500,3.328849365234375,-0.0006748483283445239,-0.00043223844841122627,-0.00011303299106657505
1783169530637919500,3.33891943359375,-0.0006137394811958075,0.0014656344428658485,0.00016397656872868538
1783169530647988500,3.348988525390625,0.0011237068101763725,-0.0011184308677911758,-0.0006562771741300821
1783169530658057500,3.359057373046875,-0.0005965320160612464,-0.0006364290602505207,0.0009083435870707035
1783169530668127500,3.36912744140625,0.00028550683055073023,0.001481049694120884,-0.00007036817260086536
1783169530678196500,3.379196533203125,-0.00010012008715420961,-0.0016000051982700825,-0.0023517722729593515
1783169530688265500,3.389265380859375,-0.00013607286382466555,-0.000989608932286501,-0.0007272439543157816
1783169530698335500,3.39933544921875,0.00015714147593826056,0.0020748060196638107,-0.00000674673356115818
1783169530708404500,3.409404541015625,-0.0001581767573952675,0.000659069512039423,-0.0016539120115339756
1783169530718473500,3.419473388671875,-0.0006446619518101215,-0.0008385591208934784,0.0005388183053582907
1783169530728543500,3.42954345703125,0.000056548393331468105,-0.0009405585005879402,-0.0004891615826636553
1783169530738612500,3.439612548828125,0.0005285049555823207,0.0018274863250553608,-0.0019323299638926983
1783169530748682500,3.4496826171875,-0.0005958816036581993,-0.002213327679783106,0.0009108607191592455
1783169530758751500,3.45975146484375,0.002082513179630041,0.000050187576562166214,-0.0009192484430968761
1783169530768820500,3.469820556640625,-0.0004757194546982646,0.000444069504737854,0.0017108895117416978
1783169530778890500,3.479890380859375,0.0019693742506206036,-0.000007693655788898468,-0.0007183656562119722
1783169530788959500,3.48995947265625,-0.00020669458899646997,-0.0008481875993311405,0.003962406422942877
1783169530799028500,3.500028564453125,-0.0005196335259824991,-0.00012423377484083176,0.003778795711696148
1783169530809098500,3.510098388671875,0.0003964939387515187,0.0001604580320417881,-0.001740339444950223
1783169530819167500,3.52016748046875,0.0006513277185149491,0.0005283043719828129,-0.0014767320826649666
1783169530829237500,3.530237548828125,0.0009264322579838336,0.0007125949487090111,-0.00053450558334589
1783169530839306500,3.540306396484375,0.0005117646651342511,-0.0005288999527692795,0.0012462025042623281
1783169530849375500,3.55037548828125,0.0006965880165807903,0.00036538951098918915,-0.001010294072329998
1783169530859445500,3.560445556640625,-0.00023287208750844002,-0.0015594465658068657,0.0016677174717187881
1783169530869514500,3.570514404296875,0.00048698042519390583,-0.00203508697450161,0.00045491382479667664
1783169530879583500,3.58058349609375,-0.0032481830567121506,-0.00004544435068964958,0.0013981270603835583
1783169530889653500,3.590653564453125,-0.0010931533761322498,0.0014445940032601357,-0.002158791059628129
1783169530899722500,3.600722412109375,0.0004955221666023135,0.0005730795674026012,0.0003805637825280428
1783169530909791500,3.61079150390625,0.0014454717747867107,0.001999734900891781,-0.001025585224851966
1783169530919861500,3.620861572265625,0.0001558493822813034,-0.0015779603272676468,0.0005025528371334076
1783169530929930500,3.630930419921875,0.001118315733037889,-0.00015636533498764038,-0.0008077223319560289
1783169530939999500,3.64099951171875,-0.0009578511817380786,-0.00024783145636320114,-0.0008957833051681519
1783169530950069500,3.651069580078125,0.000745506607927382,0.0023024114780128,-0.0016475934535264969
1783169530960138500,3.661138427734375,-0.0009592226706445217,0.00012154737487435341,0.0016849155072122812
1783169530970208500,3.67120849609375,0.0005060486728325486,-0.0023488011211156845,0.0005376257468014956
1783169530980277500,3.681277587890625,-0.0013327846536412835,0.00031969090923666954,-0.0019861762411892414
1783169530990346500,3.691346435546875,-0.00003635778557509184,-0.0024824868887662888,-0.0014127977192401886
1783169531000416500,3.70141650390625,-0.0018443778390064836,-0.001160494051873684,-0.003885276149958372
1783169531010485500,3.711485595703125,0.00040253112092614174,0.0001401938498020172,-0.0010684509761631489
1783169531020554500,3.721554443359375,-0.00038692308589816093,-0.00016102660447359085,-0.0005528107285499573
1783169531030624500,3.73162451171875,-0.0013621726538985968,-0.0002502426505088806,-0.0010428321547806263
1783169531040693500,3.741693603515625,0.0029422882944345474,-0.000280989333987236,-0.0009326587896794081
1783169531050762500,3.751762451171875,0.0007632898050360382,0.0008175643160939217,0.0005222263280302286
1783169531060832500,3.76183251953125,0.0024298480711877346,0.0006440686993300915,0.00015258695930242538
1783169531070901500,3.771901611328125,-0.0006394450319930911,-0.0008968356996774673,-0.0023832751903682947
1783169531080971500,3.781971435546875,-0.0003286659484729171,0.0025596674531698227,-0.0035488056018948555
1783169531091040300,3.792040283203125,-0.00016328366473317146,-0.0008678212761878967,0.00009652925655245781
1783169531101109500,3.802109619140625,0.0015578774036839604,0.0010027815587818623,0.00023217895068228245
1783169531111179500,3.812179443359375,0.00007423036731779575,-0.0007082996889948845,-0.0010330886580049992
1783169531121248500,3.82224853515625,0.0002705854130908847,-0.00017965864390134811,0.0012088373769074678
1783169531131317500,3.8323173828125,0.001526798470877111,0.0013223644345998764,0.0017190990038216114
1783169531141387500,3.842387451171875,-0.003890295047312975,-0.00011960091069340706,0.0013484470546245575
1783169531151456500,3.85245654296875,0.000040797283872962,-0.0015928619541227818,0.0020587120670825243
1783169531161525500,3.862525390625,-0.0016371894162148237,-0.0018730447627604008,-0.002680568490177393
1783169531171595500,3.872595458984375,-0.00029868469573557377,-0.0018874253146350384,0.0013775562401860952
1783169531181664500,3.88266455078125,-0.002815872896462679,-0.0005293320864439011,0.0041570281609892845
1783169531191734500,3.892734619140625,0.0007359852315858006,0.000469086691737175,0.0005843974649906158
1783169531201803500,3.902803466796875,0.0012604997027665377,-0.0010718409903347492,0.0011206995695829391
1783169531211872500,3.91287255859375,-0.003963557071983814,-0.00020950892940163612,-0.0009632240980863571
1783169531221942500,3.922942626953125,-0.000012224889360368252,-0.000018293969333171844,0.0011462660040706396
1783169531232011500,3.933011474609375,0.0003049576189368963,0.002607049886137247,-0.004137712065130472
1783169531242080500,3.94308056640625,-0.00138186477124691,0.0008216919377446175,-0.0008435784839093685
1783169531252150500,3.953150634765625,0.00031776458490639925,0.0001662876456975937,-0.00040628714486956596
1783169531262219500,3.963219482421875,0.0017336622113361955,-0.001057981513440609,0.000572854420170188
1783169531272288500,3.97328857421875,-0.0012821012642234564,-0.00037248432636260986,-0.0014695238787680864
1783169531282358500,3.983358642578125,0.0001064592506736517,0.0004931949079036713,0.0002797984052449465
1783169531292427500,3.993427490234375,-0.0008386964909732342,-0.00026846909895539284,-0.00010822410695254803
1783169531302496500,4.00349658203125,-0.0017575345700606704,0.00053739408031106,0.0008068801835179329
1783169531312566500,4.01356640625,0.0007761967717669904,0.0007059718482196331,-0.00022589368745684624
1783169531322635500,4.023635498046875,0.001999395666643977,0.0017539868131279945,0.000881248852238059
1783169531332705500,4.03370556640625,0.0003815253730863333,-0.0008314098231494427,0.00035660620778799057
1783169531342774300,4.043774169921875,0.001473827287554741,0.0009197583422064781,-0.0027388513553887606
1783169531352843500,4.053843505859375,-0.0005531045608222485,-0.000685329083353281,-0.0014522781129926443
1783169531362913500,4.06391357421875,-0.0011931218905374408,0.0007992470636963844,-0.000835880171507597
1783169531372982500,4.073982421875,0.003937724512070417,0.0029241833835840225,-0.0005642380565404892
1783169531383051500,4.084051513671875,0.00026571459602564573,-0.0014884262345731258,0.0005197804421186447
1783169531393121500,4.09412158203125,0.0005176495760679245,-0.0004937355406582355,-0.000490622827783227
1783169531403190300,4.104190185546875,0.0017522332491353154,0.00007774028927087784,-0.0008928198367357254
1783169531413259500,4.114259521484375,0.0009085438214242458,0.0006764186546206474,-0.0007324977777898312
1783169531423329500,4.12432958984375,0.0006853229715488851,0.001831581350415945,-0.0013524312525987625
1783169531433398500,4.1343984375,0.00036068365443497896,0.00008215056732296944,-0.0015737400390207767
1783169531443468500,4.144468505859375,0.0019111213041469455,-0.0011727469973266125,0.00025802431628108025
1783169531453537500,4.15453759765625,0.0009308117441833019,-0.0022910074330866337,-0.0008277464658021927
1783169531463606500,4.1646064453125,0.0010087941773235798,0.00002602953463792801,-0.001133074052631855
1783169531473676500,4.174676513671875,-0.0001680566929280758,0.0005972771905362606,-0.0006180186755955219
1783169531483745500,4.18474560546875,-0.0004882707726210356,0.00171257508918643,-0.0008287562523037195
1783169531493814500,4.194814453125,0.00017272576224058867,-0.0011814823374152184,-0.0010513963643461466
1783169531503884500,4.204884521484375,0.001548273372463882,0.00015894928947091103,0.000044791726395487785
1783169531513953500,4.21495361328125,0.0009245610563084483,-0.000830414704978466,0.0004463964141905308
1783169531524022500,4.2250224609375,0.0008247600053437054,-0.0017391834408044815,0.0017502011032775044
1783169531534092500,4.235092529296875,-0.0019180296221747994,0.001862742006778717,0.0022830995731055737
1783169531544161500,4.24516162109375,-0.0034019583836197853,-0.00042593805119395256,0.0023986990563571453
1783169531554231300,4.255231201171875,-0.00043306639418005943,-0.0002094232477247715,-0.0006626045797020197
1783169531564300500,4.265300537109375,0.001429716357961297,-0.000712566077709198,0.0011604712344706059
1783169531574369500,4.27536962890625,-0.0010233211796730757,0.0006507057696580887,0.0021016323007643223
1783169531584439300,4.285439208984375,-0.0014568407787010074,0.0010315217077732086,0.0029324630741029978
1783169531594508300,4.29550830078125,-0.0006397828692570329,-0.002322463784366846,-0.0006207264959812164
1783169531604577300,4.305577392578125,-0.00017891975585371256,-0.001711537130177021,0.0017952724592760205
1783169531614647300,4.315647216796875,0.0018024721648544073,-0.0012366948649287224,0.0010567777790129185
1783169531624716300,4.32571630859375,-0.001304730772972107,-0.0007966263219714165,0.0006184636149555445
1783169531634785500,4.33578564453125,-0.0022048791870474815,-0.0031045209616422653,-0.0014907601289451122
1783169531644855300,4.345855224609375,0.00017389911226928234,0.00017946679145097733,0.000009877607226371765
1783169531654924300,4.35592431640625,0.0006279680528678,0.0018668454140424728,0.0026027311105281115
1783169531664994600,4.36599462890625,0.002570363227277994,0.001854585949331522,-0.0028563267551362514
1783169531675063300,4.376063232421875,-0.0011093264911323786,-0.001361181028187275,-0.0004509594291448593
1783169531685132300,4.38613232421875,0.0026732818223536015,-0.0013807066716253757,-0.0009959633462131023
1783169531695202300,4.396202392578125,-0.00020639423746615648,-0.0012478153221309185,0.00010152533650398254
1783169531705271600,4.406271484375,0.0013273865915834904,0.0002152896486222744,0.002414821879938245
1783169531715340300,4.41634033203125,0.00020885898265987635,-0.0033592055551707745,0.0006925556808710098
1783169531725410600,4.42641064453125,-0.001144101144745946,0.00044546183198690414,-0.0025295463856309652
1783169531735479300,4.436479248046875,-0.0008801817893981934,0.0005069808103144169,-0.0015609550755470991
1783169531745548300,4.44654833984375,-0.0012769512832164764,-0.0005009728483855724,0.0005238882731646299
1783169531755618300,4.456618408203125,0.0004383906489238143,0.0005754772573709488,-0.00014722836203873158
1783169531765687600,4.4666875,-0.0020761373452842236,-0.0019847420044243336,0.000285235233604908
1783169531775756300,4.47675634765625,-0.0008137988625094295,0.0014065266586840153,0.0016021684277802706
1783169531785826600,4.48682666015625,-0.0016646415460854769,-0.00033809104934334755,-0.0010484503582119942
1783169531795895300,4.496895263671875,0.002035820856690407,0.0008909581229090691,0.0014522578567266464
1783169531805965300,4.50696533203125,-0.0004716442199423909,-0.00009934371337294579,0.000017052283510565758
1783169531816034300,4.517034423828125,0.00014035007916390896,0.0003272942267358303,-0.00022556190378963947
1783169531826103600,4.527103515625,0.00027121801394969225,-0.0005294517613947392,-0.001673941733315587
1783169531836173300,4.53717333984375,-0.00043079128954559565,-0.0009643458761274815,-0.0006456950213760138
1783169531846242300,4.5472421875,0.00023059791419655085,0.001278428826481104,-0.0008040904067456722
1783169531856311300,4.557311279296875,0.002638095524162054,0.0004525827243924141,0.0003804839216172695
1783169531866381300,4.56738134765625,0.0008532812353223562,0.00003300933167338371,0.0019041284685954452
1783169531876450300,4.5774501953125,0.0007893653819337487,-0.0023081754334270954,0.0003784035798162222
1783169531886519600,4.58751953125,-0.001469202688895166,-0.0004029725678265095,0.00008743046782910824
1783169531896589300,4.59758935546875,-0.0008042113622650504,0.00025615980848670006,0.0015159500762820244
1783169531906658300,4.607658203125,-0.00039714272134006023,0.002704508136957884,-0.0009898138232529163
1783169531916727300,4.617727294921875,0.0013517552288249135,0.002659500576555729,0.0006411056965589523
1783169531926797300,4.62779736328125,0.0005387702840380371,-0.0009946143254637718,-0.0031663153786212206
1783169531936866300,4.6378662109375,0.000821065332274884,-0.0005908794701099396,-0.0010594886261969805
1783169531946936300,4.647936279296875,-0.001652087434194982,-0.0019268309697508812,0.00045319972559809685
1783169531957005300,4.65800537109375,0.00079322699457407,-0.0003262711688876152,0.0035398034378886223
1783169531967074300,4.66807421875,0.0025765164755284786,0.00028831325471401215,-0.0004401109181344509
1783169531977144600,4.67814453125,0.00053706782637164,0.0008779373019933701,-0.0007346565835177898
1783169531987213300,4.68821337890625,-0.0004922343650832772,0.0018855324015021324,-0.0007563242688775063
1783169531997282300,4.6982822265625,-0.001181460334919393,0.0017987131141126156,-0.0005896100774407387
1783169532007352300,4.708352294921875,-0.00004616822116076946,-0.00101475790143013,0.00019017537124454975
1783169532017421600,4.718421630859375,-0.00006134819705039263,-0.0010110298171639442,-0.0003475169651210308
1783169532027490300,4.728490234375,-0.00018305552657693624,-0.0006116954609751701,0.0020503343548625708
1783169532037560600,4.738560546875,-0.00019131135195493698,-0.0011171633377671242,-0.003167597111314535
1783169532047629300,4.74862939453125,0.0012782649137079716,0.0016089663840830326,0.0017325683729723096
1783169532057699300,4.75869921875,0.0013136849738657475,-0.0013165157288312912,-0.0004815836437046528
1783169532067768300,4.768768310546875,-0.0010906452080234885,-0.0008345223031938076,-0.0006297086365520954
1783169532077837600,4.778837646484375,-0.000699693220667541,-0.001066484022885561,-0.0008225217461585999
1783169532087907300,4.7889072265625,-0.0013700085692107677,0.00020519830286502838,-0.001844092272222042
1783169532097976300,4.798976318359375,0.0008880856330506504,0.0014611450023949146,-0.0017058742232620716
1783169532108045300,4.80904541015625,0.00008032855112105608,-0.002713632769882679,0.00032040500082075596
1783169532118115300,4.819115234375,-0.002260323613882065,0.0023711402900516987,0.0019246932351961732
1783169532128184300,4.829184326171875,-0.0004299075808376074,-0.0014391690492630005,0.0018178706523030996
1783169532138253600,4.839253662109375,0.0007131211459636688,-0.0008101304993033409,-0.0019446432124823332
1783169532148323300,4.8493232421875,0.0021567665971815586,-0.0016674986109137535,0.0006186377722769976
1783169532158392300,4.859392333984375,-0.0024142831098288298,-0.0021681729704141617,0.0008644475601613522
1783169532168462300,4.86946240234375,-0.0021399869583547115,0.0007858755998313427,-0.0007459542248398066
1783169532178531300,4.87953125,0.0011578055564314127,-0.0007688780315220356,-0.001942512346431613
1783169532188600300,4.889600341796875,0.0025953147560358047,0.002018481492996216,-0.0012107824441045523
1783169532198670300,4.89967041015625,-0.0019935781601816416,-0.0028543048538267612,-0.0000890588853508234
1783169532208739300,4.9097392578125,0.0014860788360238075,0.0007378691807389259,-0.0015585070941597223
1783169532218808300,4.919808349609375,0.0014746272936463356,-0.001115424558520317,0.00281067518517375
1783169532228878300,4.92987841796875,0.0002686812076717615,-0.0012490074150264263,0.0003419427666813135
1783169532238947300,4.939947265625,0.0015360795659944415,0.0006951000541448593,-0.002004035981371999
1783169532249016300,4.950016357421875,0.0027080620639026165,0.0018453109078109264,-0.0020097875967621803
1783169532259086300,4.96008642578125,-0.0010342119494453073,-0.001173648051917553,0.0027498137205839157
1783169532269155300,4.9701552734375,-0.0014604232273995876,0.0008609308861196041,-0.0014206096529960632
1783169532279224300,4.980224365234375,0.0033985143527388573,-0.0008629332296550274,0.0009722404647618532
1783169532289294600,4.990294677734375,0.002230244455859065,0.000443809200078249,0.0004247440956532955
1783169532299363300,5.00036328125,-0.001625480130314827,0.0009069330990314484,-0.0008077668026089668
1783169532309433300,5.010433349609375,0.0004875758895650506,0.0013010939583182335,0.0008003886323422194
1783169532319502300,5.02050244140625,0.00019223126582801342,0.0007008174434304237,-0.0011415882036089897
1783169532329571300,5.0305712890625,-0.00039479683618992567,-0.0009290352463722229,0.001793747884221375
1783169532339641300,5.040641357421875,0.00006246787961572409,-0.00021743867546319962,0.0032646118197590113
1783169532349710600,5.050710693359375,0.00036764610558748245,-0.0006970656104385853,0.0002990216016769409
1783169532359779300,5.060779296875,-0.00044941180385649204,-0.00017029279842972755,0.0011597552802413702
1783169532369849300,5.070849365234375,0.0008293804130516946,0.000008682254701852798,0.000040514860302209854
1783169532379918300,5.08091845703125,0.0011545524466782808,-0.0017143827863037586,0.000273275189101696
1783169532389987600,5.090987548828125,0.0011610174551606178,-0.00006760237738490105,-0.00022580591030418873
1783169532400057300,5.101057373046875,-0.000007045106031000614,0.0005901986733078957,0.0003837915137410164
1783169532410126300,5.111126220703125,0.0015004907036200166,0.0004892619326710701,-0.0034959777258336544
1783169532420195300,5.1211953125,0.00005732371937483549,-0.001000510063022375,0.0006146111991256475
1783169532430265300,5.131265380859375,0.0002602167660370469,-0.0005118236877024174,0.0019034100696444511
1783169532440334300,5.141334228515625,0.0023926098365336657,-0.0008865301497280598,-0.00099171232432127
1783169532450404400,5.151404296875,0.0008449673186987638,-0.0001588626764714718,0.0007119518704712391
1783169532460473300,5.161473388671875,0.0014604238094761968,0.00014287326484918594,0.0012139577884227037
1783169532470542300,5.171542236328125,-0.0006340454565361142,-0.0010846308432519436,-0.0000684782862663269
1783169532480612400,5.1816123046875,0.0029471071902662516,0.0018858588300645351,0.001886281999759376
1783169532490681300,5.191681396484375,0.0009511793032288551,-0.0008361791260540485,-0.003109366400167346
1783169532500750300,5.201750244140625,-0.0001718756975606084,-0.00016799243167042732,0.0007964256219565868
1783169532510820400,5.2118203125,-0.0004588112933561206,0.00027135899290442467,-0.0017346851527690887
1783169532520889300,5.221889404296875,-0.0018737486097961664,-0.0015731467865407467,0.00033672130666673183
1783169532530958300,5.231958251953125,-0.00038067984860390425,0.00041500525549054146,0.004075498785823584
1783169532541028400,5.2420283203125,0.0005210665403865278,-0.0020356359891593456,-0.00028675911016762257
1783169532551097300,5.252097412109375,0.002979077398777008,-0.0017993096262216568,0.0012060513254255056
1783169532561167400,5.26216748046875,0.0024991759564727545,0.0015211193822324276,-0.0010480480268597603
1783169532571236000,5.272236083984375,-0.001426934264600277,0.0005482141859829426,0.0006217015907168388
1783169532581305000,5.28230517578125,0.00031983316875994205,0.000168713741004467,0.0004430036060512066
1783169532591375000,5.292375,-0.0008402876555919647,0.0010762936435639858,-0.000070920679718256
1783169532601444000,5.302444091796875,-0.0007835624273866415,-0.002910724375396967,0.0040476578287780285
1783169532611513000,5.31251318359375,-0.0009096796857193112,-0.001472774427384138,0.001843045698478818
1783169532621583000,5.3225830078125,-0.0007645372534170747,-0.00019738683477044106,0.0022140240762382746
1783169532631652000,5.332652099609375,0.00031754979863762856,0.0028268443420529366,-0.00102710141800344
1783169532641721000,5.34272119140625,-0.0022976743057370186,-0.001828627660870552,-0.000784487696364522
1783169532651791000,5.352791015625,0.00018339580856263638,0.00037661613896489143,-0.0004739188589155674
1783169532661860400,5.3628603515625,-0.000382792204618454,0.0019699851982295513,0.000360449543222785
1783169532671929000,5.37292919921875,0.0007441288325935602,0.0007745507173240185,0.0006034588441252708
1783169532681999000,5.3829990234375,0.0006043128669261932,-0.00048645632341504097,0.000806125346571207
1783169532692068000,5.393068115234375,-0.0007983229588717222,-0.00015617161989212036,0.0017591867363080382
1783169532702138000,5.40313818359375,-0.0007863386999815702,0.0028715762309730053,-0.0021093208342790604
1783169532712207000,5.41320703125,-0.0015235529281198978,-0.0006651869043707848,0.002056238241493702
1783169532722276000,5.423276123046875,0.0008546499884687364,-0.0021056905388832092,0.00023223902098834515
1783169532732346000,5.43334619140625,-0.00022095825988799334,-0.0012031667865812778,0.0005215813871473074
1783169532742415000,5.4434150390625,0.000022188411094248295,0.00004452373832464218,-0.0014566148165613413
1783169532752484000,5.453484130859375,0.0008380718645639718,-0.00012504775077104568,-0.001412021927535534
1783169532762554000,5.46355419921875,0.00027428066823631525,0.00048002228140830994,0.001587230246514082
1783169532772623000,5.473623046875,0.0007543975370936096,-0.0011992016807198524,-0.0006130626425147057
1783169532782692000,5.483692138671875,-0.0016642854316160083,0.00012012850493192673,-0.00012517161667346954
1783169532792762000,5.49376220703125,-0.0013915273593738675,0.0009082038886845112,0.002536036306992173
1783169532802831000,5.5038310546875,-0.0007688802434131503,0.0004895548336207867,0.0020340303890407085
1783169532812901000,5.513901123046875,0.0015281053492799401,0.000001471489667892456,-0.0012016082182526588
1783169532822970000,5.52397021484375,0.0011720407055690885,-0.0010829679667949677,-0.0007635182701051235
1783169532833039000,5.5340390625,0.0012012382503598928,0.0017698719166219234,0.00003996887244284153
1783169532843109000,5.544109130859375,-0.003915759269148111,-0.00000752229243516922,0.00036087981425225735
1783169532853178000,5.55417822265625,-0.0007883119396865368,-0.00029573217034339905,-0.00043405499309301376
1783169532863247000,5.5642470703125,0.0014878918882459402,-0.0010318299755454063,-0.0007371227256953716
1783169532873317000,5.574317138671875,-0.0019919162150472403,-0.001700608991086483,-0.0005826102569699287
1783169532883386000,5.58438623046875,0.0016827135113999248,0.0001628044992685318,0.0003609478008002043
1783169532893455000,5.594455078125,0.0009323152480646968,0.0040566157549619675,-0.0014637713320553303
1783169532903525000,5.604525146484375,0.001435652608051896,0.0019769533537328243,-0.0016573830507695675
1783169532913594000,5.614593994140625,-0.0011112346546724439,-0.0019988715648651123,0.0009659866336733103
1783169532923663000,5.6246630859375,-0.00003664917312562466,0.0016792197711765766,-0.00014535035006701946
1783169532933733000,5.634733154296875,-0.0006126508815214038,0.0008576354011893272,-0.0012123077176511288
1783169532943802000,5.644802001953125,0.00010613619815558195,0.0018866807222366333,-0.000545185524970293
1783169532953872100,5.6548720703125,-0.0008238827576860785,0.0019680364057421684,0.0007308295462280512
1783169532963941000,5.664941162109375,-0.00007393653504550457,-0.0001337304711341858,0.00003121723420917988
1783169532974010000,5.675010009765625,-0.00013926264364272356,0.0006871763616800308,0.0009666816331446171
1783169532984080100,5.685080078125,0.0006485003978013992,-0.0021075448021292686,0.0011171502992510796
1783169532994149000,5.695149169921875,-0.0007916371105238795,0.00031383009627461433,-0.0022122308146208525
1783169533004218000,5.705218017578125,0.000269099953584373,-0.0008036326617002487,-0.0013762644957751036
1783169533014288100,5.7152880859375,-0.0014946310548111796,-0.002026217058300972,0.0012901276350021362
1783169533024357000,5.725357177734375,-0.0022030319087207317,0.0032439124770462513,-0.0018300320953130722
1783169533034426000,5.735426025390625,-0.001607718295417726,-0.00004892610013484955,-0.0007765237241983414
1783169533044496100,5.74549609375,-0.0007416581502184272,-0.001489163376390934,-0.0003275149501860142
1783169533054565000,5.755565185546875,0.00024155958089977503,-0.000389857217669487,0.0005244405474513769
1783169533064634000,5.765634033203125,0.00240484531968832,-0.00042075011879205704,-0.0008548104669898748
1783169533074704100,5.7757041015625,0.000981159508228302,-0.0018476694822311401,-0.0001470369752496481
1783169533084773000,5.785773193359375,-0.000010069110430777073,-0.0007200874388217926,0.001588012557476759
1783169533094843100,5.795843017578125,0.00045320112258195877,0.0005201422609388828,-0.0015896549448370934
1783169533104912100,5.805912109375,-0.0012030188227072358,-0.001894545741379261,0.0006418076809495687
1783169533114981000,5.815981201171875,-0.0014601200819015503,-0.0016079824417829514,-0.0005247672088444233
1783169533125051100,5.826051025390625,0.0003375135129317641,0.0018312237225472927,-0.00021344353444874287
1783169533135120100,5.8361201171875,-0.00045110832434147596,-0.0001662829890847206,0.0017707531806081533
1783169533145189000,5.846189208984375,-0.003059674520045519,-0.0009724218398332596,0.00024795765057206154
1783169533155259100,5.856259033203125,-0.0012384257279336452,-0.0017674248665571213,0.0003712219186127186
1783169533165328100,5.866328125,0.0021485823672264814,0.000004909001290798187,0.0005310114938765764
1783169533175397000,5.876397216796875,-0.00046528398524969816,0.0005383286625146866,0.00019548716954886913
1783169533185467000,5.886466796875,-0.0004817955195903778,-0.0004430459812283516,-0.0019403679762035608
1783169533195536100,5.8965361328125,0.0011050959583371878,-0.001692991703748703,0.0003188997507095337
1783169533205605000,5.906605224609375,-0.0005194323603063822,0.0015094592235982418,0.002937053330242634
1783169533215675100,5.916675048828125,-0.00011265685316175222,-0.0010079126805067062,0.0007212227210402489
1783169533225744100,5.926744140625,0.00019200879614800215,-0.0017274990677833557,-0.003390697995200753
1783169533235814100,5.936814208984375,0.0008238184382207692,0.0014680572785437107,0.0018550193635746837
1783169533245883100,5.946883056640625,0.0025641941465437412,0.0010877582244575024,0.0008278382010757923
1783169533255952100,5.9569521484375,-0.0013017626479268074,0.0009395349770784378,0.0003642849624156952
1783169533266022100,5.967022216796875,-0.0011720668990164995,0.00022181309759616852,-0.0021132538095116615
1783169533276091100,5.977091064453125,0.000361426267772913,0.002796947956085205,0.0021371329203248024
1783169533286160100,5.98716015625,-0.0006851961370557547,-0.0011104419827461243,0.0016180828679352999
1783169533296230100,5.997230224609375,0.0002313791774213314,0.0004172883927822113,0.0003694386687129736
1783169533306299100,6.007299072265625,-0.0005430681630969048,-0.0007539698854088783,-0.00008755992166697979
1783169533316368100,6.0173681640625,0.001543738879263401,0.0009378124959766865,0.001232583075761795
1783169533326438100,6.027438232421875,0.0008635675767436624,0.0016965470276772976,0.0009548154193907976
1783169533336507100,6.037507080078125,-0.0002935298252850771,-0.0017523886635899544,0.0014139304403215647
1783169533346577200,6.0475771484375,-0.00200461084023118,-0.0007475782185792923,0.0006328253075480461
1783169533356646100,6.057646240234375,-0.002133701927959919,-0.0019262013956904411,0.00022791791707277298
1783169533366715100,6.067715087890625,0.0013084335951134562,0.0011233841069042683,-0.0002522501163184643
1783169533376785200,6.07778515625,0.000054707168601453304,0.0010437988676130772,-0.0007745907641947269
1783169533386854100,6.087854248046875,0.0015543331392109394,-0.0012971200048923492,-0.0021589016541838646
1783169533396923100,6.097923095703125,0.00016285700257867575,0.0018825973384082317,0.001805081614293158
1783169533406993200,6.1079931640625,0.00018922227900475264,-0.0006444761529564857,0.0003264946863055229
1783169533417062100,6.118062255859375,-0.001133081503212452,0.0018878793343901634,-0.0005300270859152079
1783169533427131100,6.128131103515625,-0.0010867426171898842,-0.0021742405369877815,0.00037038768641650677
1783169533437201000,6.138200927734375,-0.0006655772449448705,-0.0005005476996302605,-0.003377765417098999
1783169533447270100,6.148270263671875,-0.0022536199539899826,-0.0026302775368094444,0.0015773121267557144
1783169533457339100,6.158339111328125,-0.00041377299930900335,0.00006690295413136482,-0.00004745670594274998
1783169533467409200,6.1684091796875,-0.0005916721420362592,-0.002130737528204918,0.0007853137794882059
1783169533477478100,6.17847802734375,-0.0012404617154970765,-0.0005287639796733856,-0.0008813720196485519
1783169533487548200,6.188548095703125,-0.00003618025220930576,0.0009021526202559471,-0.0006536715663969517
1783169533497617000,6.198616943359375,-0.0006443599704653025,-0.0014487076550722122,0.0015004950109869242
1783169533507686100,6.20868603515625,-0.00004701304715126753,-0.0005983598530292511,0.001300225267186761
1783169533517756200,6.218756103515625,0.0027631716802716255,0.00005498342216014862,-0.0023318801540881395
1783169533527825200,6.2288251953125,0.0005050775362178683,-0.0017168177291750908,0.001790160546079278
1783169533537894000,6.238893798828125,-0.002196146175265312,-0.003045220859348774,0.0009878759738057852
1783169533547964200,6.248964111328125,0.001118690357543528,0.0025394284166395664,-0.0029631899669766426
1783169533558033200,6.259033203125,-0.0007013133727014065,-0.002007783390581608,-0.0011254928540438414
1783169533568103200,6.269103271484375,-0.0007734850514680147,0.000939004123210907,0.0003743995912373066
1783169533578173200,6.279173095703125,-0.0002630101516842842,-0.0008085649460554123,0.002504117554053664
1783169533588242200,6.2892421875,0.0027058818377554417,0.0014921403490006924,-0.0026810572016984224
1783169533598311200,6.299311279296875,0.0014249453088268638,0.0027735643088817596,0.0005492162890732288
1783169533608381000,6.309380859375,0.00181270157918334,0.00016419915482401848,-0.0011810394935309887
1783169533618450200,6.3194501953125,0.001323007745668292,0.001651234459131956,-0.000670840498059988
1783169533628520000,6.32952001953125,-0.0009864855092018843,-0.0009181834757328033,0.00006259419023990631
1783169533638589200,6.339589111328125,0.002900450024753809,0.0006168065592646599,-0.0010921654757112265
1783169533648658000,6.349657958984375,0.0016088169068098068,-0.0005667023360729218,-0.0017915114294737577
1783169533658728200,6.359728271484375,0.0010174332419410348,0.0021597817540168762,0.0014285766519606113
1783169533668797000,6.369796875,0.000423015677370131,0.00032406486570835114,-0.0019443170167505741
1783169533678866200,6.3798662109375,0.0007548642461188138,0.0019291630014777184,-0.0013859581667929888
1783169533688936200,6.389936279296875,-0.0007090754806995392,0.0017086532898247242,-0.0006511916872113943
1783169533699005200,6.400005126953125,0.00003733416087925434,0.00018213409930467606,-0.0012355586513876915
1783169533709074000,6.410073974609375,0.0004786199424415827,-0.0011459840461611748,-0.00047868816182017326
1783169533719144200,6.420144287109375,0.000543281901627779,-0.00019435957074165344,-0.0033512688241899014
1783169533729213000,6.430212890625,-0.0012173339491710067,-0.0003163320943713188,-0.0008580172434449196
1783169533739282200,6.4402822265625,0.0009782699635252357,0.0017949300818145275,-0.00008480343967676163
1783169533749352200,6.450352294921875,-0.0014859529910609126,0.0015877359546720982,-0.000039263395592570305
1783169533759421200,6.460421142578125,-0.00035671249497681856,0.0013052639551460743,0.0010279160924255848
1783169533769491200,6.4704912109375,0.0023043181281536818,0.0008908761665225029,0.00024547940120100975
1783169533779560200,6.480560302734375,0.0005531716160476208,0.0014940579421818256,0.0009555446449667215
1783169533789629200,6.490629150390625,-0.0014465961139649153,-0.0008697640150785446,0.0023819338530302048
1783169533799699000,6.500698974609375,0.0006719178054481745,0.0025627678260207176,0.0003189861308783293
1783169533809768200,6.510768310546875,-0.00011051888577640057,0.0009670015424489975,-0.00023388606496155262
1783169533819837200,6.520837158203125,0.0018423848086968064,0.0008105519227683544,-0.0003915752749890089
1783169533829907200,6.5309072265625,0.0006737897638231516,0.0005615460686385632,0.0005376017652451992
1783169533839976200,6.54097607421875,0.0002651016693562269,0.00009381957352161407,0.0013846049550920725
1783169533850045200,6.551045166015625,-0.0008512954227626324,0.0001918240450322628,0.002653068397194147
1783169533860115000,6.561114990234375,-0.0006502825999632478,-0.0007766261696815491,0.0005861071404069662
1783169533870184200,6.57118408203125,0.0005313620204105973,-0.000980357639491558,0.0016457787714898586
1783169533880253200,6.581253173828125,-0.0013782072346657515,0.00035419128835201263,-0.001843015430495143
1783169533890323200,6.5913232421875,-0.00020002468954771757,0.0013566049747169018,-0.0015892160590738058
1783169533900392000,6.601391845703125,-0.00019440625328570604,-0.00025025662034749985,0.0013214729260653257
1783169533910462200,6.611462158203125,0.0005901609547436237,0.0011963723227381706,-0.0033134922850877047
1783169533920531000,6.621531005859375,-0.0008435675408691168,-0.0013141408562660217,-0.002102017868310213
1783169533930600200,6.63160009765625,-0.002123482758179307,-0.0011162683367729187,-0.000022355234250426292
1783169533940670000,6.641669921875,0.0007529008435085416,0.0010474012233316898,-0.0008364066015928984
1783169533950739200,6.6517392578125,0.00020721915643662214,0.0011339536868035793,0.001735408091917634
1783169533960808000,6.661807861328125,-0.0004219770198687911,-0.0006558513268828392,0.0018480054568499327
1783169533970878200,6.671878173828125,0.0007735160179436207,-0.0019810404628515244,0.001116967760026455
1783169533980947000,6.681947021484375,0.00023540144320577383,-0.0011885855346918106,-0.0005759357009083033
1783169533991016200,6.69201611328125,0.0009509928058832884,-0.00006925873458385468,0.0000951807014644146
1783169534001086000,6.7020859375,-0.0006464272737503052,0.0010086065158247948,-0.001097345259040594
1783169534011155200,6.7121552734375,-0.00018676579929888248,-0.0007344326004385948,-0.0022518252953886986
1783169534021224000,6.722223876953125,0.0003010594518855214,0.0000026831403374671936,0.0017407331615686417
1783169534031294200,6.732294189453125,-0.0009085482452064753,-0.0005549825727939606,0.0009263386018574238
1783169534041363000,6.742363037109375,-0.0009382943389937282,0.0015880926512181759,0.0008736522868275642
1783169534051433000,6.752432861328125,-0.0019383112667128444,0.0011531985364854336,0.0006693876348435879
1783169534061502200,6.762502197265625,-0.0003322702832520008,-0.001491691917181015,-0.0017564850859344006
1783169534071571200,6.7725712890625,0.00014656607527285814,-0.001096745952963829,0.0014544881414622068
1783169534081641200,6.78264111328125,0.002282114466652274,-0.000005208887159824371,0.0009882526937872171
1783169534091710200,6.792710205078125,0.002403820864856243,0.0003886725753545761,-0.00008100643754005432
1783169534101779200,6.802779296875,-0.0012838344555348158,-0.0017826538532972336,-0.0009464649483561516
1783169534111849000,6.812848876953125,-0.0011876942589879036,-0.0006625279784202576,-0.0029278569854795933
1783169534121918200,6.822918212890625,-0.001218924531713128,-0.0017886795103549957,-0.0014603440649807453
1783169534131987200,6.8329873046875,0.00009294867049902678,-0.00047760549932718277,0.0011887021828442812
1783169534142057200,6.84305712890625,-0.00018789211753755808,0.0005117109976708889,-0.00030811503529548645
1783169534152126000,6.8531259765625,0.0008171848603524268,0.001020907424390316,0.0005459608510136604
1783169534162195200,6.8631953125,0.000024849316105246544,-0.000387006439268589,0.00031588925048708916
1783169534172265000,6.873264892578125,-0.0011269678361713886,0.0007437719032168388,-0.0018612449057400227
1783169534182334200,6.883334228515625,0.0013060602359473705,0.0010973205789923668,-0.0017483567353338003
1783169534192404000,6.893404052734375,0.0012333558406680822,-0.0008039101958274841,0.0009438327979296446
1783169534202473200,6.90347314453125,0.0002572928788140416,-0.0022158510982990265,-0.00021371059119701385
1783169534212542000,6.9135419921875,-0.0006955862045288086,0.0012859390117228031,0.0002579351421445608
1783169534222612200,6.9236123046875,0.00037410634104162455,0.0011904910206794739,-0.0011500639375299215
1783169534232681000,6.933680908203125,0.00021697976626455784,0.0005625174380838871,0.00017539132386446
1783169534242750200,6.943750244140625,-0.0010457457974553108,0.0004280996508896351,-0.0021555242128670216
1783169534252820000,6.953820068359375,0.0004922295920550823,-0.0015405090525746346,-0.0027613937854766846
1783169534262889200,6.96388916015625,0.0006249487050808966,-0.0018069315701723099,0.0017823243979364634
1783169534272958000,6.9739580078125,0.000027601723559200764,0.0009856591932475567,-0.00117884436622262
1783169534283028200,6.9840283203125,0.0010099681094288826,0.00019534118473529816,0.0011698282323777676
1783169534293097000,6.994096923828125,-0.0005298716714605689,-0.0015759272500872612,0.00305721047334373
1783169534303166200,7.004166259765625,-0.00092544243671,0.0010357284918427467,-0.0004825151991099119
1783169534313236000,7.014236083984375,-0.001965939300134778,0.0009323977865278721,-0.0013706793542951345
1783169534323305200,7.02430517578125,0.0017175099346786737,-0.000469747930765152,0.002704286715015769
1783169534333375200,7.034375244140625,0.00026182609144598246,0.0017425399273633957,-0.0018409304320812225
1783169534343444200,7.0444443359375,0.00016406818758696318,0.00019130436703562737,0.0008262195624411106
1783169534353513000,7.054512939453125,-0.00010384584311395884,0.0015617669560015202,0.00005922908894717693
1783169534363583000,7.0645830078125,0.00011982978321611881,0.00019895751029253006,0.0018991247052326798
1783169534373652200,7.07465234375,0.000507053395267576,-0.0003464575856924057,0.0008128213230520487
1783169534383721200,7.08472119140625,0.0003403445007279515,-0.0009623975493013859,0.00156290247105062
1783169534393791200,7.094791259765625,0.000013574608601629734,-0.0019757295958697796,0.00045209797099232674
1783169534403860000,7.10485986328125,-0.00028173672035336494,-0.000751203391700983,0.0016399910673499107
1783169534413929200,7.11492919921875,0.0006130854017101228,-0.0007269685156643391,0.0016048373654484749
1783169534423999000,7.1249990234375,-0.0001446321839466691,0.0007299571298062801,-0.0004935592878609896
1783169534434068200,7.135068115234375,0.0017384890234097838,0.0005438020452857018,-0.0005124679300934076
1783169534444137200,7.14513720703125,0.0022652042098343372,-0.0002567227929830551,-0.0019156308844685555
1783169534454207200,7.155207275390625,-0.0011729368707165122,0.0005962876603007317,-0.00073957908898592
1783169534464276000,7.16527587890625,-0.000123079982586205,0.000193112064152956,0.0016626350115984678
1783169534474346200,7.17534619140625,0.00009822880383580923,-0.0021222401410341263,-0.00009798072278499603
1783169534484415000,7.1854150390625,-0.0030685735400766134,-0.0031107142567634583,-0.0004691157955676317
1783169534494484200,7.195484130859375,-0.0016925183590501547,0.0003101159818470478,0.0005668536759912968
1783169534504554000,7.205553955078125,-0.0009640029165893793,0.0005712113343179226,-0.0003053578548133373
1783169534514623200,7.215623291015625,-0.0011195314582437277,0.000007153954356908798,0.0020222447346895933
1783169534524692000,7.22569189453125,0.0005882979603484273,0.000745624303817749,-0.0008150190114974976
1783169534534762200,7.23576220703125,0.000402941950596869,0.0009525520727038383,-0.000694644171744585
1783169534544831000,7.2458310546875,0.0004217536188662052,-0.0005143606103956699,-0.002134185517206788
1783169534554900200,7.255900146484375,-0.000447502126917243,-0.00032820599153637886,-0.00023641693405807018
1783169534564970000,7.265969970703125,0.0005967617034912109,-0.0008402178063988686,0.0025887368246912956
1783169534575037700,7.27603759765625,0.00008756527677178383,0.0015795300714671612,0.002045984612777829
1783169534585106700,7.286106689453125,-0.0014252901310101151,-0.00012912694364786148,-0.0016517480835318565
1783169534595176700,7.2961767578125,0.0005073657957836986,0.000058892183005809784,0.0019163551041856408
1783169534605245700,7.30624560546875,-0.0005659023299813271,-0.001050916500389576,0.0019256504019722342
1783169534615314700,7.316314697265625,0.0019894009456038475,0.0013999911025166512,0.0007762301247566938
1783169534625384400,7.326384521484375,-0.000848919153213501,-0.0019163512624800205,0.0019196834182366729
1783169534635453700,7.33645361328125,-0.001908591017127037,-0.0003357655368745327,0.0008834474720060825
1783169534645523500,7.3465234375,-0.0001297948183491826,-0.0020543052814900875,-0.0002324527595192194
1783169534655592700,7.3565927734375,-0.002606534631922841,0.0013316376134753227,0.0011864795815199614
1783169534665661700,7.36666162109375,0.000528404489159584,0.0007529901340603828,-0.0016261606942862272
1783169534675731700,7.376731689453125,0.0006620952044613659,0.0012989379465579987,0.00022313836961984634
1783169534685800400,7.386800537109375,0.0005576254916377366,0.0007603918202221394,-0.00025044195353984833
1783169534695869700,7.39686962890625,0.0004380495520308614,0.0005659810267388821,0.0038811862468719482
1783169534705939500,7.406939453125,0.0018554584821686149,-0.00007433490827679634,0.00006583612412214279
1783169534716008700,7.4170087890625,0.0005047032027505338,-0.0002793981693685055,0.0003337501548230648
1783169534726077400,7.427077392578125,0.0008941207779571414,-0.002860449720174074,-0.0027185375802218914
1783169534736147700,7.437147705078125,0.0018057208508253098,0.001280499156564474,0.0007829864043742418
1783169534746216400,7.447216552734375,-0.0007471304852515459,0.0023300349712371826,-0.002191271400079131
1783169534756285700,7.45728564453125,0.0015357312513515353,0.0002831295132637024,-0.0010322637390345335
1783169534766355500,7.46735546875,0.0008145257597789168,-0.0014283880591392517,0.0008600277360528708
1783169534776424700,7.4774248046875,0.0022230716422200203,0.001345028169453144,-0.0004819394089281559
1783169534786494700,7.48749462890625,0.0016713018994778395,0.0006274483166635036,-0.0013934664893895388
1783169534796563700,7.497563720703125,0.0008329388219863176,0.0009427666664123535,-0.00024511152878403664
1783169534806632400,7.507632568359375,0.0018718317151069641,-0.000626684632152319,-0.0032627468463033438
1783169534816702700,7.51770263671875,-0.0001915855100378394,-0.0009577157907187939,0.00030375877395272255
1783169534826771500,7.527771484375,0.0002911819610744715,0.00091891223564744,-0.0004307806957513094
1783169534836840700,7.5378408203125,0.002404133789241314,0.00012129591777920723,0.00018973578698933125
1783169534846910700,7.54791064453125,0.0006352185155265033,-0.0006889565847814083,0.00010923109948635101
1783169534856979700,7.557979736328125,-0.0014471071772277355,0.0016402439214289188,0.00039365654811263084
1783169534867048400,7.56804833984375,0.0015062631573528051,0.002665712032467127,0.0001699049025774002
1783169534877118500,7.578118408203125,-0.0011265379143878818,0.0000891038216650486,-0.0013590161688625813
1783169534887187700,7.588187744140625,0.0007471275166608393,0.0008267601951956749,-0.00014539342373609543
1783169534897257500,7.598257568359375,-0.0008086912566795945,0.00017242133617401123,-0.001170444069430232
1783169534907326700,7.60832666015625,0.0005067353486083448,0.001648216973990202,0.00044823973439633846
1783169534917395700,7.618395751953125,0.001768274698406458,-0.001611226238310337,0.001127878436818719
1783169534927465700,7.6284658203125,-0.00018843216821551323,0.00011000363156199455,0.00044728326611220837
1783169534937534500,7.638534423828125,-0.00003476778510957956,-0.0013326304033398628,-0.0005322273354977369
1783169534947603700,7.648603759765625,-0.0006985142827033997,-0.0007558781653642654,0.0008866216521710157
1783169534957673500,7.658673583984375,-0.00012433668598532677,0.00029473891481757164,0.0015918267890810966
1783169534967742700,7.66874267578125,0.000665797502733767,-0.0006580366753041744,-0.003585322294384241
1783169534977811500,7.6788115234375,0.0003741813125088811,0.0011300095357000828,-0.0019163191318511963
1783169534987881700,7.6888818359375,0.0026905424892902374,0.0017275880090892315,-0.000780254602432251
1783169534997950500,7.698950439453125,0.0020479217637330294,0.00048682140186429024,0.001793424366042018
1783169535008019700,7.709019775390625,-0.0004250423517078161,0.0002113613300025463,0.0006591936107724905
1783169535018089500,7.71908935546875,0.0012556785950437188,0.0015099183656275272,-0.00026945071294903755
1783169535028158700,7.72915869140625,-0.0008785725804045796,-0.000012627337127923965,-0.00047919154167175293
1783169535038228500,7.739228515625,-0.0011097349924966693,0.0003208005800843239,0.002039892366155982
1783169535048297700,7.749297607421875,0.0016901311464607716,0.0010807588696479797,-0.0007751761004328728
1783169535058366500,7.759366455078125,-0.0007847443921491504,0.001747081521898508,-0.0007067332044243813
1783169535068436700,7.769436767578125,0.0004911383148282766,-0.00038385624065995216,0.00014198431745171547
1783169535078505500,7.77950537109375,0.0024032879155129194,-0.00022619729861617088,-0.00019091065041720867
1783169535088574700,7.78957470703125,-0.0008710252586752176,-0.0005154768005013466,-0.0001576598733663559
1783169535098644700,7.799644775390625,0.0011308729881420732,-0.0007634172216057777,0.0011667301878333092
1783169535108713700,7.809713623046875,-0.00011587678454816341,-0.002211029641330242,0.00162634183652699
1783169535118782500,7.819782470703125,0.0018194422591477633,-0.0012943698093295097,0.0019171590683981776
1783169535128852500,7.8298525390625,-0.0018200642662122846,-0.0015442566946148872,-0.0008488616440445185
1783169535138921500,7.83992138671875,0.0007930293213576078,-0.00024143792688846588,-0.0003868031781166792
1783169535148990700,7.84999072265625,-0.000531288213096559,-0.0014362973161041737,0.0018094410188496113
1783169535159060700,7.860060791015625,0.0018112282268702984,-0.0009446772746741772,0.0014488489832729101
1783169535169129700,7.870129638671875,0.0024207704700529575,-0.00026595452800393105,0.0010659527033567429
1783169535179198500,7.880198486328125,-0.0020243115723133087,-0.00042680976912379265,0.0014752806164324284
1783169535189268500,7.8902685546875,0.0014549060724675655,-0.00026720110327005386,-0.0012692443560808897
1783169535199337700,7.900337646484375,0.000567008217331022,0.0008191023953258991,0.0003275871276855469
1783169535209407500,7.910407470703125,0.0010609707096591592,-0.000592532567679882,0.0019998736679553986
1783169535219476700,7.920476806640625,-0.0014860766241326928,-0.0013757683336734772,0.00029039056971669197
1783169535229545500,7.93054541015625,0.0016308061312884092,0.0003153309226036072,-0.0019868589006364346
1783169535239615700,7.94061572265625,0.0008233356638811529,0.0006082789041101933,0.0014009480364620686
1783169535249684500,7.9506845703125,-0.002299739047884941,-0.00030837254598736763,0.00031349994242191315
1783169535259753700,7.960753662109375,0.0013280189596116543,0.0013169548474252224,-0.0009533660486340523
1783169535269823500,7.970823486328125,0.00010495702736079693,0.00018789991736412048,0.00020215054973959923
1783169535279892700,7.980892822265625,0.0011281435145065188,-0.001331700012087822,0.0017944545252248645
1783169535289961500,7.99096142578125,0.0021449869964271784,-0.0019833012484014034,-0.0005895281210541725
1783169535300031700,8.00103173828125,-0.0012444182066246867,0.0013879942707717419,0.0034590093418955803
1783169535310100500,8.0111005859375,0.0003538596211001277,0.00028175441548228264,-0.0012365598231554031
1783169535320169700,8.021169677734376,0.0007884875521995127,-0.0016740714199841022,-0.0010120556689798832
1783169535330239500,8.031239501953126,-0.002050000010058284,-0.0009561227634549141,0.0019008663948625326
1783169535340308700,8.041308837890625,-0.0011421283707022667,-0.0005380064249038696,0.0016001956537365913
1783169535350378500,8.05137841796875,0.0012423134176060557,0.001275808084756136,-0.0004263808950781822
1783169535360447700,8.06144775390625,0.0026010582223534584,0.0017461222596466541,-0.003392077051103115
1783169535370516500,8.0715166015625,-0.00019528204575181007,-0.0007784264162182808,0.001481537939980626
1783169535380586800,8.081586669921874,-0.0007470890413969755,0.0018032416701316833,0.0005393114406615496
1783169535390655500,8.091655517578126,-0.0020178575068712234,0.00015800166875123978,-0.0014854238834232092
1783169535400724700,8.101724853515625,-0.0009075853740796447,-0.0006753015331923962,0.00038731074891984463
1783169535410794500,8.11179443359375,0.0005058823153376579,-0.0033115707337856293,0.001741788350045681
1783169535420863700,8.12186376953125,-0.0012251724256202579,-0.00045346561819314957,-0.001982109621167183
1783169535430932500,8.131932373046874,-0.0010739003773778677,-0.00019801175221800804,0.0008258831221610308
1783169535441002500,8.14200244140625,0.0017091028857976198,-0.002170881722122431,0.0004200174007564783
1783169535451071500,8.152071533203125,-0.0009834347292780876,0.00046282028779387474,0.0007154003251343966
1783169535461140700,8.162140625,-0.0003775656223297119,-0.0013523902744054794,0.001294105313718319
1783169535471210800,8.172210693359375,-0.00008501368574798107,0.0007511619478464127,-0.0031270624604076147
1783169535481279500,8.182279541015625,0.0004145953571423888,-0.00029146578162908554,-0.00042288866825401783
1783169535491348500,8.192348388671874,0.0014134688535705209,0.0007740217261016369,0.00034358911216259
1783169535501418500,8.20241845703125,0.000559925741981715,0.0003657592460513115,0.0016328254714608192
1783169535511487700,8.21248779296875,0.00003035995177924633,-0.00027776649221777916,0.0014236255083233118
1783169535521556700,8.222556640625,-0.0011832425370812416,0.0007123970426619053,-0.0029894986655563116
1783169535531626800,8.232626708984375,0.0011543133296072483,-0.0008307630196213722,-0.0023119605612009764
1783169535541695500,8.242695556640625,-0.0011810127180069685,0.00035114819183945656,0.0009474821854382753
1783169535551765800,8.252765869140624,-0.00009838410187512636,-0.0017495835199952126,0.0018060854636132717
1783169535561834500,8.26283447265625,0.00131282489746809,0.00046297069638967514,-0.0012176677118986845
1783169535571904300,8.272904296875,-0.0017642718739807606,-0.00048475805670022964,-0.0022635841742157936
1783169535581974300,8.282974365234375,-0.0020297891460359097,0.0007480187341570854,0.0022179833613336086
1783169535592043500,8.29304345703125,0.00045700802002102137,-0.002370040863752365,-0.001620779512450099
1783169535602112300,8.3031123046875,0.00004927802365273237,0.0006971219554543495,-0.00352121121250093
1783169535612182300,8.313182373046875,0.0001748467329889536,0.0005562407895922661,0.0010892602149397135
1783169535622251300,8.323251220703124,-0.0002344811800867319,-0.0009287381544709206,0.0003707392606884241
1783169535632320300,8.3333203125,0.0011563440784811974,-0.0000033355318009853363,-0.00021154782734811306
1783169535642390300,8.343390380859375,-0.0013004221254959702,-0.0012014913372695446,0.00198183162137866
1783169535652459300,8.353459228515625,0.002747894264757633,-0.001278639305382967,0.000669986242428422
1783169535662528300,8.3635283203125,-0.000013004755601286888,0.0020124949514865875,-0.000952145317569375
1783169535672598300,8.373598388671875,-0.0019744979217648506,-0.0007096659392118454,-0.0017941154073923826
1783169535682667300,8.383667236328124,-0.000946784159168601,0.001539106946438551,0.0009268361609429121
1783169535692736500,8.393736572265626,-0.00010284758172929287,-0.00013286899775266647,0.00024365168064832687
1783169535702806300,8.40380615234375,0.0006817197427153587,0.0015097688883543015,0.003504425985738635
1783169535712875300,8.413875244140625,-0.00001989386510103941,-0.000564234796911478,-0.0017951098270714283
1783169535722945300,8.4239453125,-0.003429006552323699,-0.0015959437005221844,-0.0006739189848303795
1783169535733014300,8.43401416015625,-0.00005265919025987387,-0.0013217628002166748,0.0009661482181400061
1783169535743083300,8.444083251953124,0.0009188620024360716,-0.0013385405763983727,-0.003100764937698841
1783169535753153300,8.4541533203125,-0.0003432289231568575,-0.0005407114513218403,-0.002316422527655959
1783169535763222300,8.46422216796875,0.0005667731747962534,0.0007815477438271046,-0.0030431991908699274
1783169535773291300,8.474291259765625,-0.0008306001545861363,-0.00025126105174422264,-0.0021512487437576056
1783169535783361300,8.484361328125,-0.0004641491686925292,-0.00107923848554492,0.0029633520171046257
1783169535793430300,8.49443017578125,0.0015600711340084672,0.001542549580335617,-0.00021032546646893024
1783169535803499300,8.504499267578124,-0.0012745975982397795,0.00043760379776358604,0.002452569082379341
1783169535813569300,8.5145693359375,-0.000658700242638588,-0.002198733389377594,-0.0007914893794804811
1783169535823638300,8.52463818359375,-0.0011718913447111845,-0.0014336071908473969,-0.000616519944742322
1783169535833707300,8.534707275390625,-0.00010180857498198748,-0.0012095021083950996,-0.0018505598418414593
1783169535843777300,8.54477734375,0.0015285785775631666,-0.002198333851993084,-0.000895816832780838
1783169535853846300,8.55484619140625,0.00012871844228357077,-0.0009138807654380798,-0.00113472412340343
1783169535863915300,8.564915283203124,0.0020706953946501017,-0.0004888400435447693,0.0007199011743068695
1783169535873985300,8.5749853515625,-0.0019455170258879662,-0.0007439041510224342,-0.0021002308931201696
1783169535884054300,8.58505419921875,-0.000021649524569511414,-0.0009750667959451675,-0.0023106203880161047
1783169535894124300,8.595124267578125,-0.0008042691042646766,0.0018529347144067287,-0.0010675822850316763
1783169535904193300,8.605193359375,0.0012104123597964644,0.0024273786693811417,-0.0017179262358695269
1783169535914262300,8.61526220703125,-0.0021696113981306553,0.0007779523730278015,0.0025555083993822336
1783169535924332300,8.625332275390624,-0.00006491504609584808,0.002493560779839754,-0.00022776122204959393
1783169535934401300,8.6354013671875,-0.0018680894281715155,0.00011542066931724548,0.0013629968743771315
1783169535944470300,8.64547021484375,-0.0012811287306249142,-0.0008334638550877571,0.0034362678416073322
1783169535954540300,8.655540283203125,0.00037119979970157146,-0.00001640012487769127,-0.003032885491847992
1783169535964609300,8.665609375,0.0008926467853598297,0.0003601708449423313,0.0001743591856211424
1783169535974678300,8.67567822265625,-0.0010944119421765208,-0.0001973961479961872,0.0005760712083429098
1783169535984748300,8.685748291015624,-0.0007306240731850266,0.000014857854694128036,-0.00006974535062909126
1783169535994817300,8.6958173828125,-0.0006377252284437418,-0.0011194506660103798,-0.001760502578690648
1783169536004886300,8.70588623046875,-0.0013077764306217432,-0.0013878969475626945,0.0006315484642982483
1783169536014956300,8.715956298828125,-0.0007622765842825174,0.0002815891057252884,-0.00033459626138210297
1783169536025025300,8.726025390625,0.00033068459015339613,0.0007439139299094677,0.0005602259188890457
1783169536035094300,8.73609423828125,-0.0010566264390945435,-0.0010141548700630665,-0.0008541324641555548
1783169536045164300,8.746164306640624,-0.0006877786945551634,0.00006362609565258026,-0.0007526662666350603
1783169536055233300,8.7562333984375,0.0007191100157797337,0.0016979868523776531,-0.0011049909517168999
1783169536065302300,8.76630224609375,0.0006064582848921418,-0.0009806202724575996,-0.0012189741246402264
1783169536075372300,8.776372314453125,-0.0008409090805798769,-0.00002103252336382866,0.0006525947246700525
1783169536085441300,8.786441162109375,0.0017466181889176369,0.002445054706186056,-0.00013410300016403198
1783169536095511300,8.79651123046875,-0.00004934798926115036,0.00041238078847527504,0.0017676670104265213
1783169536105580300,8.806580322265624,-0.00030501140281558037,0.000177756417542696,0.0013343708124011755
1783169536115649300,8.816649169921876,0.0005081617273390293,0.00021901074796915054,-0.0011738380417227745
1783169536125719300,8.82671923828125,0.0006948492955416441,0.003019857220351696,0.0021923973690718412
1783169536135788300,8.836788330078125,0.0008975947857834399,-0.0013002906925976276,-0.0004594025667756796
1783169536145857300,8.846857177734375,0.00012341386172920465,0.0004624552093446255,0.0016689957119524479
1783169536155927300,8.85692724609375,0.0027143852785229683,-0.0016239359974861145,-0.0028644558042287827
1783169536165996300,8.866996337890624,0.0004544266848824918,-0.00041273050010204315,-0.0020971992053091526
1783169536176065300,8.877065185546876,0.0004695478128269315,-0.0023690308444201946,-0.0016375458799302578
1783169536186135300,8.88713525390625,0.0005297352327033877,-0.0017407913692295551,-0.0004441835917532444
1783169536196204300,8.897204345703125,0.0006876607076264918,0.0005497937090694904,0.0010469204280525446
1783169536206273300,8.907273193359375,-0.000537393381819129,-0.0015141558833420277,-0.0007531102746725082
1783169536216343000,8.917343017578125,0.0004689748166128993,-0.001563426572829485,0.0014973538927733898
1783169536226412300,8.927412353515624,0.00020345766097307205,-0.001039849128574133,0.00009386800229549408
1783169536236481300,8.937481201171876,-0.00029961345717310905,-0.000003080349415540695,-0.0012622135691344738
1783169536246551300,8.94755126953125,-0.0012740640668198466,0.0013471422716975212,-0.003369573038071394
1783169536256620300,8.957620361328125,0.0018819267861545086,0.0011396771296858788,-0.002029458060860634
1783169536266689300,8.967689208984375,-0.0005386202828958631,-0.0016960571520030499,0.0016435736324638128
1783169536276759300,8.97775927734375,-0.0012351797195151448,-0.0006404761224985123,0.0027853844221681356
1783169536286828300,8.987828369140624,0.0002836210187524557,0.0007672710344195366,-0.0005960310809314251
1783169536296897300,8.997897216796876,0.0004358285223133862,0.00029954127967357635,-0.0006973892450332642
1783169536306967300,9.00796728515625,-0.0006805685115978122,0.00017437245696783066,0.0032914935145527124
1783169536317036300,9.018036376953125,0.0006776545778848231,0.001106135081499815,0.00098755257204175
1783169536327105300,9.028105224609375,-0.0007623165147379041,0.0008773691952228546,0.0009036629926413298
1783169536337175300,9.03817529296875,-0.00018743425607681274,-0.0009468351490795612,0.00200088694691658
1783169536347244300,9.048244384765624,0.00007541966624557972,0.0008492004126310349,-0.001917954534292221
1783169536357314300,9.058314208984376,0.00010173034388571978,-0.002354553434997797,0.0011699784081429243
1783169536367383300,9.06838330078125,-0.0030139016453176737,0.0005621402524411678,0.0016083347145467997
1783169536377452300,9.078452392578125,-0.0007109619909897447,0.018267828971147537,0.0065369196236133575
1783169536387522300,9.088522216796875,-0.0015706304693594575,0.15019923448562622,0.07154308259487152
1783169536397591300,9.09859130859375,-0.002646294655278325,0.08011521399021149,0.04284859821200371
1783169536407660300,9.108660400390624,-0.0007597112562507391,-0.11509022861719131,-0.05640421807765961
1783169536417730300,9.118730224609376,0.0022675818763673306,-0.08494283258914948,-0.04251173883676529
1783169536427799300,9.12879931640625,0.00021721422672271729,-0.014842046424746513,-0.01169523410499096
1783169536437868300,9.138868408203125,0.0003568893298506737,-0.0275057852268219,-0.0052410028874874115
1783169536447938300,9.148938232421875,0.0005105537129566073,0.005370407365262508,0.00427580252289772
1783169536458007300,9.15900732421875,0.0007637273520231247,-0.00399952894076705,-0.005759821739047766
