time,seconds_elapsed,z,y,x
1783174338483294000,0.0802939453125,-0.029478607940673827,0.05019698632061481,-0.23639205036610364
1783174338493362000,0.09036181640625,-0.06192921742945909,0.030325580158829687,-0.2493251086320728
1783174338503431200,0.10043115234375,-0.060517012543976303,0.02964402763545513,-0.16900434833504258
1783174338513499100,0.1104990234375,-0.03404313937723637,0.05904957033991813,-0.15764840319268406
1783174338523568000,0.120568115234375,-0.002421089667081833,0.07980944977402686,-0.17242087878026066
1783174338533636000,0.130635986328125,0.02310322768986225,0.05828735379576683,-0.13250745913013814
1783174338543705000,0.140705078125,0.06255085645914077,0.03512684296071529,-0.10002499319836497
1783174338553774000,0.150774169921875,0.06888532017767429,0.0043313072025775905,-0.02136076793670654
1783174338563842000,0.160842041015625,0.06329407604187727,-0.0008113163828849792,0.011172843660414218
1783174338573911000,0.1709111328125,0.047347442108392715,-0.00018938509225845335,0.027836612887308
1783174338583979000,0.18097900390625,0.0024859715968370438,0.027113632375001907,-0.014359730068221688
1783174338594048000,0.191048095703125,-0.07555559172183275,0.029663316857814787,-0.054973260811716315
1783174338604116000,0.201115966796875,-0.11214520071148872,0.06732464673221111,-0.09108421943895519
1783174338614185200,0.211185302734375,-0.08349690611511468,0.13231646660268306,-0.13207067514806986
1783174338624254000,0.22125390625,-0.004898293435573578,0.15705051036477088,-0.2042467804994434
1783174338634322200,0.231322265625,0.026724048535525798,0.10753858369886875,-0.20101181716620922
1783174338644391200,0.24139111328125,0.05510492436736822,-0.029985388419032095,-0.15019121905453503
1783174338654459000,0.251458984375,0.05450637395232916,-0.06330956587195397,-0.11705262730158865
1783174338664528100,0.261528076171875,-0.023201135106384753,-0.034621231526136394,-0.1503167451303452
1783174338674596000,0.27159619140625,-0.08732640127539634,-0.030570494830608367,-0.10398235252201557
1783174338684665000,0.2816650390625,-0.058366848772764206,-0.03515490001142025,-0.03153926679752767
1783174338694734000,0.291734130859375,-0.07788198884278535,0.015853402692079542,-0.04386559134200215
1783174338704802000,0.301802001953125,-0.16866612935662267,0.07518295901715755,-0.03863989258296788
1783174338714871300,0.311871337890625,-0.19399872353374956,0.1799625993967056,-0.11606288561187685
1783174338724939000,0.32193896484375,-0.1232213059991598,0.12580723083913325,-0.15523491231016814
1783174338735008000,0.332008056640625,0.10902882225662469,0.05232230791151523,-0.0972241834986955
1783174338745076200,0.342076171875,0.32928631490170956,0.050720133411884305,-0.15885390652492642
1783174338755145000,0.35214501953125,0.31687282353043555,0.10592354971766471,-0.20692739788554607
1783174338765213000,0.362212890625,0.03871288475394249,0.1509755743652582,-0.16855901572033763
1783174338775282200,0.3722822265625,-0.10857260292172431,0.0061906713336706155,-0.17717917922325432
1783174338785351000,0.382350830078125,-0.19295359839498996,-0.12409867335557936,-0.08884316251389682
1783174338795419000,0.3924189453125,-0.3102539899125695,-0.09177110572457313,-0.13730185379981993
1783174338805488000,0.402488037109375,-0.34175592037439345,-0.055068976271152495,-0.15127981800884008
1783174338815556000,0.41255615234375,-0.24812457373589275,-0.1022334630280733,-0.03348886649534106
1783174338825625000,0.422625,-0.08922697419971228,-0.10846271280646323,0.11174421869516372
1783174338835693000,0.432693115234375,0.050960664169490334,0.07810732203125953,0.05615151081085205
1783174338845762000,0.442761962890625,-0.01186111818552017,0.12195756967365741,-0.18244455240555107
1783174338855831000,0.4528310546875,-0.10376637168377638,0.07093231583535671,-0.32418826111033555
1783174338865899000,0.46289892578125,-0.08679945479184388,0.09497194759249687,-0.31932547737956046
1783174338875968000,0.472968017578125,-0.05193769250810146,0.06377893694937228,-0.27426125083751973
1783174338886036200,0.4830361328125,0.0037187282621860504,0.04965747261643409,-0.17631408682651817
1783174338896105000,0.49310498046875,0.04160159193277359,-0.020305705925822256,-0.04248144350722432
1783174338906173000,0.5031728515625,-0.03391542134433984,0.0473480266302824,-0.03504077211245894
1783174338916242200,0.5132421875,0.013233575582504271,0.20378186640143392,-0.026778043745085595
1783174338926310100,0.52331005859375,0.07241729369610547,0.31208325116634367,-0.12666275168992577
1783174338936379000,0.53337890625,0.10118424623608589,0.3117389677733183,-0.26134273255355656
1783174338946448100,0.5434482421875,0.16559446682631968,0.2757657371163368,-0.24599326079562306
1783174338956516000,0.55351611328125,0.309260887221992,0.16702479189038275,-0.19321940972432494
1783174338966585000,0.563585205078125,0.2570359022051096,-0.006660042411088943,-0.05589497876651585
1783174338976653000,0.573653076171875,-0.014225509229302406,-0.013064648756384849,0.0961886299058795
1783174338986722000,0.58372216796875,-0.2991337532222271,0.08027882085144519,0.032427667004615066
1783174338996790300,0.593790283203125,-0.3390937154278159,0.2217775418192148,-0.0997835125926882
1783174339006859000,0.60385888671875,-0.11863105559945106,0.22084873653650283,-0.08427811962068081
1783174339016928000,0.613927978515625,0.008243219949305058,0.1097884084522724,-0.007923267279937862
1783174339026996200,0.623996337890625,0.08070084565579891,-0.005352466943860054,-0.010134586653858423
1783174339037065000,0.63406494140625,0.12940730115771293,-0.059978960144519804,-0.0719543523594737
1783174339047133000,0.6441328125,0.03054331456273794,-0.08411562253534793,-0.1935371704366058
1783174339057202200,0.6542021484375,0.00976239234060049,-0.03013210341334343,-0.2031990250121802
1783174339067270100,0.664270263671875,0.21413053419739006,-0.052284898510575294,-0.10109437599554658
1783174339077339100,0.674339111328125,0.005627192232012748,-0.04260521601736545,-0.056867696256190536
1783174339087408000,0.684408203125,-0.3031792292207479,0.08112170141637325,-0.1349287679929286
1783174339097476000,0.69447607421875,-0.21672055069059132,0.2553448803782463,-0.05421652416028082
1783174339107545000,0.704545166015625,-0.03344605026692152,0.24133096807301044,-0.10526990811452269
1783174339117613000,0.714613037109375,-0.050773324903845785,0.1664957995802164,-0.1877294340059161
1783174339127682000,0.72468212890625,-0.10582768812775611,0.04087444670200348,-0.037733518327772615
1783174339137750300,0.734750244140625,0.06669716248363255,0.05419043987095356,0.09888948636241257
1783174339147819000,0.744819091796875,0.30181290930360555,-0.029971944415569305,-0.004388809543475508
1783174339157888300,0.75488818359375,0.15919044500291346,-0.000029810616374015806,-0.05050481016077101
1783174339167956200,0.764956298828125,0.03263736423254013,-0.05561725780367851,-0.2073736803483218
1783174339178025000,0.77502490234375,-0.0231947053655982,-0.2444651744455099,-0.07538681102618575
1783174339188093200,0.78509326171875,-0.18505320053398608,0.07447685657441616,-0.035184564497321845
1783174339198162200,0.795162109375,-0.2691945420324802,0.08779401878714561,-0.41795463230535385
1783174339208230100,0.805230224609375,-0.24715835905224084,0.1446884569197893,-0.2934456245832145
1783174339218299100,0.815299072265625,-0.21574936757087707,0.20222177747786044,0.0021837737798690794
1783174339228367000,0.8253671875,-0.009130816438794136,0.17274667666852472,0.11979337737709284
1783174339238436000,0.83543603515625,0.13156769406199453,0.09095160603523254,0.015432693061977623
1783174339248505000,0.845505126953125,0.05887801316529512,0.01903729342520237,0.012665639501437544
1783174339258574300,0.85557421875,-0.012850421483814715,0.018688918378949163,0.05260382826663553
1783174339268643000,0.86564306640625,-0.006793897923827171,0.048695934107899665,-0.02400251461714506
1783174339278711000,0.8757109375,0.07429886965900659,0.05686930369138717,-0.10293635060042142
1783174339288780300,0.8857802734375,0.018816928672790525,0.06471241840720177,-0.1835396541658789
1783174339298848300,0.89584814453125,-0.06745908676683902,0.10030863244533539,-0.22292744250670074
1783174339308917000,0.9059169921875,-0.09347732512056826,0.11725918272435665,-0.21881343131661413
1783174339318986200,0.915986328125,-0.02329495086967945,0.03461012561023235,-0.20629392228759824
1783174339329054200,0.92605419921875,0.016871932084858418,-0.001247369712591171,-0.13445910465456545
1783174339339123200,0.936123291015625,-0.05680296045690775,-0.014629998376965521,-0.1168072742383927
1783174339349191200,0.946191162109375,-0.16632687275409697,0.029765023666620254,-0.08568177587352692
1783174339359260200,0.95626025390625,-0.09685293903350829,0.05121463893055916,-0.07453158243633806
1783174339369328400,0.966328369140625,0.09333703986704349,0.04424713800549507,-0.08451068626753985
1783174339379397000,0.976397216796875,0.015520809736847876,0.044381578040122986,-0.08003120276592672
1783174339389465000,0.986465087890625,-0.17075725641697645,0.0503717583656311,-0.07060578729473053
1783174339399534300,0.996534423828125,-0.16057225475013256,0.10207038142085074,-0.13250110245458782
1783174339409603000,1.00660302734375,-0.03766834413707256,0.11020341899394988,-0.1644969539131969
1783174339419671000,1.016671142578125,0.06279635565280914,0.05347264699041843,-0.13558394396603107
1783174339429740300,1.026740234375,0.059380117468535894,0.03488543542027473,-0.14241050205044448
1783174339439808300,1.036808349609375,-0.06040215399265289,-0.01238660336434841,-0.17543555042631923
1783174339449877200,1.046877197265625,-0.10341858115941285,-0.006268997266888618,-0.11399557781852782
1783174339459945200,1.0569453125,-0.13513152402341366,0.03150923698544502,-0.1500190042927861
1783174339470014200,1.06701416015625,-0.12949234909266233,0.04289747696220875,-0.15547193593643605
1783174339480083200,1.077083251953125,-0.020152561190724373,0.0019710078120231626,-0.07661832558251917
1783174339490151200,1.087151123046875,0.05376724602282047,0.003908113354444504,-0.02287847902327776
1783174339500220200,1.09722021484375,-0.01379267076998949,0.052609308159351345,-0.07531849503032863
1783174339510288100,1.1072880859375,-0.00364858563542366,0.10108955368995666,-0.11648512961193919
1783174339520357000,1.117357177734375,0.00611819061934948,0.12280629545748233,-0.06483166087269783
1783174339530425000,1.127425048828125,-0.04881342300772667,0.07546002239286899,-0.08192578434087336
1783174339540494000,1.137494140625,-0.15195815566182136,0.10940262400507926,-0.1015381011750549
1783174339550563000,1.14756298828125,-0.09077595720738171,0.15343933413028715,-0.13147227086350322
1783174339560631000,1.157631103515625,-0.04020107748508453,0.1640764634788036,-0.15865838395282625
1783174339570700300,1.1677001953125,0.03573123859465122,0.11309446426033973,-0.11866028169393539
1783174339580768000,1.17776806640625,0.16646774252951144,0.06259235751330852,-0.07879084731601178
1783174339590837200,1.187837158203125,0.2323784308105707,-0.05791033717691898,-0.07167005552537739
1783174339600905200,1.1979052734375,0.10140022707432508,-0.16496435222923755,-0.0938866365738213
1783174339610974000,1.207973876953125,-0.01607932040244341,-0.14627601837217807,-0.048327466121688485
1783174339621042200,1.218042236328125,-0.1364665720194578,-0.05742635305225849,-0.07395502465739846
1783174339631111200,1.228111083984375,-0.12160159584283828,0.03496609944105148,-0.10732844807952642
1783174339641180200,1.23818017578125,-0.008349602933228015,0.08915653931200504,-0.08388225217089057
1783174339651248000,1.248248046875,0.04579992040544748,0.12744564569592476,-0.0927565365653485
1783174339661317000,1.258317138671875,0.005135024800896644,0.11235270598232745,-0.08852269838787614
1783174339671385000,1.268385009765625,-0.08260872510373592,0.06579319938123226,-0.0975388754710555
1783174339681454000,1.2784541015625,-0.06382073026448488,0.03953355348706245,-0.049350087167695164
1783174339691522000,1.28852197265625,0.0438011478036642,0.019289806881546974,-0.0888673471070826
1783174339701591300,1.29859130859375,0.17477905927896498,-0.019355857855081558,-0.07368176067396998
1783174339711660000,1.308659912109375,0.1478437060803175,-0.03556055820286274,-0.06883804696984588
1783174339721728000,1.31872802734375,-0.028407763838768002,0.00980944635272026,-0.09303454978913069
1783174339731797200,1.32879736328125,-0.10233780018538235,0.062329907184839245,-0.13250029873698949
1783174339741865200,1.338865234375,-0.17067133169919252,0.11649638165831565,-0.20018625306226312
1783174339751934000,1.348933837890625,-0.13655454256385563,0.12365092958807944,-0.22985205413810908
1783174339762002200,1.359002197265625,-0.027664836516976356,0.12529518966376782,-0.15600253568179903
1783174339772071200,1.3690712890625,-0.0497574258595705,0.09895371070504189,-0.11179375692531465
1783174339782139100,1.37913916015625,-0.12621551937907932,0.0810538968771696,-0.09858385447934269
1783174339792208100,1.3892080078125,-0.09797609784454106,0.06767945151925087,-0.09436506774052977
1783174339802277000,1.399277099609375,-0.06026771395802497,0.10278817430138587,-0.061190308695659036
1783174339812345300,1.409345458984375,-0.026704174791276455,0.1240840603083372,-0.08021298907361925
1783174339822414000,1.4194140625,0.016790099020302294,0.11486615010797976,-0.09841142052188515
1783174339832482000,1.42948193359375,0.0256324539065361,0.11649462809264659,-0.11036328573077916
1783174339842551300,1.43955126953125,-0.04723199903517961,0.11983926234543323,-0.16671974452920257
1783174339852619300,1.449619384765625,-0.12050620182156561,0.10614800612330436,-0.18250066650696098
1783174339862688000,1.45968798828125,-0.16127309649586677,0.06494388907551765,-0.14908691107444463
1783174339872757200,1.46975732421875,-0.06734510499835014,0.0673906977057457,-0.1334137603200972
1783174339882825200,1.4798251953125,0.06180968270301818,0.03742050685584545,-0.12930281786993145
1783174339892894200,1.489894287109375,0.055662850511074065,0.002088496711850166,-0.09147204971276224
1783174339902962200,1.499962158203125,0.03044832975566387,0.00542670122385025,-0.051509603289142246
1783174339913031200,1.51003125,-0.012160685653984546,0.007778817307949066,-0.061330082492530344
1783174339923099100,1.52009912109375,-0.10847586454898119,0.018339958810806273,-0.10876659112386405
1783174339933168000,1.530168212890625,-0.19085107315778732,0.034244799429178234,-0.14696918826811015
1783174339943236000,1.540236083984375,-0.1285220427557826,0.03353402081131935,-0.13490655616112052
1783174339953305300,1.550305419921875,-0.060248424735665315,0.04369067316651344,-0.13874964145533739
1783174339963374000,1.5603740234375,0.011666764657199381,0.07015139459073542,-0.13709917083457113
1783174339973442000,1.570442138671875,0.045696167770028114,0.08393149814009666,-0.11918671672083436
1783174339983511300,1.58051123046875,0.03942570919841528,0.07509177360236645,-0.11587401197627185
1783174339993579300,1.590579345703125,-0.02625730780661106,0.07473872238099574,-0.098322646259889
1783174340003648000,1.60064794921875,-0.02221972285360098,0.03380874609947204,-0.0532881572689861
1783174340013716200,1.61071630859375,0.04441021961271763,0.014231938970088958,-0.013470526143535971
1783174340023785200,1.62078515625,0.03682312548458576,0.047076223951578136,-0.051533203360438345
1783174340033854200,1.630854248046875,-0.058870414380729194,0.09065934509038924,-0.1511119871612638
1783174340043922200,1.640922119140625,-0.07482756970822811,0.11320961507260799,-0.11854944173060357
1783174340053991200,1.6509912109375,-0.03037643356323242,0.11334990032613276,-0.07706102784872054
1783174340064059100,1.66105908203125,-0.023971827217936514,0.13342355106174944,-0.11092954131141304
1783174340074128100,1.671128173828125,-0.011985621348023414,0.12360767496824264,-0.14520320150889454
1783174340084196000,1.681196044921875,-0.02964870381057262,0.11499474492371081,-0.134686995126307
1783174340094265300,1.691265380859375,-0.06992723044604063,0.07180325345098972,-0.12653072280809283
1783174340104333000,1.7013330078125,-0.07290332364737986,0.03497077561616897,-0.12339169413000345
1783174340114402000,1.711402099609375,-0.05826514196395874,0.022822657182812688,-0.10453896349146961
1783174340124471300,1.72147119140625,-0.07684650831520556,0.008709960678219796,-0.10168993073590099
1783174340134539000,1.7315390625,-0.03388414942324161,0.0005523731857538223,-0.057307037521526216
1783174340144608300,1.741608154296875,-0.007820318362116814,0.04125497045218944,-0.050559462957456704
1783174340154676200,1.75167626953125,-0.0182712774887681,0.08926584490537642,-0.08256642033196986
1783174340164745200,1.7617451171875,-0.0442588284432888,0.11248656149506568,-0.11615589765757321
1783174340174813200,1.771813232421875,-0.06834142255932092,0.10030044913887977,-0.08060812587104738
1783174340184882200,1.781882080078125,-0.019899170951545236,0.03112052992880344,-0.07508592838346957
1783174340194951200,1.791951171875,-0.01767097350805998,-0.03234101163446903,-0.05798851697966456
1783174340205019100,1.80201904296875,-0.03699088326692581,-0.015056114834547041,-0.03764781280569732
1783174340215088000,1.812088134765625,-0.026945874592661855,0.03011632132232189,-0.10765789922960102
1783174340225156000,1.822156005859375,-0.04136427604556083,0.0457926138818264,-0.16159027268625795
1783174340235225000,1.83222509765625,0.028709377133846282,0.07777882072925567,-0.18371208812333642
1783174340245293000,1.84229296875,0.04401274472773075,0.10068214193284511,-0.1818013591311872
1783174340255362000,1.852362060546875,0.05190203667283058,0.07376841604411602,-0.13152933481298387
1783174340265429200,1.86242919921875,0.02624298702031374,0.04709259056448936,-0.05061981484256684
1783174340275498500,1.87249853515625,-0.05637918208688497,0.07916121499836444,-0.08109664004035294
1783174340285567200,1.882567138671875,-0.0761634944871068,0.0935802009731531,-0.11338453324809669
1783174340295635200,1.89263525390625,-0.007502046193182468,0.05272212088406086,-0.13369140821769832
1783174340305704400,1.902704345703125,0.022022446715831756,0.0077758946985006325,-0.12317841670550406
1783174340315772400,1.9127724609375,0.03454115202724933,-0.02857435257732868,-0.13726488279029725
1783174340325841200,1.922841064453125,-0.01054974332600832,-0.0252490075469017,-0.09081504710875452
1783174340335909400,1.932909423828125,-0.04667524193525314,-0.0234235456854105,-0.05544862323850393
1783174340345978400,1.942978271484375,-0.0888686622813344,0.0037228199154138563,-0.019037804881855844
1783174340356047400,1.95304736328125,-0.10095365235060452,0.07806056028008461,-0.03894800868406892
1783174340366115300,1.963115234375,-0.09107143302261829,0.12736264358758925,-0.04978073366992175
1783174340376184300,1.973184326171875,-0.011399053631722927,0.09785247146487236,-0.040133784402534366
1783174340386252300,1.983252197265625,0.05368395165354013,0.06890460940003394,-0.021738296012207864
1783174340396321300,1.9933212890625,0.03780629130303859,0.05619125829935073,-0.07776442687772214
1783174340406389200,2.00338916015625,0.007974632140994071,0.07536416080296039,-0.1696707763545215
1783174340416458500,2.01345849609375,-0.07749708117842674,0.1114180554807186,-0.22319924518540502
1783174340426526200,2.023526123046875,-0.03521042959094047,0.0843085147589445,-0.2062470874711871
1783174340436595200,2.03359521484375,-0.03662175769358873,0.06833177794814109,-0.19761428368240594
1783174340446664400,2.04366455078125,-0.00486029951274395,0.04506254604160785,-0.13520444312915206
1783174340456732200,2.053732177734375,-0.002892506571114063,-0.014638181683421134,-0.07918868752717971
1783174340466801200,2.06380126953125,-0.008709376156330108,-0.015326748469471931,-0.0468883001640439
1783174340476869400,2.073869384765625,-0.04615238710492849,0.026401684713363648,-0.08569054370187222
1783174340486938000,2.083938232421875,-0.14648732303529977,0.09688158060610294,-0.11037672973424195
1783174340497006000,2.094006103515625,-0.20766659888029096,0.11173019016981124,-0.11108042102418839
1783174340507075300,2.104075439453125,-0.1124488598331809,0.12344576240479946,-0.1308545042913407
1783174340517143300,2.114143310546875,0.01501958221644163,0.10761749415397644,-0.0984968337830156
1783174340527212300,2.12421240234375,0.0748977123349905,0.07781798369586468,-0.06346417191177606
1783174340537281300,2.13428125,0.04306815735399723,0.0009194529324769973,-0.09496054941564798
1783174340547349200,2.144349365234375,-0.01433335351794958,-0.019399112474918365,-0.10806523792147636
1783174340557418200,2.154418212890625,-0.04336830934435129,0.052450902727246285,-0.14109649684242903
1783174340567486200,2.164486328125,-0.01738455778211355,0.08749299001395702,-0.11413717824630439
1783174340577555200,2.17455517578125,-0.00419803621172905,0.1323790104448795,-0.12166216692365706
1783174340587623400,2.18462353515625,0.009075871381163596,0.144004566308856,-0.09362170202732085
1783174340597692200,2.194692138671875,0.01730798541456461,0.1336702192991972,-0.06994096671044826
1783174340607761400,2.204761474609375,-0.03976385511159897,0.10118950693309306,-0.09621361821666359
1783174340617829400,2.214829345703125,-0.10496025764346122,0.04972819976508617,-0.1174924800235778
1783174340627898000,2.224898193359375,-0.10247896222174167,0.03821253401637077,-0.10397563052028418
1783174340637966300,2.23496630859375,-0.01673924561589956,0.0022989245921373365,-0.06935213397182524
1783174340648035300,2.245035400390625,0.005982581540942192,0.012806874603033066,-0.10276976186186075
1783174340658103300,2.255103271484375,-0.05212678533941507,0.019003391155600548,-0.10255261197984218
1783174340668172300,2.26517236328125,-0.014142214860022068,-0.03336100233197212,-0.11348770136162638
1783174340678240300,2.275240234375,0.007331658062338829,-0.01799684446156025,-0.08517324182949959
1783174340688309200,2.285309326171875,-0.017620412364602087,0.022773557344079015,-0.1023860232412815
1783174340698378200,2.295378173828125,-0.12490034512728453,0.08555939160287379,-0.1885252605587244
1783174340708446200,2.3054462890625,-0.18272329628169537,0.0878729292422533,-0.14349639759100974
1783174340718515200,2.31551513671875,-0.10076309821456671,0.06226093360185623,-0.09741977913603186
1783174340728583400,2.32558349609375,0.021596037997305393,0.07010112570822238,-0.11433197016604243
1783174340738652200,2.335652099609375,0.0842760737940669,0.07053659451603889,-0.08468845398724079
1783174340748720000,2.34572021484375,0.030877661083638666,0.04828326165378093,-0.08199651148952543
1783174340758789400,2.355789306640625,-0.04687807103097438,0.018138883280754088,-0.11642338948734104
1783174340768858000,2.365858154296875,-0.03961684785634279,0.02060147400200367,-0.11848061427809298
1783174340778926300,2.37592626953125,0.019991233149170874,0.059631169620156285,-0.13337109022215007
1783174340788995300,2.385995361328125,-0.0469558124423027,0.11236498094201088,-0.14048231046684084
1783174340799063300,2.396063232421875,-0.03340454921275377,0.12046879242062568,-0.07153298514224589
1783174340809132300,2.40613232421875,-0.025510873353481293,0.15912965472638607,-0.030791590235382315
1783174340819200300,2.4162001953125,-0.07761866173148155,0.16680325809419155,-0.07631788133122026
1783174340829269200,2.426269287109375,-0.05917348898053169,0.14870236873626708,-0.1353802380874753
1783174340839338200,2.436338134765625,-0.02678630011677742,0.08640987095236778,-0.19812632485777137
1783174340849406200,2.44640625,0.03566314179450273,0.010587444987893104,-0.1652517178032547
1783174340859475500,2.456475341796875,0.07617869205623864,-0.035324411359429354,-0.110530970447883
1783174340869543400,2.46654345703125,0.08363719136863947,-0.05480243428945541,-0.08467515611425042
1783174340879612200,2.476612060546875,0.00927402430176735,-0.02315408109426498,-0.03750022102855146
1783174340889680400,2.486680419921875,-0.04432458715587854,0.08359656709730624,-0.03657638418190181
1783174340899749400,2.496749267578125,-0.0009577391162514686,0.12057634444832802,-0.024049933955445885
1783174340909817300,2.5068173828125,0.039084640675783155,0.12852175049483774,0.010014613536000251
1783174340919886300,2.51688623046875,-0.017136428239941597,0.14207505955100058,-0.05116619667895138
1783174340929955300,2.526955322265625,-0.07390168703496455,0.16958616681098937,-0.09868431917913258
1783174340940023300,2.537023193359375,-0.07994622789621353,0.15453239006400107,-0.11714973100051283
1783174340950092300,2.54709228515625,-0.030143209329247474,0.15225801539123057,-0.16344919842593372
1783174340960160300,2.55716015625,0.014405834232270718,0.11674655702710152,-0.18528057954907418
1783174340970229500,2.5672294921875,0.05598755242079496,0.024552257454395293,-0.19730061462335288
1783174340980297200,2.577297119140625,0.02057517051696777,-0.013828034344315529,-0.2526083680864423
1783174340990366200,2.5873662109375,0.03727145377397537,-0.08011573924422263,-0.19556955304704604
1783174341000435500,2.597435546875,0.02135258463025093,-0.07276362291574477,-0.13538520652353764
1783174341010503200,2.607503173828125,-0.03135258511900901,-0.021232173120975494,-0.09145202983804046
1783174341020572200,2.617572265625,-0.024262042336165905,0.01860533174872398,-0.0655848903927952
1783174341030640400,2.627640380859375,-0.05354892709702253,0.050287587213516234,-0.03679799104332924
1783174341040709400,2.63770947265625,-0.06285334653705359,0.03723988959193229,-0.010375117411464452
1783174341050777000,2.647777099609375,-0.04681143553555012,0.036492286095023155,0.02139890799000859
1783174341060846300,2.657846435546875,0.004129647150635719,0.006677578067779541,0.03412847957313061
1783174341070914300,2.667914306640625,-0.0003308393895626068,-0.03238368173241615,0.05463723379038274
1783174341080983000,2.677983154296875,-0.022915888424217698,0.03117372142076492,-0.010222849459201096
1783174341091052300,2.68805224609375,-0.033979134230315684,0.07374678873419761,-0.11696356077864765
1783174341101120300,2.698120361328125,-0.020219488947093484,0.057435120880603784,-0.12252813610322773
1783174341111189200,2.708189208984375,0.022446517346799373,0.04720131163597106,-0.10997245978228747
1783174341121257200,2.71825732421875,-0.02495762338489294,0.05924538517296314,-0.14187676049992443
1783174341131326200,2.728326171875,-0.1001245080500841,0.1186205342054367,-0.15453165941163896
1783174341141394400,2.73839453125,-0.11121902577728032,0.10924071144163608,-0.1495828048326075
1783174341151463200,2.748463134765625,-0.12730097652822733,0.12178630475997924,-0.1449313988301903
1783174341161532200,2.7585322265625,-0.1196615676909685,0.1329255384117365,-0.14059826499670744
1783174341171600400,2.768600341796875,-0.04401858994662761,0.11064765563011168,-0.11909202417470514
1783174341181669000,2.778669189453125,-0.03197276284396648,0.04621814581751823,-0.11098536315187811
1783174341191737000,2.788737060546875,-0.04396306036710739,0.04613514370918274,-0.08343458146862685
1783174341201806300,2.798806396484375,-0.0466837175026536,0.060496846538782116,-0.07676474831588566
1783174341211874300,2.808874267578125,-0.03205371912568807,0.03750584705173969,-0.10572948845028876
1783174341221943300,2.818943359375,-0.04421002086549997,0.045482232758402824,-0.11621866069547832
1783174341232011300,2.82901123046875,-0.04243804275691509,0.04747603692412376,-0.10057707412317395
1783174341242080300,2.839080322265625,-0.007964403007924557,0.05771861399710178,-0.08954882656522095
1783174341252149200,2.849149169921875,0.018671967244148255,0.06978314580023288,-0.03473959720879793
1783174341262217200,2.85921728515625,0.03542874851673841,0.07459551451802253,-0.022839389121904967
1783174341272286500,2.869286376953125,-0.0021919570863246918,0.040379941183328626,-0.052303822406753894
1783174341282354400,2.8793544921875,-0.029479192462563513,0.04870353289246559,-0.0841626765474677
1783174341292423400,2.88942333984375,-0.062057519984245295,0.01741992135643959,-0.09510193064771592
1783174341302491400,2.899491455078125,-0.010063421113789082,0.006687514939904213,-0.11898790621310472
1783174341312560400,2.909560302734375,0.05251227752566337,0.013401917886734008,-0.1076745581034571
1783174341322629400,2.91962939453125,0.014034955093264578,0.042727965614199635,-0.08505283032022416
1783174341332697300,2.929697265625,-0.09635054246932268,0.04501636881232261,-0.11424926031865179
1783174341342766300,2.939766357421875,-0.105296357730031,0.049125557696819304,-0.07380582544505596
1783174341352834600,2.94983447265625,-0.095846392339468,0.08918693445026873,-0.10621025770455599
1783174341362903300,2.9599033203125,-0.06244739608466625,0.08892448412179946,-0.16797010991647837
1783174341372971300,2.96997119140625,0.0051060909673571585,0.05907178217172623,-0.1686095037985593
1783174341383040500,2.98004052734375,0.007667758148908615,0.01845686318874359,-0.13108831304721533
1783174341393108500,2.9901083984375,-0.055551206830143925,0.024866730231046675,-0.0856829449173063
1783174341403177500,3.000177490234375,-0.11243892296105623,0.05694119988381862,-0.0698980774167925
1783174341413246500,3.01024658203125,-0.09242547798007726,0.13354103996157646,-0.05573167796358466
1783174341423314400,3.020314453125,-0.0209203306928277,0.15578502047359943,-0.06040507660210132
1783174341433383400,3.030383544921875,0.009193652541935443,0.11451543697416781,-0.04983772455416619
1783174341443451400,3.040451416015625,-0.034603403608500956,0.1123725797265768,-0.07182970306649804
1783174341453520400,3.050520263671875,-0.06216536427289247,0.09445464572012424,-0.15407251746729014
1783174341463588400,3.06058837890625,-0.014563947403430939,0.06650748513042927,-0.17131233301647006
1783174341473657300,3.0706572265625,0.021951427306234835,0.0579097526550293,-0.10900310329347848
1783174341483726600,3.0807265625,-0.046670858021080494,0.05521802935302257,-0.14077252558507025
1783174341493794600,3.090794677734375,-0.04069645978659391,0.06787468183040618,-0.1645819287829101
1783174341503863300,3.10086328125,-0.03433949197530746,0.05273965654075145,-0.1254085138451308
1783174341513931500,3.110931640625,-0.020648820275068282,0.05221183327436447,-0.09662892101928591
1783174341524000500,3.12100048828125,-0.04114946425110101,0.04319558312594891,-0.0724626672077924
1783174341534068200,3.131068115234375,-0.043460956063866615,0.05807341878414154,-0.08146203928664326
1783174341544137500,3.141137451171875,-0.011230419066548347,0.04660159217715263,-0.07290142395123839
1783174341554206500,3.15120654296875,-0.012279635858535766,0.04395779967010021,-0.05862447679564357
1783174341564274400,3.1612744140625,-0.04624941773861646,0.03984627269804478,-0.09792049519978463
1783174341574343400,3.171343505859375,-0.10786416239142417,0.06167115101516246,-0.12183496620729566
1783174341584411400,3.181411376953125,-0.05134937122613191,0.050825931873917575,-0.12034122051820158
1783174341594480600,3.191480712890625,0.033254619348049165,0.02401683540344238,-0.12924633844234049
1783174341604548400,3.20154833984375,0.05045329916924238,0.0144523037225008,-0.10650076508373021
1783174341614617300,3.211617431640625,0.02945668836981058,0.056060909917950624,-0.11193316539600491
1783174341624685300,3.221685302734375,-0.005903086563944816,0.09052607409954071,-0.11312420181147753
1783174341634754300,3.23175439453125,-0.04854220485091209,0.07085749703347682,-0.07878412531428039
1783174341644823300,3.2418232421875,-0.07320552146434783,0.1022165118932724,-0.0629580490205437
1783174341654891500,3.2518916015625,-0.05794511622935533,0.08648819688558577,-0.11732011913135647
1783174341664960500,3.26196044921875,-0.0026081366717815397,0.0777080935806036,-0.11482669488042592
1783174341675028200,3.2720283203125,0.001479132641851902,0.08665595466792583,-0.10615173245035112
1783174341685097500,3.282097412109375,-0.043861645819246765,0.08252455395162105,-0.15438764783106743
1783174341695165400,3.29216552734375,-0.0773982969790697,0.0832674812734127,-0.1357151691302657
1783174341705234200,3.302234130859375,-0.06842442466765641,0.07099485967755317,-0.09448715975023805
1783174341715303400,3.312303466796875,-0.022663374967873094,0.043616438886523244,-0.06264401463530957
1783174341725371400,3.322371337890625,0.028925357972085473,0.02653086405098438,-0.07012509110569953
1783174341735440400,3.3324404296875,0.047124739268422124,-0.006788637226819992,-0.05955810438394546
1783174341745508400,3.34250830078125,-0.009905015681684016,0.013057049971818923,-0.04047784859985113
1783174341755577300,3.352577392578125,-0.021091011084616182,0.046831309279799456,-0.056454073954001066
1783174341765645600,3.3626455078125,-0.06074117668867111,0.06470949579775333,-0.09034494537897407
1783174341775714300,3.37271435546875,-0.014260580542683601,0.04773614916503429,-0.07554185545742512
1783174341785783300,3.382783203125,0.06580255173146725,0.03850830209255218,-0.06805018452778458
1783174341795851500,3.3928515625,0.05346417142301797,0.0383200860440731,-0.11947137888111173
1783174341805920300,3.402920166015625,0.00670592737942934,0.029251228925585744,-0.15928163041770457
1783174341815988200,3.41298828125,-0.035332010143995285,-0.0019347674548625944,-0.11655702580437063
1783174341826057500,3.423057373046875,-0.03831073369383812,0.003943184667825699,-0.048724575680494306
1783174341836125400,3.43312548828125,-0.05283318004310131,0.03777764973044395,-0.05243921228945255
1783174341846194400,3.4431943359375,-0.0682508216664195,0.052604047462344164,-0.032327275370061394
1783174341856262400,3.453262451171875,-0.04533639454692602,0.057954176318645474,0.008762494583055376
1783174341866331400,3.463331298828125,0.020405659168958663,0.023716391152143478,-0.022234482031315565
1783174341876400400,3.473400390625,-0.018300795844197273,0.04579027579426765,-0.09903627442196011
1783174341886468400,3.48346826171875,-0.0662970572501421,0.05636836843192577,-0.187522147930786
1783174341896537300,3.493537353515625,-0.030375849041342735,0.050016369056701655,-0.17209851495809853
1783174341906605600,3.50360546875,-0.0007774141132831573,0.02119184111058712,-0.16431553293168544
1783174341916674300,3.51367431640625,-0.03170329825282096,0.034525954458117486,-0.08055624955333769
1783174341926742300,3.5237421875,-0.04736351646035909,0.04065642003715038,-0.05785955683775246
1783174341936811500,3.5338115234375,-0.04935293671190739,0.07106909395754336,-0.031836423113197086
1783174341946880300,3.54388037109375,-0.048480537791550156,0.11579320182502269,-0.024129940389096736
1783174341956948500,3.553948486328125,-0.00651420419961214,0.12109306179881095,-0.0684608111552894
1783174341967017500,3.564017578125,-0.0023866028755903245,0.06589081453680992,-0.09323569838441907
1783174341977085400,3.57408544921875,-0.003217208480834961,0.03351823872029781,-0.10603387822434306
1783174341987154400,3.584154541015625,-0.035114860261976716,0.033795302096009255,-0.13410093886666
1783174341997222400,3.594222412109375,-0.07424509364515543,0.03751461488008499,-0.16262721451856196
1783174342007291400,3.60429150390625,-0.03975099563002586,0.0394184026747942,-0.10551869524382054
1783174342017360400,3.6143603515625,-0.018723405170440674,0.03553717732727527,-0.08594817172475158
1783174342027428400,3.624428466796875,-0.032517244984209534,0.04848842883706093,-0.10712605737522243
1783174342037497600,3.63449755859375,-0.05399111790657043,0.05541150609850883,-0.10950235805250703
1783174342047565600,3.644565673828125,-0.05899754789173603,0.02923895396590233,-0.08234905125424265
1783174342057634300,3.65463427734375,-0.004849193596839905,0.046998482540249825,-0.02993446194939315
1783174342067702300,3.664702392578125,-0.02492313659340143,0.05981061784029006,-0.046105040831863876
1783174342077771500,3.674771484375,-0.10337152714729309,0.09324176279902457,-0.10641140629984437
1783174342087839500,3.684839599609375,-0.07826309711486101,0.07486205649971961,-0.0837650555320084
1783174342097908500,3.694908447265625,-0.009708031804859638,0.0324251827865839,-0.10701755549944937
1783174342107977500,3.7049775390625,-0.00041501054167747495,-0.004062427133321762,-0.094589378015697
1783174342118045400,3.71504541015625,-0.06831774942278862,-0.006190086811780929,-0.06570566722825169
1783174342128114400,3.725114501953125,-0.05851531733274459,0.05703238529860973,-0.08688698694482445
1783174342138182400,3.735182373046875,-0.04658025712817907,0.08348667698204516,-0.11487572165392339
1783174342148251400,3.74525146484375,0.004343582162261009,0.12064940968453883,-0.08764036259539425
1783174342158319400,3.7553193359375,-0.0004728782087564468,0.10631459486186504,-0.0766218327138573
1783174342168388400,3.765388427734375,-0.01524228505641222,0.10651099421679973,-0.08769837639294564
1783174342178457600,3.77545751953125,0.014868191047012804,0.09949147084355353,-0.06061258187294006
1783174342188525300,3.785525390625,-0.01813391484469175,0.1088783078700304,-0.08760704484768211
1783174342198594300,3.79559423828125,-0.05829319901466369,0.09828794027268886,-0.13866072106286884
1783174342208662500,3.80566259765625,-0.06758885062634945,0.05681085150241851,-0.1293930534366518
1783174342218731500,3.8157314453125,-0.0892474324658513,0.04579495196938514,-0.11940825051702558
1783174342228799200,3.82579931640625,-0.10044336474090813,0.04910743751823902,-0.13729169773198663
1783174342238868500,3.835868408203125,-0.07889175040721892,0.04032791873514652,-0.1584898955181241
1783174342248937500,3.8459375,0.0014086977541446686,0.034660979014635086,-0.07250365680530667
1783174342259004700,3.856004638671875,0.02056611042767763,0.049915831291675566,-0.07129793427735567
1783174342269073700,3.86607373046875,-0.024455519081652163,0.06476619442105293,-0.11307305614612996
1783174342279141600,3.8761416015625,-0.058605625964701175,0.05213175377547741,-0.09862601312063633
1783174342289211000,3.8862109375,-0.04195347411036491,0.08426467561721801,-0.09051219170466066
1783174342299278800,3.89627880859375,-0.046316345494985575,0.09626724810004234,-0.11243256628550588
1783174342309347600,3.90634765625,0.0012146364867687224,0.055792614370584484,-0.10619885952770709
1783174342319415800,3.916415771484375,-0.004733458262681961,0.01929039140343666,-0.11026194424815475
1783174342329484800,3.92648486328125,-0.017514321641623972,-0.01232522856593132,-0.11703048853501677
1783174342339553500,3.936553466796875,-0.018196166425943374,0.03270107711851596,-0.11817900098301469
1783174342349621800,3.946621826171875,-0.06700842038989066,0.08459317691922187,-0.08266367016136646
1783174342359690800,3.956690673828125,-0.0650116936147213,0.11834113274216651,-0.05912424301132559
1783174342369758700,3.9667587890625,-0.036574119159579276,0.11619126123189925,-0.07584668362289666
1783174342379827700,3.97682763671875,-0.02620236274898052,0.05973638356029987,-0.07579502650089562
1783174342389895700,3.986895751953125,0.006239771172404289,0.02990530892014503,-0.118407841302827
1783174342399965000,3.99696484375,-0.000699088180065155,0.015074235013127326,-0.1762981586050242
1783174342410033700,4.00703369140625,0.03678337799608707,-0.0021294132441282273,-0.13412278537228703
1783174342420101600,4.0171015625,0.12349720033109188,0.04687339485585689,-0.11492613666690886
1783174342430171000,4.0271708984375,0.0651090165093541,0.09166004656553269,-0.09663067458495497
1783174342440238600,4.037238525390625,-0.014496142864227294,0.049208559805154796,-0.012430223310366272
1783174342450307600,4.0473076171875,-0.044188101294636725,0.059141340276598925,0.027855755979195235
1783174342460375800,4.057375732421875,-0.03555675881057978,0.071987377846241,0.013441665375232696
1783174342470444800,4.06744482421875,-0.05427957945913076,0.07674830863773822,-0.016906491941586135
1783174342480513800,4.077513671875,-0.09175415458977222,0.04929506904482841,-0.07166567161120474
1783174342490581800,4.087581787109375,-0.08233809146881103,0.09062894995212555,-0.05996726970672607
1783174342500650800,4.097650634765625,0.0540010547786951,0.10532032312750816,-0.11510302760377526
1783174342510718500,4.107718505859375,0.08362403962612151,0.08094868293702602,-0.06554601968713104
1783174342520787700,4.11778759765625,0.03402881859093904,0.05592646988332271,-0.0703962361972779
1783174342530855700,4.127855712890625,-0.07050386129021644,0.05175999785363674,-0.13763313158079982
1783174342540924700,4.137924560546875,-0.07805559184402228,0.0711725543320179,-0.17426628745123743
1783174342550993700,4.14799365234375,-0.04211217180341482,0.056764674273133274,-0.15082783645763992
1783174342561061600,4.1580615234375,-0.042054011875391005,0.04221007921993732,-0.09843823546357452
1783174342571131000,4.168130859375,-0.11506021137535571,0.06287818871736527,-0.0873619109801948
1783174342581198600,4.178198486328125,-0.14985241555422543,0.10432371330559254,-0.0958902314811945
1783174342591267600,4.188267578125,-0.05755582465082407,0.10957213535308838,-0.10317563924901187
1783174342601335800,4.198335693359375,0.015169804342091083,0.09824176304340362,-0.08713402050845324
1783174342611404500,4.208404541015625,0.05545096132606268,0.06019289515614509,-0.06357084715664386
1783174342621472500,4.218472412109375,0.026346155133843422,0.045243747827410696,-0.08940203850567341
1783174342631541800,4.228541748046875,0.01538870778977871,0.03500058623254299,-0.10013035326898097
1783174342641610500,4.238610595703125,0.008579612296819687,0.018502455896139143,-0.08233399981558323
1783174342651678700,4.2486787109375,-0.016344693340361118,0.04289747696220875,-0.0872357273172587
1783174342661747700,4.258747802734375,-0.03987959044575691,0.041949382457137106,-0.08149557623006402
1783174342671815700,4.268815673828125,-0.029018589213490483,0.0810369457423687,-0.0722777390949428
1783174342681884700,4.278884765625,-0.018823066152632236,0.09113982208371162,-0.06519589107520878
1783174342691952600,4.28895263671875,0.008458616265654563,0.07319792267978191,-0.02541486563310027
1783174342702021600,4.299021728515625,-0.0020548867031931874,0.059251814913749694,-0.0398349475864321
1783174342712090600,4.309090576171875,0.004703355385363102,0.030123335584998127,-0.046921690976992246
1783174342722158600,4.31915869140625,-0.021807927182316778,0.014046061009168625,-0.08007643014714122
1783174342732227800,4.329227783203125,-0.0476376572266221,0.024817630392313002,-0.08891118624880909
1783174342742295800,4.3392958984375,-0.0702963560193777,0.021490531796216964,-0.0821171421945095
1783174342752364500,4.349364501953125,-0.0820130972981453,0.02091594677865505,-0.10137355826310814
1783174342762432500,4.3594326171875,-0.04423106365352869,0.054953825458884234,-0.15612944999709724
1783174342772501800,4.369501708984375,-0.002751344534754753,0.03676642686128616,-0.17483239690139887
1783174342782570500,4.379570556640625,0.004603402142226696,0.01604571039378643,-0.08873385692052542
1783174342792638700,4.389638671875,0.008618190741539002,0.038971243429183955,-0.11127996218428016
1783174342802707700,4.399707763671875,0.04175882832109928,0.03256371447443962,-0.08853767676129937
1783174342812775700,4.409775634765625,0.07461831087172031,-0.006882745251059532,-0.004328676854074001
1783174342822844700,4.4198447265625,0.035434301474690434,-0.021329788276553154,-0.007581614235416054
1783174342832912600,4.42991259765625,0.010982289524376392,0.023383213675022125,-0.0549049448158592
1783174342842981600,4.439981689453125,-0.00135024556517601,0.029155367335677144,-0.06677117756791412
1783174342853050600,4.450050537109375,0.011723463280498982,0.04247019146084785,-0.00508314848318696
1783174342863118600,4.46011865234375,0.02368219662159681,0.025214520755410193,-0.024253420638293027
1783174342873187800,4.470187744140625,-0.08477876261919737,0.06117255384325981,-0.03156922354437411
1783174342883255800,4.480255859375,-0.06693301706612109,0.0915244374871254,-0.010782017711922526
1783174342893324500,4.490324462890625,-0.022478958311676976,0.11940087092816828,-0.03678060151711106
1783174342903392800,4.500392822265625,0.010133856001496314,0.1017237599402666,-0.11031053263023495
1783174342913461800,4.510461669921875,0.011882745495438576,0.062054012852907174,-0.1803316519048065
1783174342923530500,4.520530517578125,-0.11678338190615177,0.06082943949401378,-0.20824308359399438
1783174342933598700,4.5305986328125,-0.16328531310111283,0.045611412096023554,-0.15460918162725865
1783174342943667700,4.540667724609375,-0.10464724617153405,0.034714170506596566,-0.09062368925511836
1783174342953735700,4.550735595703125,-0.03998626569062471,0.051770519247651095,-0.06927782662659883
1783174342963804700,4.5608046875,-0.038814883823692796,0.07480535787642002,-0.04642207089178264
1783174342973872600,4.57087255859375,-0.06750935564935207,0.10052549006640911,-0.044521132641285655
1783174342983942000,4.58094189453125,-0.031200901688635346,0.09864449862539768,-0.04872771748565137
1783174342994010600,4.5910107421875,0.008339081539213656,0.07584346875250339,-0.08350333585590124
1783174343004078600,4.60107861328125,-0.005200491252541542,0.035191724890470504,-0.09296199600957333
1783174343014147800,4.61114794921875,-0.017111001537740228,0.018154665371775625,-0.15066402419805525
1783174343024215800,4.6212158203125,-0.03817307878881693,0.009380991807579994,-0.13192987843789158
1783174343034284500,4.631284423828125,-0.032847207590937615,0.0203431153267622,-0.10968728616535663
1783174343044352800,4.641352783203125,0.008323591709136963,0.058609425356984136,-0.10417414876706897
1783174343054421800,4.651421875,0.019331600196659565,0.08403086686134338,-0.08212737132757901
1783174343064490800,4.66149072265625,-0.008088029387593268,0.060845806106925006,-0.05711487595029175
1783174343074558700,4.671558837890625,-0.012929039677977561,0.07920037796497345,-0.02509966220408678
1783174343084627700,4.681627685546875,-0.005903086563944816,0.0756862323641777,-0.048078971253335476
1783174343094695700,4.69169580078125,-0.035136195310950274,0.04653846381306648,-0.0899576265618205
1783174343104764700,4.7017646484375,-0.013175123393535612,0.020319734451174735,-0.05500628629848361
1783174343114832600,4.71183251953125,0.00659048430621624,-0.020889643293619156,-0.0835645645238459
1783174343124902000,4.72190185546875,0.016942074711620805,0.009407879814505577,-0.12364713019579648
1783174343134969600,4.731969482421875,0.0017085574835538863,0.04500935454964637,-0.1224165654875338
1783174343145038600,4.74203857421875,0.022627719132602215,0.06986731695234775,-0.10567498178407549
1783174343155107800,4.75210791015625,-0.01803717647194862,0.11078677183985709,-0.09630056584775447
1783174343165175600,4.762175537109375,-0.06543547198474407,0.12781915518343448,-0.1289830843962729
1783174343175244800,4.772244873046875,-0.05228314494490623,0.0951665933817625,-0.0935099122159183
1783174343185312800,4.782312744140625,-0.02991466127038002,0.04447627058625221,-0.05518683049716055
1783174343195381800,4.7923818359375,0.005997779110074043,-0.005053776258230209,-0.012337065134197472
1783174343205448700,4.80244873046875,0.03435878119766712,0.006318681627511978,-0.0049338762056082485
1783174343215517000,4.812516845703125,0.04208732962310314,0.03354571124911308,-0.013593421870842575
1783174343225585700,4.822585693359375,0.05181874230355024,0.054990065816044806,-0.04061374993920326
1783174343235653600,4.832653564453125,0.05071224236637353,0.078570847889781,-0.06065189097002148
1783174343245723000,4.842722900390625,0.05965484275668859,0.08833177892565727,-0.05515044400952756
1783174343255791600,4.85279150390625,0.07192892565727234,0.05351356352269649,-0.06380348686873913
1783174343265860400,4.8628603515625,-0.017206278605759143,0.04141922110319137,-0.08426935179233551
1783174343275929300,4.872929443359375,-0.06717208651900292,0.06753215200304985,-0.12182495626993477
1783174343285997300,4.882997314453125,-0.013060849364101885,0.029072949749231337,-0.1711350767534226
1783174343296066300,4.89306640625,0.005262742833793163,0.06441957294046878,-0.15480368128605185
1783174343306134500,4.903134521484375,-0.020192600940167903,0.06332417891919613,-0.09738171214796602
1783174343316203300,4.913203369140625,0.03424596847295761,0.029210312393307684,0.016275427496433258
1783174343326272500,4.9232724609375,0.03237432938218117,0.04364098880589008,0.014865633763745426
1783174343336340500,4.933340576171875,-0.028334990863502024,0.08045593098402024,-0.005381693038344383
1783174343346409200,4.9434091796875,-0.1170218668371439,0.07433949393033981,-0.015006649669632315
1783174343356477400,4.9534775390625,-0.18144845404028892,0.024539982494711874,-0.011617445622757077
1783174343366546400,4.96354638671875,-0.06787701991796494,0.1671574783593416,-0.18561273411288856
1783174343376614400,4.973614501953125,-0.014407587797939776,0.041626141852140426,-0.22779745969586074
1783174343386683400,4.983683349609375,0.01840162587016821,0.012045242580771446,-0.06643295858949422
1783174343396752400,4.99375244140625,-0.022515198668837545,0.021399346381425856,-0.11918861641697585
1783174343406820400,5.0038203125,-0.10883972942531109,0.05467033234238624,-0.1137497863639146
1783174343416889300,5.013889404296875,-0.06236585528105497,0.015305705681443214,-0.05717639687918126
1783174343426957300,5.023957275390625,-0.005968845276534557,0.018663199415802953,-0.08100903482213616
1783174343437026600,5.034026611328125,0.01279050799012184,0.031197102296352384,-0.14172251978628336
1783174343447094500,5.044094482421875,-0.0022889877200126646,0.05500935503840446,-0.11614135767556727
1783174343457163300,5.054163330078125,-0.06935995195209979,0.03843874398767948,-0.08616481015011668
1783174343467232500,5.064232421875,-0.06987082408368588,0.03286006707251072,-0.04445084388405084
1783174343477300500,5.074300537109375,0.006213759948313236,0.02311667169332504,-0.00458688939884305
1783174343487369200,5.084369140625,0.05311608863770961,0.019934534525871277,-0.017948402209952474
1783174343497437400,5.0944375,0.016122867283225057,0.04063011655211449,-0.03659209320768714
1783174343507506400,5.10450634765625,-0.04560322878956794,0.04538812473416328,-0.05367452623806893
1783174343517574400,5.114574462890625,-0.039810032340884205,0.04393383427262306,-0.08197751452811061
1783174343527643400,5.124643310546875,-0.06976327205598354,0.050102878296375275,-0.1096897703833878
1783174343537712400,5.13471240234375,-0.07505144159197807,0.06478606816530227,-0.12493826598487794
1783174343547780600,5.144780517578125,-0.06368716701269149,0.07323533208072185,-0.11249620610624551
1783174343557849300,5.154849365234375,-0.04896978261321783,0.10232581748664378,-0.12665515290535986
1783174343567917300,5.164917236328125,-0.01136748944967985,0.10864859076738356,-0.1439869575869292
1783174343577986600,5.174986572265625,0.026199147878587244,0.05716682533323764,-0.08760755630433559
1783174343588054500,5.185054443359375,-0.006928045697510242,0.018676643419265747,-0.05655439252331852
1783174343598123300,5.195123291015625,-0.060657590058445926,0.05737082347273826,-0.03697071726173162
1783174343608191500,5.20519140625,-0.1099172955289483,0.09787702138423919,-0.06896408450230955
1783174343618260500,5.215260498046875,-0.08349807515889406,0.13607318878769875,-0.03369059961251914
1783174343628329500,5.22532958984375,-0.025386662451922892,0.14168693701624868,-0.03126965607590973
1783174343638397400,5.2353974609375,-0.011698328839242458,0.12145371180474758,-0.07156272269338369
1783174343648466400,5.245466552734375,0.016655951246619224,0.07617606170773505,-0.10640066571012138
1783174343658534400,5.255534423828125,0.023205519020557404,0.0463023169696331,-0.1019694783296436
1783174343668603400,5.265603271484375,0.06724310592859983,0.033358664244413375,-0.1225556816972792
1783174343678672400,5.27567236328125,0.0323225991949439,0.028240006056427954,-0.13878368985541165
1783174343688740600,5.28574072265625,0.041458384069800375,0.05597089354693889,-0.14842457470819354
1783174343698809300,5.295809326171875,0.023934417816996574,0.040299861684441565,-0.10957491183206439
1783174343708877300,5.305877197265625,0.015134733028709888,0.038620530295372005,-0.0546531620118767
1783174343718946600,5.315946533203125,-0.026369828270375727,0.020419103172421453,-0.04190532411970198
1783174343729014300,5.32601416015625,-0.09308686449825763,0.04681260457932949,-0.010625146649777888
1783174343739083300,5.336083251953125,-0.0819888396397233,0.06439093136787415,0.007202917116135359
1783174343749151500,5.3461513671875,-0.02464519643485546,0.07599369087815284,-0.024841230463609098
1783174343759220500,5.356220458984375,0.03348462871164083,0.04712532379031181,-0.06110840256586671
1783174343769289500,5.36628955078125,0.04339695091694593,-0.0018476736932992934,-0.10440481571778655
1783174343779357400,5.376357421875,0.025673370438814163,-0.005020458510518073,-0.1370470022559166
1783174343789426400,5.386426513671875,-0.008809329399466515,0.0030868600994348526,-0.14555201494656503
1783174343799494400,5.396494384765625,-0.023051205241680143,0.050832946136593816,-0.14012699422314762
1783174343809563400,5.4065634765625,-0.030491292114555833,0.09608604631423949,-0.10869900578036903
1783174343819632400,5.41663232421875,-0.018637772713601588,0.11743629285693168,-0.10079977696314453
1783174343829700400,5.426700439453125,-0.038675183092057704,0.1383884799927473,-0.1045698700863868
1783174343839769300,5.436769287109375,-0.020902210514247416,0.11953940261602401,-0.11333346064798533
1783174343849837300,5.44683740234375,0.01856061582416296,0.07843582333326339,-0.1193037672292441
1783174343859906600,5.456906494140625,0.05105915610790252,0.05100070391893387,-0.10448518747761845
1783174343869974300,5.466974365234375,0.005526362206041813,0.032713936600089075,-0.11336926261372864
1783174343880043500,5.47704345703125,-0.0010334347009658812,-0.026807927426695823,-0.0839439192302525
1783174343890111500,5.487111572265625,-0.04874035777151584,-0.03395721465945244,-0.07498356398753822
1783174343900180200,5.49718017578125,-0.031445524099469185,-0.034222587597370145,-0.12063647713772951
1783174343910249500,5.50724951171875,-0.06387362949550152,-0.040804304075241084,-0.0892684021886438
1783174343920317400,5.5173173828125,-0.026574118670821188,-0.012018939095735549,-0.10524937678314744
1783174343930386400,5.527386474609375,0.09903291342109441,0.0011994389176368714,-0.030155995745584366
1783174343940454400,5.537454345703125,0.16524609178006647,-0.006503975066542625,0.014252616431936621
1783174343950523400,5.5475234375,0.06079933661669493,0.0013145897299051284,-0.04568915350735187
1783174343960592400,5.55759228515625,-0.02947714663594961,0.023127777609229086,-0.07351224932596087
1783174343970660400,5.567660400390625,-0.015650573596358297,0.02204582759141922,-0.0977933616887778
1783174343980729300,5.577729248046875,0.021430326041579247,0.05291676667332649,-0.11382365531772375
1783174343990797600,5.587797607421875,0.06157938107848167,0.08434592415988444,-0.08207987892404198
1783174344000866300,5.5978662109375,0.01239975510686636,0.12071779874563217,-0.10212379210852086
1783174344010934300,5.607934326171875,-0.010545651672780513,0.11361761135160922,-0.09828392168469727
1783174344021003500,5.61800341796875,0.022858605279028416,0.07579553795754909,-0.07741627102717757
1783174344031072300,5.628072265625,0.0033136545926332472,0.03646189095675945,-0.06793876004256308
1783174344041140200,5.63814013671875,-0.027910043449699877,0.012793430599570273,-0.04433167448379099
1783174344051209500,5.64820947265625,-0.04323620739728212,0.02990121726691723,-0.04475413767956197
1783174344061277400,5.65827734375,-0.01605272465646267,0.04663549444675445,-0.06891659209877252
1783174344071346200,5.66834619140625,0.011233633936941623,0.04706570255756378,-0.09755765323676169
1783174344081414400,5.678414306640625,-0.020256606087088583,0.01305412736237049,-0.08785619730316102
1783174344091483400,5.6884833984375,-0.03352876011431217,0.02012567318379879,-0.09505867602787911
1783174344101552400,5.698552490234375,-0.045915363478660584,0.06374386563599109,-0.1221086685821414
1783174344111620400,5.708620361328125,-0.021542846505343913,0.08536182320415973,-0.08653839270286262
1783174344121689300,5.718689453125,0.008780687826871872,0.06502689118385314,-0.0726719260443002
1783174344131757600,5.728757568359375,-0.001675239735841751,0.07509644977748393,-0.07666004583239555
1783174344141826300,5.738826416015625,-0.003944645972549915,0.04706102638244629,-0.09641995444372296
1783174344151894300,5.748894287109375,0.033675767369568343,0.03646013739109039,-0.1033885513473302
1783174344161963500,5.758963623046875,0.05071282688826322,0.01814239041209221,-0.0843834066260606
1783174344172032300,5.7690322265625,0.0077013681575655935,0.021025252372026442,-0.07564648487567902
1783174344182100200,5.779100341796875,-0.029209435610473154,0.03417056514918804,-0.0859205530654639
1783174344192169500,5.78916943359375,-0.04020283105075359,0.05705401260852813,-0.046072892127931114
1783174344202237400,5.799237548828125,0.000009352350234985351,0.07016659215986729,-0.014832389081269501
1783174344212306400,5.809306396484375,0.022310031485557553,0.036027591192722315,-0.026181393026188014
1783174344222374400,5.81937451171875,0.004212649258971214,0.012362053444981574,-0.029003391644358632
1783174344232443400,5.829443359375,-0.026267244678735733,0.02478197455704212,-0.08064429316297173
1783174344242512400,5.839512451171875,-0.051335342700779434,0.019195114335417745,-0.10849909929409622
1783174344252580400,5.849580322265625,-0.06799421655684709,0.03273264130055904,-0.09158822343833745
1783174344262649300,5.8596494140625,-0.01031271969974041,0.03538753972351551,-0.0780032040696591
1783174344272716500,5.869716552734375,0.028754093058407305,0.04471066386401653,-0.10237615943439304
1783174344282785500,5.87978564453125,0.03070318129956722,0.041754736667871474,-0.07559928473308682
1783174344292853500,5.889853515625,0.017271160535514352,0.031931261789798736,-0.049345995514467354
1783174344302922500,5.899922607421875,-0.007673603367805481,0.033550387424230575,-0.06739829649031162
1783174344312991700,5.90999169921875,-0.02617547474205494,0.07292202834784985,-0.05455569298677146
1783174344323059500,5.9200595703125,0.01684621312171221,0.09068564857542515,-0.06546374823115765
1783174344333128400,5.93012841796875,0.030774492970108983,0.05716039559245109,-0.091493457826972
1783174344343196700,5.94019677734375,-0.012687632137537002,0.03357318377792835,-0.09522285361364484
1783174344353265400,5.950265380859375,-0.04813566987663507,0.020213351467251776,-0.09766447461210191
1783174344363333400,5.96033349609375,-0.040727147185802455,0.034061844077706335,-0.09362652433291077
1783174344373402600,5.970402587890625,0.046722588208317754,0.06850245833992957,-0.028734511575102803
1783174344383471600,5.9804716796875,0.12237024212777614,0.062415831902623176,-0.01900361035130918
1783174344393539300,5.990539306640625,0.052233460584282874,0.06303484058380127,-0.02994659077860415
1783174344403608600,6.000608642578125,-0.03011632132232189,0.07335983524322509,-0.03036138212457299
1783174344413676500,6.010676513671875,-0.027843992476165293,0.05348901360332965,-0.06729308255016804
1783174344423745500,6.02074560546875,0.025217151103913784,0.02527121937870979,-0.09302812004834413
1783174344433813500,6.0308134765625,0.014762392584979533,-0.035436639562249184,-0.05393405395708978
1783174344443882500,6.040882568359375,-0.028424422712624072,-0.0353746802419424,-0.044151495611295104
1783174344453951500,6.050951416015625,-0.037251287768781186,0.023646248525381088,-0.06760602095685898
1783174344464019500,6.06101953125,-0.026453707161545752,0.10229951400160789,-0.10842208853513002
1783174344474088400,6.07108837890625,-0.013840309303998946,0.06031213762164116,-0.07041231054924428
1783174344484156700,6.08115673828125,0.030934944228827952,0.04166764290630817,-0.08919095303826033
1783174344494225400,6.091225341796875,0.06240004981160163,0.001977437552809715,-0.09254581642411648
1783174344504293400,6.10129345703125,0.007062193471193313,-0.007413491126894951,-0.09480784307196735
1783174344514362600,6.111362548828125,-0.037082945464551445,0.004983633631467819,-0.09328019511327147
1783174344524431400,6.121431396484375,-0.060950435525178905,0.017973463585972786,-0.01833710926659405
1783174344534499600,6.13149951171875,-0.08785802393406629,0.03763853352069855,-0.01586743121743202
1783174344544568600,6.141568603515625,-0.0527224131450057,0.07294307113587856,0.021297055050730703
1783174344554636500,6.151636474609375,-0.017190788775682447,0.11665420256853103,-0.008499386667460203
1783174344564705500,6.16170556640625,-0.012126783384382724,0.14032909266650676,-0.03543495906181633
1783174344574774500,6.1717744140625,0.0034232524469494817,0.10381108760833739,-0.06289798939637839
1783174344584842500,6.181842529296875,-0.020997779843211172,0.0706926618605852,-0.10578421431221068
1783174344594911500,6.191911376953125,0.009796294610202311,0.033406010517477984,-0.08858436544723808
1783174344604979500,6.2019794921875,0.03719780401587486,0.007355038937926292,-0.10458828252591192
1783174344615048400,6.21204833984375,0.018115502405166625,0.04572948551774025,-0.10621624905392527
1783174344625116700,6.22211669921875,-0.0057274377360939975,0.08210486723482609,-0.10489822525791823
1783174344635185400,6.232185302734375,-0.025818624128401278,0.10636077209115027,-0.09793152805045247
1783174344645254700,6.242254638671875,-0.053716100357472894,0.07013035180270671,-0.10241459174863994
1783174344655322600,6.252322509765625,-0.06762859811484813,0.07338730777204036,-0.0916885420076549
1783174344665391400,6.262391357421875,-0.018313655325770378,0.056530280995368956,-0.07050510339923202
1783174344675459600,6.27245947265625,0.000604103372991085,0.044809448063373565,-0.06975063177011907
1783174344685528600,6.282528564453125,0.0030079496443271635,0.04729892679154873,-0.03858180572018027
1783174344695596500,6.292596435546875,0.0011366028144955635,0.06029109483361244,-0.03168715083561838
1783174344705665500,6.30266552734375,0.011360767447948455,0.08678162687420844,-0.022915376967564224
1783174344715734500,6.312734619140625,-0.013395488145947456,0.1064297456741333,-0.018844182005897162
1783174344725802500,6.322802490234375,-0.017322890722751616,0.11856149749457835,-0.026142595385760067
1783174344735871500,6.33287158203125,-0.04913987848311662,0.1631277844518423,-0.1479728854179382
1783174344745939500,6.342939453125,-0.019375439338386057,0.07476444134414195,-0.07507314196713269
1783174344756008700,6.3530087890625,0.017722119173407554,0.023177461969852445,-0.05763415058404207
1783174344766076700,6.36307666015625,-0.05180529830008745,0.10632862338721752,-0.11426928019337355
1783174344776145400,6.3731455078125,-0.05292348867505788,0.048958968958258624,-0.10115377803258598
1783174344786214700,6.383214599609375,0.017218261304497717,0.014873159483075141,-0.040390535642579196
1783174344796282600,6.39328271484375,-0.007049918511509895,0.028431729236245155,-0.08781542690135538
1783174344806351400,6.403351318359375,0.007636193966865539,0.05017009831368923,-0.08178418391309678
1783174344816419600,6.413419677734375,0.03417465680241585,0.059901803255081175,-0.12325016676746309
1783174344826488600,6.423488525390625,-0.009098667734861373,0.010026303973793983,-0.09142134243883192
1783174344836556500,6.433556640625,-0.025910686326026916,0.01338964292705059,-0.06596592559963464
1783174344846625500,6.44362548828125,-0.05599368990063667,0.019313187757134437,-0.094084424168244
1783174344856694500,6.453694580078125,-0.0708262251123786,-0.008891162464022636,-0.0459269808512181
1783174344866762800,6.4637626953125,-0.02304389871805906,0.016197101563215254,-0.04693783839419484
1783174344876831500,6.47383154296875,0.033308979883790016,0.014539982005953788,-0.011774170554429291
1783174344886899500,6.4838994140625,0.039353813005983826,0.03185235133469105,-0.008525032565370202
1783174344896968700,6.49396875,0.012521335659921168,0.0741267279624939,-0.05225874115601182
1783174344907036400,6.504036376953125,-0.023009411926567552,0.07550035440325736,-0.05878288222774863
1783174344917105400,6.51410546875,-0.011519465140998364,0.054204468396306035,-0.0693418317735195
1783174344927174700,6.524174560546875,0.01714490380734205,0.02953472204208374,-0.12275259250886737
1783174344937242600,6.53424267578125,0.04778320317715406,0.010035071802139282,-0.0956027928419411
1783174344947311600,6.5443115234375,0.02471446227878332,-0.01656242774426937,-0.08512816057875752
1783174344957379600,6.554379638671875,-0.021619711133837698,0.003837386205792427,-0.07680062334686517
1783174344967448600,6.564448486328125,-0.043295828630030155,0.049049569851160046,-0.018098843531310558
1783174344977516300,6.574516357421875,0.013874503834545611,0.09430208550691604,-0.024729221456497905
1783174344987585500,6.58458544921875,0.0019029110118746757,0.1367015498191118,-0.12592873832695187
1783174344997654500,6.594654541015625,-0.05912205105423927,0.15300503436625004,-0.1535948169529438
1783174345007722500,6.604722412109375,-0.041993806120753284,0.09562076689004897,-0.13613624408654867
1783174345017791500,6.61479150390625,-0.005716624081134796,0.045373511686921116,-0.14235351116620004
1783174345027859500,6.624859375,-0.0014119126245379448,0.027146365600824354,-0.10127703908607363
1783174345037928700,6.6349287109375,-0.022427520385384557,0.03825520411431789,-0.03644859308376908
1783174345047996400,6.644996337890625,-0.018622575144469737,0.04014963955879211,-0.01140555643774569
1783174345058065400,6.6550654296875,0.01489975522905588,0.048237668946385384,0.03485854741334915
1783174345068134700,6.665134765625,0.056818158026039595,0.05059095407426357,0.039630072664096946
1783174345078202400,6.675202392578125,0.06410480790287255,0.08253565986752509,-0.007163023497164249
1783174345088271600,6.685271728515625,0.03211889331638813,0.0688894118309021,-0.07656155389398336
1783174345098339600,6.695339599609375,-0.0351066769555211,0.07372340785861015,-0.1481278567839414
1783174345108408600,6.70540869140625,-0.06801029090881347,0.08183481812179089,-0.13803908203318715
1783174345118477600,6.7154775390625,-0.018385259257256984,0.07161912905573845,-0.1071074988052249
1783174345128545500,6.725545654296875,0.058007367810606954,0.04810848960876465,-0.10519625835642218
1783174345138614500,6.735614501953125,0.07118395250886678,0.047641456618905065,-0.07925590754449367
1783174345148682500,6.7456826171875,0.0448535794660449,0.03975216467380523,-0.07839483373574913
1783174345158751500,6.75575146484375,0.023323007920384407,0.0184346513569355,-0.051884793277084826
1783174345168819500,6.7658193359375,0.0021261983737349507,0.0094721772223711,-0.09421301898397505
1783174345178888400,6.775888427734375,-0.030691198600828647,-0.013534604355692863,-0.09776756966039538
1783174345188957400,6.78595751953125,-0.050427872467041016,-0.03412380339801311,-0.07907762836813927
1783174345199025700,6.796025634765625,-0.02045066735446453,0.059276364833116525,-0.09664360713176429
1783174345209094400,6.806094482421875,-0.1049701945155859,0.04992635268568992,-0.07397277950979769
1783174345219162400,6.816162353515625,-0.01373684892952442,0.02357084520161152,0.007174494739249348
1783174345229231600,6.826231689453125,-0.044586160701513285,0.051744800284504885,-0.010901917764544486
1783174345239299600,6.836299560546875,-0.0025637130081653595,0.06937982569634914,-0.057811187651380894
1783174345249368300,6.846368408203125,0.10142769960314035,0.04546294353604317,-0.004477803001180291
1783174345259437600,6.8564375,0.09860533565878868,0.08106792540252208,-0.13362543030939997
1783174345269506000,6.866506103515625,0.0555631895288825,0.04173778553307056,-0.16181180648244917
1783174345279574800,6.87657470703125,-0.05541238288134336,0.03463818266093731,-0.13651494120582938
1783174345289643000,6.88664306640625,-0.07377922969907522,0.06245031869411468,-0.03828472246974706
1783174345299712000,6.8967119140625,-0.012241934196650981,0.05939385373294353,-0.170859693878144
1783174345309780000,6.906780029296875,-0.042379882828891276,0.04311491910517216,-0.05035210381709039
1783174345319849000,6.916848876953125,0.02429097616970539,0.06643792702555656,-0.05106215178258717
1783174345329918000,6.92691796875,0.015597966626286507,0.051966334080696105,-0.07472542450800537
1783174345339986000,6.93698583984375,0.014624153158068656,0.04134031064808368,-0.022824264618009328
1783174345350055000,6.947054931640625,-0.01773848578631878,0.042483635464310644,-0.0625806670755148
1783174345360123000,6.957122802734375,-0.02509995446503162,0.031094810965657232,-0.04654248240105807
1783174345370192100,6.967192138671875,0.011132803910970688,0.04212006284892559,-0.03973221786431968
1783174345380260900,6.9772607421875,0.09469956039190291,0.0008370353460311889,-0.0440110642272979
1783174345390328800,6.987328857421875,0.10289514180719851,-0.01051964044868946,-0.03229461520947516
1783174345400398000,6.997398193359375,0.015822715292870996,-0.00916764131784439,-0.06454371077679097
1783174345410466000,7.007466064453125,0.004665361462533474,0.0081476506203413,-0.02683262347653508
1783174345420534800,7.01753466796875,-0.06537614301294088,0.08999766631126403,-0.07913293875195085
1783174345430603000,7.02760302734375,-0.15699030461013316,0.06761398506760596,-0.0860569658614695
1783174345440672000,7.037672119140625,-0.05240414097607136,0.02052256354689598,-0.03990333664752543
1783174345450741000,7.047740966796875,0.08818740201890468,0.03852408418357372,-0.09735533559769391
1783174345460809000,7.05780908203125,0.08301204520761966,0.09833645558953284,-0.10738719252943991
1783174345470878000,7.0678779296875,-0.01900543698221445,0.09845978970825671,-0.11743366250842809
1783174345480946000,7.07794580078125,-0.014962883593142032,0.042337504991889,-0.002304989006742835
1783174345491015000,7.088014892578125,-0.0019566870257258415,0.04868658175766468,0.003094093557819724
1783174345501083000,7.098082763671875,0.0007145780101418495,0.05573474670350551,-0.04808803134262561
1783174345511152000,7.108152099609375,0.014168810606002807,0.019754501783847807,-0.0852441881738603
1783174345521220900,7.118220947265625,0.01949205145537853,0.05861351701021194,-0.11610738234072923
1783174345531288800,7.128288818359375,-0.044913492959737775,0.047342181411385534,-0.16400032950267196
1783174345541358000,7.138358154296875,-0.060573418906331056,0.06447744060754776,-0.1317071025326848
1783174345551426000,7.148426025390625,-0.05666589007377624,0.08393968144655227,-0.11581935917958616
1783174345561494800,7.158494873046875,-0.03876724528968334,0.07730360443294047,-0.01624021005257964
1783174345571563000,7.16856298828125,-0.0632537440314889,0.10283201344311237,0.01576528601720929
1783174345581632000,7.178632080078125,-0.05056903450340032,0.10625029745399951,0.021565058337152002
1783174345591701000,7.188700927734375,-0.023982640872895717,0.05733692120313644,0.02849997216686606
1783174345601769000,7.19876904296875,-0.014324293428659438,0.036844168272614476,-0.03016147563830018
1783174345611838000,7.208837890625,0.003451601758599281,-0.027491818037629127,-0.0553127218991518
1783174345621906000,7.218906005859375,-0.022631226263940332,-0.05643091227412223,-0.09291209245324135
1783174345631975000,7.228974853515625,-0.07157908930629492,-0.027341011390089986,-0.12790829477161167
1783174345642043000,7.23904296875,-0.11866817273944616,0.008846154278516769,-0.1654056662559509
1783174345652112100,7.249112060546875,-0.10373246941417455,0.040970308291912075,-0.11254910533726215
1783174345662180900,7.259180908203125,-0.04194032236784696,0.09852993233501911,-0.04200330460146069
1783174345672248800,7.269248779296875,0.012120061382651329,0.12393734531402587,-0.07466916427612304
1783174345682318000,7.279318115234375,0.01165858135074377,0.1239928748935461,-0.06943170201405882
1783174345692385800,7.2893857421875,0.021328911493718624,0.08609890530705451,-0.08140972457751632
1783174345702455000,7.299455078125,0.04822539398670196,0.053689504611492155,-0.09313727951124309
1783174345712523000,7.30952294921875,0.07566197470575571,0.023695932886004446,-0.08533902685046195
1783174345722592000,7.319592041015625,0.030744682353734967,-0.009780804780125617,-0.09509732753783463
1783174345732661000,7.329660888671875,-0.10546586907804012,-0.011418635115027427,-0.07025485496520996
1783174345742729000,7.33972900390625,-0.16820406480282543,0.020593875217437742,-0.02397051204368472
1783174345752798000,7.3497978515625,-0.11778875955641269,0.03858428993821144,-0.002717734526097774
1783174345762866000,7.359865966796875,-0.0664145461499691,0.08546995975375175,0.0003112579062581062
1783174345772935000,7.369934814453125,-0.10256108754724264,0.1140495730280876,-0.03034969168677926
1783174345783004200,7.380004150390625,-0.07312719553112983,0.08851473427712916,-0.017262100446224213
1783174345793071900,7.39007177734375,-0.045724224820733066,0.047964112702012056,-0.06317717166393995
1783174345803140900,7.400140869140625,-0.045514381462335586,0.07174713934957981,-0.06767462921366095
1783174345813209000,7.410208984375,-0.036895313937962054,0.11521978585124015,-0.10566782139092683
1783174345823277800,7.42027783203125,-0.11360270604342222,0.11047229906320571,-0.1509694368854165
1783174345833345800,7.430345703125,-0.03961597107350826,0.10669394956827163,-0.11044584944769739
1783174345843415000,7.4404150390625,0.0407382531017065,0.0812327605754137,-0.09571034486964344
1783174345853483000,7.45048291015625,0.0638917496740818,0.061330959275364874,-0.044225656826049085
1783174345863551700,7.4605517578125,-0.03398410266637802,0.05985562602579593,-0.05628858119398355
1783174345873621000,7.47062109375,-0.10570055461674928,0.10405717132389544,-0.08954992254376411
1783174345883689000,7.48068896484375,-0.06781798320710658,0.07284487145841122,-0.088563541854918
1783174345893758000,7.490758056640625,-0.004442074100673199,-0.0023345804274082184,-0.010589490814507007
1783174345903826000,7.500825927734375,0.04957300920337438,-0.023078093248605727,0.01057823876813054
1783174345913895000,7.51089501953125,-0.01633417194634676,0.07731529487073421,-0.06411401412263512
1783174345923964000,7.5209638671875,-0.06671820527166128,0.07684884640276432,-0.08767594536542891
1783174345934032000,7.531031982421875,-0.0789279907643795,0.10323942520022392,-0.13965791540667413
1783174345944100900,7.541100830078125,-0.037410277722775935,0.07878536742329598,-0.1439396843791008
1783174345954169000,7.551169189453125,0.015953940457105634,0.03503624206781387,-0.03356616951525211
1783174345964237800,7.56123779296875,0.0012044073536992073,0.018717559951543807,0.005057575650513172
1783174345974305800,7.571305908203125,-0.07756985415369272,0.05639817904829979,-0.06649696373641491
1783174345984375000,7.581375,-0.06372428415268659,0.056012979122996326,-0.08152589830309152
1783174345994443800,7.59144384765625,0.029850363862514495,0.004659808504581451,-0.054942865673452614
1783174346004511700,7.60151171875,0.0722507049575448,-0.01953472155332565,-0.08857917781546712
1783174346014581000,7.6115810546875,0.040943712545931335,-0.05814648402035236,-0.03882452843487263
1783174346024649000,7.62164892578125,-0.047270285218954086,-0.023916297638416288,-0.018592180006206036
1783174346034718000,7.631718017578125,-0.1388192726254463,0.04257423635721207,-0.07362564657256007
1783174346044786000,7.641785888671875,-0.1398641055032611,0.10921966865360737,-0.0862824451804161
1783174346054855000,7.65185498046875,-0.03631137657016516,0.11668342866301536,-0.09646978493481874
1783174346064924000,7.661923828125,0.03636749067157507,0.04883563483953476,-0.11881839486509561
1783174346074991900,7.671991943359375,0.0061813189834356306,-0.02836217113137245,-0.11190247799679637
1783174346085060900,7.682060791015625,-0.05162935721129179,-0.003739771050214767,-0.061492871838808055
1783174346095129000,7.692129150390625,-0.06702566378563642,0.025119828209280968,-0.01952113141939044
1783174346105197800,7.70219775390625,-0.021786299872398374,0.05810673653185367,-0.029534137520194053
1783174346115267000,7.71226708984375,-0.03307400208413601,0.07101181081235408,0.0055846682645380495
1783174346125335000,7.7223349609375,-0.031190380294620988,0.1040507415831089,-0.016455314107984304
1783174346135403800,7.73240380859375,-0.012760697373747824,0.12344634692668914,-0.06134235745221376
1783174346145472000,7.742471923828125,-0.016694529691338538,0.11542319946885109,-0.06217939279824495
1783174346155541000,7.752541015625,-0.0024912322938442227,0.10238719228506088,-0.1117407115638256
1783174346165609000,7.76260888671875,0.0053249944150447846,0.08960954377651215,-0.13621844247728584
1783174346175678000,7.772677978515625,-0.003235328659415245,0.10230477469861507,-0.16789236850515007
1783174346185747000,7.782746826171875,-0.03455985672771931,0.06278700330257415,-0.1788309650182724
1783174346195815000,7.79281494140625,-0.06619272009283304,-0.02465513330698013,-0.15068667442128061
1783174346205884000,7.8028837890625,-0.013252280282974243,-0.06606850919127463,-0.07450126036331058
1783174346215952000,7.812951904296875,-0.024187515795230864,-0.008351064237952233,-0.03179579884186387
1783174346226021000,7.823021240234375,-0.013773089286684989,0.10129588991701602,-0.054637014594674106
1783174346236089000,7.833089111328125,0.031738077305257316,0.11407996816635131,-0.01954348938167095
1783174346246157800,7.84315771484375,0.01236614509820938,0.09715279876291752,-0.038346389529109
1783174346256227000,7.85322705078125,-0.03865180221647024,0.06260930864810943,-0.05375336362794041
1783174346266295000,7.863294921875,0.021946751131117343,0.05321545735895633,-0.08482713180556893
1783174346276363800,7.87336376953125,0.03034545390307903,-0.009722937113046646,0.01652238799482584
1783174346286431700,7.883431640625,0.01740238569974899,-0.06719488287270069,-0.08296601410880684
1783174346296500700,7.893500732421875,-0.01937748516499996,-0.07677519664466381,-0.06449205365478992
1783174346306569000,7.90356884765625,-0.025028350533545015,0.00006488192975521087,-0.07298106505870819
1783174346316637700,7.9136376953125,0.047832595276832576,0.10540800141096114,-0.09220467483624815
1783174346326707000,7.92370703125,0.07408785725682973,0.07571779654622078,-0.06616890082582831
1783174346336775000,7.93377490234375,-0.00703618224710226,0.052501171609759326,0.006380494817346334
1783174346346843600,7.94384375,0.03742635207474231,0.0715296972066164,-0.043733781655877824
1783174346356911600,7.95391162109375,-0.013474690861999988,0.08722703255414962,-0.10669044243693351
1783174346366980900,7.96398095703125,-0.00028349311649799344,0.06380991660952567,-0.11308671934530139
1783174346377048800,7.974048828125,-0.01964636523425579,0.07523498146533966,-0.0908973916299641
1783174346387117800,7.984117919921875,0.0000678045392036438,0.0648942047148943,-0.10143763647526502
1783174346397186800,7.994186767578125,-0.008678688757121562,0.02941138792335987,-0.08832900244668125
1783174346407254800,8.0042548828125,-0.0427405328348279,0.008323007187247275,-0.08530497845038772
1783174346417323800,8.01432373046875,-0.07162877366691828,-0.0075479311615228644,-0.12472908021360635
1783174346427391700,8.024391845703125,-0.038977965430915355,0.008014964151382446,-0.09244228298440575
1783174346437460700,8.034460693359375,-0.027132044814527034,-0.00305471139550209,-0.05597586198300123
1783174346447529700,8.04452978515625,-0.053399289493262767,0.04739361933767795,-0.056423898011446
1783174346457597700,8.05459765625,0.010298691174387932,0.03894143281280994,-0.06506985354274511
1783174346467667000,8.0646669921875,0.0782110746666789,0.04635726202726364,0.0058580783784389495
1783174346477735000,8.07473486328125,0.05186871892511844,0.05693477014303207,-0.04140943036153912
1783174346487803600,8.0848037109375,-0.017178806076943873,0.054935120758414266,-0.048835342578589916
1783174346497872000,8.094871826171875,-0.003680734339356422,0.06746084033250808,-0.06478299942538142
1783174346507940900,8.10494091796875,0.09432692768722772,0.11046703836619853,-0.07148001284599304
1783174346518009600,8.115009521484374,0.08717617914974689,0.04147241259515285,-0.07174670095816255
1783174346528077800,8.125077880859376,0.03254208716452121,-0.01664952150583267,-0.09302607422173023
1783174346538146800,8.135146728515625,-0.02200871045142412,0.02055821938216686,-0.0879417566947639
1783174346548214800,8.14521484375,-0.000040332010388374324,0.03938976110219955,-0.07660553916618228
1783174346558283800,8.15528369140625,0.06067424893230199,0.05890694699883461,-0.0619495295651257
1783174346568351700,8.165351806640626,0.06929097836911678,0.07055588373839855,-0.0552910945892334
1783174346578421000,8.1754208984375,-0.010258943685889244,0.040599721413850785,-0.018905776000022887
1783174346588489700,8.18548974609375,-0.07545826882719993,0.037163901746273036,-0.029711832174658774
1783174346598557700,8.1955576171875,-0.05947247192710638,0.03426467317342758,-0.02087050020173192
1783174346608627000,8.205626953125,-0.015621055240929126,0.029956162324547765,-0.0998598657645285
1783174346618694700,8.215694580078125,0.0706122901007533,0.048214872592687606,-0.10438801071345806
1783174346628763600,8.225763671875,-0.04120703965723514,0.007471943315863609,-0.17166282695457338
1783174346638831900,8.235831787109374,-0.06445581329762935,-0.017049334478378295,-0.135383599088341
1783174346648900900,8.24590087890625,-0.01772095012962818,0.03620177871584892,-0.09055018562749027
1783174346658969900,8.255969970703125,-0.015625731416046618,0.07683598692119122,-0.08222118709087371
1783174346669037800,8.266037841796875,0.009110358172655104,0.1283370415776968,-0.0397229385793209
1783174346679106800,8.27610693359375,0.057385436519980425,0.10642039332389831,-0.05568009390681982
1783174346689174800,8.2861748046875,0.06061901161372661,0.03599485796689987,-0.017456892365962266
1783174346699243800,8.296243896484375,0.03949818991273641,-0.01677986988723278,-0.012923194459080696
1783174346709312800,8.306312744140625,0.011031973884999751,-0.017950082710385323,-0.03027881840765476
1783174346719380700,8.316380615234374,-0.0416685196891427,0.04944938282370567,-0.06356953198239207
1783174346729449700,8.32644970703125,-0.030201369257271286,0.06372282284796238,-0.09577098901569843
1783174346739517700,8.336517578125,0.032464053492248054,0.05648235020041466,-0.11617927853316068
1783174346749587000,8.3465869140625,0.027754268366098404,0.0711591103285551,-0.15797142460197208
1783174346759654700,8.356654541015626,0.0530620203629136,0.04560907400846481,-0.1313094815172255
1783174346769724000,8.366723876953126,0.04851882397532463,-0.019333646023273466,-0.08920870789065957
1783174346779793000,8.37679296875,-0.009458733218908309,-0.02478548168838024,-0.09561199906170367
1783174346789860600,8.386860595703125,-0.014757131887972353,0.04310907388627529,-0.08324760752916335
1783174346799929900,8.396929931640624,-0.042410862489044666,0.03972469214498996,-0.06918138051480055
1783174346809997800,8.406997802734375,-0.07001169385910033,0.0469166494756937,-0.06348199982941151
1783174346820066800,8.41706689453125,-0.005895780040323734,0.03207037799954414,-0.08807488155514001
1783174346830134800,8.427134765625,0.0446335069745779,0.011485270610451698,-0.03862769068852067
1783174346840203800,8.437203857421874,0.012812427560985088,0.02412614099681377,-0.06547273525521159
1783174346850272800,8.447272705078126,0.00015197569131851195,0.025523732835054398,-0.04998641230985522
1783174346860340700,8.4573408203125,-0.03527940317392349,0.03473170616328716,-0.06782002903372049
1783174346870409700,8.46740966796875,-0.0361503407895565,0.06605448066592216,-0.04888108141645789
1783174346880477700,8.477477783203126,0.037698154753446574,0.05769757120907306,-0.05053659353852272
1783174346890546700,8.487546630859375,0.04095949463695287,0.014347674304246901,-0.07111059501171112
1783174346900614700,8.49761474609375,-0.02310848838686943,0.0462280826896429,-0.06504720331951976
1783174346910684000,8.507683837890625,-0.00785012897849083,0.07546586761176585,-0.03202595433592796
1783174346920752600,8.517752685546874,0.018980887062847614,0.12195406254231929,-0.05260521650612354
1783174346930820600,8.527820556640625,0.03351736193746328,0.14701193143129349,-0.06641293871477245
1783174346940889900,8.537889892578125,-0.006877484554052352,0.12259762114286422,-0.08259542723074555
1783174346950957800,8.547957763671874,-0.047669513669610024,0.10345920543074608,-0.09875964943766594
1783174346961026600,8.558026611328126,-0.037782325905561444,0.06499941865503787,-0.12767960058227182
1783174346971094800,8.5680947265625,-0.10886924778074025,0.05810381392240524,-0.12379954427853226
1783174346981163800,8.578163818359375,-0.136305828499794,0.03158697839677334,-0.1034459075577557
1783174346991232800,8.588232666015625,-0.13208967210948466,0.031523265510797496,-0.03600041092485189
1783174347001300700,8.59830078125,-0.0717450935229659,0.08519991064071655,-0.08376023322641848
1783174347011369700,8.60836962890625,0.010382277804613113,0.07685761423110961,-0.059343438719958064
1783174347021438000,8.61843798828125,0.029016835647821426,0.1277577803850174,-0.05889043425545096
1783174347031506700,8.628506591796874,0.03237520616501569,0.09357494027614593,-0.07167275893911719
1783174347041575700,8.63857568359375,0.06944178501665592,0.07063011801838874,0.0006593406915664673
1783174347051644000,8.648643798828125,0.06841770266592502,0.041049218747019764,-0.11168313615769147
1783174347061712600,8.658712646484375,0.06088672263920307,-0.01184767418205738,-0.11220102255195379
1783174347071780600,8.668780517578124,0.00400894338041544,-0.02765723773241043,-0.14307956041842698
1783174347081849900,8.678849853515626,-0.010946341428160667,0.009721183547377586,-0.14235519166663288
1783174347091917800,8.688917724609375,-0.012827917391061781,0.031360183903574944,-0.11104746860265731
1783174347101986800,8.69898681640625,-0.006671440587937831,-0.014685527956485747,-0.15112053579390047
1783174347112055800,8.709055908203124,-0.11824088723808526,0.01058978307545185,-0.19371026198118924
1783174347122123800,8.719123779296876,-0.34579964280724523,0.13985504541397095,-0.009870821151137351
1783174347132192800,8.72919287109375,-0.0853872499063611,0.12598960166871548,-0.04405190769433975
1783174347142260700,8.7392607421875,0.07281126144975424,0.11779460477530955,-0.0655329410098493
1783174347152329700,8.749329833984374,-0.00949964975118637,0.08630348796844482,-0.06034706280454993
1783174347162398000,8.75939794921875,0.03777589616477489,0.055234980487823486,-0.06095321200415492
1783174347172466700,8.769466796875,0.017763035705685614,0.08817688062489032,-0.09924041869193315
1783174347182536000,8.779535888671875,0.030610242319107053,0.05936755024790764,-0.13450696238428353
1783174347192604000,8.78960400390625,0.09532558333575725,0.019196867901086805,-0.13880071405544878
1783174347202672600,8.799672607421876,0.09167992030978202,0.014293898290395736,-0.0862830297023058
