time,seconds_elapsed,z,y,x
1783174338483294000,0.0802939453125,0.002629157155752182,0.03525316342711449,-0.025493502616882324
1783174338493362000,0.09036181640625,-0.004467634484171867,0.017974838614463806,-0.014327667653560638
1783174338503431200,0.10043115234375,-0.012601588852703571,-0.0005858023650944233,0.0063985735177993774
1783174338513499100,0.1104990234375,-0.021814262494444847,-0.0073667424730956554,0.0169388335198164
1783174338523568000,0.120568115234375,-0.031101711094379425,-0.012194009497761726,0.021433118730783463
1783174338533636000,0.130635986328125,-0.029906218871474266,-0.01106695830821991,0.01611984521150589
1783174338543705000,0.140705078125,-0.028422905132174492,-0.014249401167035103,0.005764896050095558
1783174338553774000,0.150774169921875,-0.022381257265806198,-0.012112215161323547,-0.00815038662403822
1783174338563842000,0.160842041015625,-0.010247338563203812,-0.008188419044017792,-0.02380847930908203
1783174338573911000,0.1709111328125,0.0009576455340720713,-0.0037896758876740932,-0.038330696523189545
1783174338583979000,0.18097900390625,0.003948538564145565,-0.0011263610795140266,-0.05801770091056824
1783174338594048000,0.191048095703125,-0.001272588619031012,-0.013943355530500412,-0.0447748638689518
1783174338604116000,0.201115966796875,-0.016855860128998756,-0.03361139073967934,-0.015337804332375526
1783174338614185200,0.211185302734375,-0.03644447401165962,-0.04030311480164528,0.001921077840961516
1783174338624254000,0.22125390625,-0.04910634458065033,-0.03317968547344208,0.00014882232062518597
1783174338634322200,0.231322265625,-0.05360335856676102,-0.03456373140215874,-0.012462576851248741
1783174338644391200,0.24139111328125,-0.037088677287101746,-0.013726722449064255,-0.03679130971431732
1783174338654459000,0.251458984375,-0.024700449779629707,0.0047265877947211266,-0.051142290234565735
1783174338664528100,0.261528076171875,-0.02443804405629635,0.0029552564956247807,-0.0427999384701252
1783174338674596000,0.27159619140625,-0.017254965379834175,0.005061284173280001,-0.024929596111178398
1783174338684665000,0.2816650390625,-0.01952269859611988,0.0019069798290729523,-0.005747037939727306
1783174338694734000,0.291734130859375,-0.025507355108857155,-0.004181272350251675,0.02117113023996353
1783174338704802000,0.301802001953125,-0.041946910321712494,-0.019384467974305153,0.03630552813410759
1783174338714871300,0.311871337890625,-0.05637405067682266,-0.03397965431213379,0.043791674077510834
1783174338724939000,0.32193896484375,-0.054515089839696884,-0.03460954129695892,0.025099633261561394
1783174338735008000,0.332008056640625,-0.032543741166591644,-0.006865795236080885,-0.03986338526010513
1783174338745076200,0.342076171875,-0.011971116065979004,0.02420753985643387,-0.1225249394774437
1783174338755145000,0.35214501953125,0.002641115803271532,0.05792821943759918,-0.18063804507255554
1783174338765213000,0.362212890625,0.0064216791652143,0.08694731444120407,-0.17869317531585693
1783174338775282200,0.3722822265625,0.010689927265048027,0.08770658075809479,-0.12722225487232208
1783174338785351000,0.382350830078125,0.007417520508170128,0.10031604766845703,-0.038012489676475525
1783174338795419000,0.3924189453125,-0.006125984713435173,0.12041332572698593,0.04379875585436821
1783174338805488000,0.402488037109375,-0.01612275280058384,0.11917571723461151,0.07936230301856995
1783174338815556000,0.41255615234375,-0.02383526787161827,0.141424298286438,0.062449634075164795
1783174338825625000,0.422625,-0.02503989078104496,0.16920538246631622,-0.0038222172297537327
1783174338835693000,0.432693115234375,-0.027825558558106422,0.1749008148908615,-0.05925777927041054
1783174338845762000,0.442761962890625,-0.044784627854824066,0.21139486134052277,-0.06827288120985031
1783174338855831000,0.4528310546875,-0.05384603515267372,0.22432823479175568,-0.05780372768640518
1783174338865899000,0.46289892578125,-0.05547716096043587,0.23924171924591064,-0.03640173003077507
1783174338875968000,0.472968017578125,-0.05093300715088844,0.243584543466568,-0.031746793538331985
1783174338886036200,0.4830361328125,-0.041325729340314865,0.21069107949733734,-0.03509480878710747
1783174338896105000,0.49310498046875,-0.019788749516010284,0.19671906530857086,-0.030212167650461197
1783174338906173000,0.5031728515625,-0.010334490798413754,0.16471388936042786,-0.029111407697200775
1783174338916242200,0.5132421875,-0.0066002062521874905,0.12622961401939392,-0.025073789060115814
1783174338926310100,0.52331005859375,-0.016316888853907585,0.09388099610805511,-0.029446888715028763
1783174338936379000,0.53337890625,-0.023228323087096214,0.06615110486745834,-0.03479931131005287
1783174338946448100,0.5434482421875,-0.01606866531074047,0.04771740734577179,-0.059096809476614
1783174338956516000,0.55351611328125,0.0016453511780127883,0.022130023688077927,-0.05447595939040184
1783174338966585000,0.563585205078125,0.035209525376558304,0.00042013684287667274,-0.010868562385439873
1783174338976653000,0.573653076171875,0.04220511391758919,-0.02198956534266472,0.06639160215854645
1783174338986722000,0.58372216796875,0.025482386350631714,-0.03639189898967743,0.11657225340604782
1783174338996790300,0.593790283203125,-0.003412909572944045,-0.05969482287764549,0.12798309326171875
1783174339006859000,0.60385888671875,-0.021613357588648796,-0.07088861614465714,0.11657765507698059
1783174339016928000,0.613927978515625,-0.012705615721642971,-0.031649332493543625,0.07421954721212387
1783174339026996200,0.623996337890625,0.0012254565954208374,-0.021719254553318024,0.025234047323465347
1783174339037065000,0.63406494140625,0.010468223132193089,-0.0034244023263454437,-0.019003987312316895
1783174339047133000,0.6441328125,0.014375097118318081,-0.009662149474024773,-0.04024071246385574
1783174339057202200,0.6542021484375,0.017807113006711006,-0.01608089916408062,-0.029728416353464127
1783174339067270100,0.664270263671875,0.03913803771138191,0.010283357463777065,0.008783967234194279
1783174339077339100,0.674339111328125,0.04489126428961754,0.015096754767000675,0.03625687211751938
1783174339087408000,0.684408203125,0.0216679684817791,-0.023147836327552795,0.04920516163110733
1783174339097476000,0.69447607421875,-0.0023153952788561583,-0.030370330438017845,0.054054778069257736
1783174339107545000,0.704545166015625,-0.020887766033411026,-0.02676251530647278,0.05705034360289574
1783174339117613000,0.714613037109375,-0.02880028448998928,-0.04113586246967316,0.05309395492076874
1783174339127682000,0.72468212890625,0.011668020859360695,-0.049104202538728714,0.019342951476573944
1783174339137750300,0.734750244140625,0.04914242401719093,-0.04420771449804306,-0.04915168881416321
1783174339147819000,0.744819091796875,0.0688624158501625,-0.03918718546628952,-0.0985751673579216
1783174339157888300,0.75488818359375,0.07824553549289703,-0.015878401696681976,-0.10307058691978455
1783174339167956200,0.764956298828125,0.06420817226171494,-0.022915370762348175,-0.07969783991575241
1783174339178025000,0.77502490234375,0.09726625680923462,-0.03416828811168671,-0.020581524819135666
1783174339188093200,0.78509326171875,0.0848681777715683,-0.018565108999609947,0.031271129846572876
1783174339198162200,0.795162109375,0.03468410670757294,-0.006434411276131868,0.05951901152729988
1783174339208230100,0.805230224609375,0.009812947362661362,-0.010917464271187782,0.06330614537000656
1783174339218299100,0.815299072265625,0.004121772944927216,-0.03280944749712944,0.04793757572770119
1783174339228367000,0.8253671875,0.016210798174142838,-0.037616193294525146,0.022090718150138855
1783174339238436000,0.83543603515625,0.025511354207992554,-0.0340142697095871,0.00966733880341053
1783174339248505000,0.845505126953125,0.03995995596051216,-0.04451015219092369,0.012282604351639748
1783174339258574300,0.85557421875,0.05492958426475525,-0.044305089861154556,0.01578892208635807
1783174339268643000,0.86564306640625,0.06262299418449402,-0.05105111375451088,0.013995964080095291
1783174339278711000,0.8757109375,0.06208556890487671,-0.05038079619407654,0.00389486039057374
1783174339288780300,0.8857802734375,0.05068102851510048,-0.06227947399020195,0.028218843042850494
1783174339298848300,0.89584814453125,0.040668077766895294,-0.06895974278450012,0.06484609842300415
1783174339308917000,0.9059169921875,0.03409048914909363,-0.06667006015777588,0.08679218590259552
1783174339318986200,0.915986328125,0.04241872578859329,-0.06766688078641891,0.0828016996383667
1783174339329054200,0.92605419921875,0.03848938271403313,-0.06685737520456314,0.08150770515203476
1783174339339123200,0.936123291015625,0.02810678631067276,-0.06342003494501114,0.09136273711919785
1783174339349191200,0.946191162109375,0.018211467191576958,-0.05740896239876747,0.09619782119989395
1783174339359260200,0.95626025390625,0.017933165654540062,-0.03477795049548149,0.06673020869493484
1783174339369328400,0.966328369140625,0.01847359910607338,-0.017406200990080833,0.026071615517139435
1783174339379397000,0.976397216796875,0.013362460769712925,-0.012762712314724922,0.023952271789312363
1783174339389465000,0.986465087890625,0.007181959692388773,-0.015827324241399765,0.0382181778550148
1783174339399534300,0.996534423828125,-0.0073370616883039474,-0.02068040333688259,0.04331972822546959
1783174339409603000,1.00660302734375,-0.0225205160677433,-0.0123972799628973,0.04213058948516846
1783174339419671000,1.016671142578125,-0.034881047904491425,0.010921359993517399,0.0451628640294075
1783174339429740300,1.026740234375,-0.05708145722746849,0.024103328585624695,0.07168734818696976
1783174339439808300,1.036808349609375,-0.058721430599689484,0.0405062697827816,0.09283950179815292
1783174339449877200,1.046877197265625,-0.048747602850198746,0.03849254921078682,0.09294652938842773
1783174339459945200,1.0569453125,-0.038325853645801544,0.023109864443540573,0.08671925961971283
1783174339470014200,1.06701416015625,-0.012505688704550266,0.033253014087677,0.06561925262212753
1783174339480083200,1.077083251953125,0.006510346196591854,0.037544965744018555,0.029735017567873
1783174339490151200,1.087151123046875,0.017177173867821693,0.04711020737886429,0.013084976933896542
1783174339500220200,1.09722021484375,0.01841181516647339,0.05423896014690399,0.001493035233579576
1783174339510288100,1.1072880859375,0.017260588705539703,0.04636935889720917,-0.01138570997864008
1783174339520357000,1.117357177734375,0.019984204322099686,0.03852075710892677,0.002376973396167159
1783174339530425000,1.127425048828125,0.021917231380939484,0.027308428660035133,0.03419787064194679
1783174339540494000,1.137494140625,0.02014489658176899,0.004004436545073986,0.04914938658475876
1783174339550563000,1.14756298828125,0.001944742165505886,-0.027131211012601852,0.07215248048305511
1783174339560631000,1.157631103515625,-0.014617723412811756,-0.04095488041639328,0.08309514075517654
1783174339570700300,1.1677001953125,-0.015474590472877026,-0.04838137701153755,0.06445027142763138
1783174339580768000,1.17776806640625,-0.013434076681733131,-0.04211602360010147,0.03426814079284668
1783174339590837200,1.187837158203125,0.008132503367960453,-0.026177924126386642,0.012807661667466164
1783174339600905200,1.1979052734375,0.026167962700128555,-0.0167135838419199,0.003973157610744238
1783174339610974000,1.207973876953125,0.034052371978759766,-0.03349919989705086,0.007887439802289009
1783174339621042200,1.218042236328125,0.025667939335107803,-0.04697825759649277,0.01584576442837715
1783174339631111200,1.228111083984375,0.008336388505995274,-0.04950331896543503,0.014074299484491348
1783174339641180200,1.23818017578125,-0.005002852529287338,-0.03681575134396553,0.0054773492738604546
1783174339651248000,1.248248046875,-0.02242218516767025,-0.03365272283554077,-0.0028728025499731302
1783174339661317000,1.258317138671875,-0.03560243546962738,-0.061533890664577484,0.01691048964858055
1783174339671385000,1.268385009765625,-0.035822246223688126,-0.07626500725746155,0.05241164565086365
1783174339681454000,1.2784541015625,-0.02465534768998623,-0.07892843335866928,0.06651414930820465
1783174339691522000,1.28852197265625,-0.004181189928203821,-0.05733785405755043,0.03799816220998764
1783174339701591300,1.29859130859375,0.019294308498501778,-0.04849562793970108,-0.007727248128503561
1783174339711660000,1.308659912109375,0.039115529507398605,-0.03352350369095802,-0.028815263882279396
1783174339721728000,1.31872802734375,0.045075416564941406,-0.04217052087187767,-0.024484431371092796
1783174339731797200,1.32879736328125,0.031119827181100845,-0.05081266909837723,-0.006013649515807629
1783174339741865200,1.338865234375,0.011711240746080875,-0.05055753514170647,0.008827348239719868
1783174339751934000,1.348933837890625,-0.002631264738738537,-0.02983846887946129,-0.000462215393781662
1783174339762002200,1.359002197265625,-0.009281177073717117,-0.01605687290430069,-0.02410203218460083
1783174339772071200,1.3690712890625,-0.007466843817383051,-0.008976545184850693,-0.03617323189973831
1783174339782139100,1.37913916015625,0.0002035927027463913,-0.011036233976483345,-0.037861406803131104
1783174339792208100,1.3892080078125,0.0033599641174077988,-0.019440624862909317,-0.03562339395284653
1783174339802277000,1.399277099609375,0.006389842368662357,-0.020677130669355392,-0.03105873614549637
1783174339812345300,1.409345458984375,0.012654145248234272,-0.011867422610521317,-0.029410291463136673
1783174339822414000,1.4194140625,0.016084296628832817,-0.001765785738825798,-0.04098198935389519
1783174339832482000,1.42948193359375,0.013716799207031727,-0.001724983099848032,-0.041278474032878876
1783174339842551300,1.43955126953125,0.011425681412220001,-0.012680694460868835,-0.02925829589366913
1783174339852619300,1.449619384765625,0.002927577355876565,-0.023287994787096977,-0.005253812298178673
1783174339862688000,1.45968798828125,0.00582243362441659,-0.02649923600256443,0.013765685260295868
1783174339872757200,1.46975732421875,0.0025175365153700113,-0.02634510211646557,0.0032973268534988165
1783174339882825200,1.4798251953125,0.0005358782364055514,-0.014396563172340393,-0.004927579313516617
1783174339892894200,1.489894287109375,0.005017102230340242,-0.0032059107907116413,-0.008788250386714935
1783174339902962200,1.499962158203125,0.0036948423366993666,0.002482867334038019,-0.008955763652920723
1783174339913031200,1.51003125,0.0008412829483859241,0.011983071453869343,-0.0005072976928204298
1783174339923099100,1.52009912109375,0.005908213090151548,0.011498376727104187,0.008783405646681786
1783174339933168000,1.530168212890625,0.00949618685990572,-0.0008513471111655235,0.008208046667277813
1783174339943236000,1.540236083984375,0.004529657308012247,-0.0005490779876708984,0.004994942806661129
1783174339953305300,1.550305419921875,-0.003611033083871007,0.0037128203548491,-0.004704522434622049
1783174339963374000,1.5603740234375,-0.0074041737243533134,0.009495342150330544,-0.00890912115573883
1783174339973442000,1.570442138671875,-0.016991449519991875,0.008436581119894981,-0.015857458114624023
1783174339983511300,1.58051123046875,-0.018132347613573074,0.008115670643746853,-0.007568635977804661
1783174339993579300,1.590579345703125,-0.010905190370976925,0.0002806438133120537,-0.004805418662726879
1783174340003648000,1.60064794921875,0.009091687388718128,-0.009451879188418388,-0.016303084790706635
1783174340013716200,1.61071630859375,0.029561972245573997,-0.009517503902316093,-0.031339939683675766
1783174340023785200,1.62078515625,0.03257587179541588,-0.00841815210878849,-0.03201611340045929
1783174340033854200,1.630854248046875,0.02518608793616295,-0.015017864294350147,-0.01731511391699314
1783174340043922200,1.640922119140625,0.022171122953295708,-0.019954297691583633,-0.00016622035764157772
1783174340053991200,1.6509912109375,0.013734744861721992,-0.019466582685709,0.010583773255348206
1783174340064059100,1.66105908203125,0.004194236826151609,-0.017172537744045258,0.014416327700018883
1783174340074128100,1.671128173828125,-0.0043576546013355255,-0.017026007175445557,0.022376975044608116
1783174340084196000,1.681196044921875,-0.0032332679256796837,-0.021111829206347466,0.025985557585954666
1783174340094265300,1.691265380859375,0.005971578881144524,-0.022721288725733757,0.024244001135230064
1783174340104333000,1.7013330078125,0.017116907984018326,-0.02128424681723118,0.019266819581389427
1783174340114402000,1.711402099609375,0.02133924700319767,-0.014206210151314735,0.021315205842256546
1783174340124471300,1.72147119140625,0.024296419695019722,-0.005739754997193813,0.022253703325986862
1783174340134539000,1.7315390625,0.029801802709698677,0.004128449596464634,0.016694363206624985
1783174340144608300,1.741608154296875,0.0320388562977314,0.017950255423784256,0.008328575640916824
1783174340154676200,1.75167626953125,0.027330663055181503,0.014675350859761238,0.004719834309071302
1783174340164745200,1.7617451171875,0.020008301362395287,0.012723786756396294,0.007978744804859161
1783174340174813200,1.771813232421875,0.01065269485116005,0.015616729855537415,0.019410783424973488
1783174340184882200,1.781882080078125,0.008317102678120136,0.02575698308646679,0.022391926497220993
1783174340194951200,1.791951171875,0.021061478182673454,0.03204970061779022,0.013772068545222282
1783174340205019100,1.80201904296875,0.034131210297346115,0.030931707471609116,-0.0010662656277418137
1783174340215088000,1.812088134765625,0.0293198823928833,0.015480803325772285,-0.0077708084136247635
1783174340225156000,1.822156005859375,0.0255776084959507,0.01156595628708601,-0.004042648710310459
1783174340235225000,1.83222509765625,0.014107029885053635,0.008915095590054989,0.00680638337507844
1783174340245293000,1.84229296875,0.00759160565212369,0.011336974799633026,0.006935280282050371
1783174340255362000,1.852362060546875,0.002452847547829151,0.012444799765944481,0.0089455870911479
1783174340265429200,1.86242919921875,-0.00043535069562494755,0.0021708570420742035,0.018684769049286842
1783174340275498500,1.87249853515625,-0.005605929531157017,-0.012388433329761028,0.031525805592536926
1783174340285567200,1.882567138671875,-0.016034336760640144,-0.026375357061624527,0.0462496280670166
1783174340295635200,1.89263525390625,-0.017613889649510384,-0.022832166403532028,0.05195484310388565
1783174340305704400,1.902704345703125,-0.018301252275705338,-0.01599636673927307,0.035432327538728714
1783174340315772400,1.9127724609375,-0.010327843017876148,-0.013483798131346703,0.012678536586463451
1783174340325841200,1.922841064453125,0.0024457427207380533,-0.011472312733530998,-0.0006921293679624796
1783174340335909400,1.932909423828125,0.004377806093543768,-0.005638700909912586,-0.0026541133411228657
1783174340345978400,1.942978271484375,0.001894142129458487,0.0017843274399638176,0.008183088153600693
1783174340356047400,1.95304736328125,-0.008374259807169437,-0.00549974013119936,0.014434133656322956
1783174340366115300,1.963115234375,-0.018608521670103073,-0.01775347627699375,0.015597935765981674
1783174340376184300,1.973184326171875,-0.012842287309467793,-0.02737767994403839,0.009979651309549809
1783174340386252300,1.983252197265625,-0.0009004065068438649,-0.021915270015597343,0.008625167421996593
1783174340396321300,1.9933212890625,0.005563496612012386,-0.02174943871796131,0.01255299337208271
1783174340406389200,2.00338916015625,-0.000521826499607414,-0.023403260856866837,0.018130186945199966
1783174340416458500,2.01345849609375,-0.011450400575995445,-0.03412184864282608,0.026866989210247993
1783174340426526200,2.023526123046875,-0.019520577043294907,-0.03806918486952782,0.028623344376683235
1783174340436595200,2.03359521484375,-0.02191467210650444,-0.03272747993469238,0.027939174324274063
1783174340446664400,2.04366455078125,-0.013429575599730015,-0.02272038348019123,0.024865087121725082
1783174340456732200,2.053732177734375,0.006012436933815479,-0.021373631432652473,0.02061993069946766
1783174340466801200,2.06380126953125,0.01694870926439762,-0.01779620721936226,0.020696895197033882
1783174340476869400,2.073869384765625,0.007457786239683628,-0.011381661519408226,0.029960624873638153
1783174340486938000,2.083938232421875,-0.00998618546873331,-0.014209939166903496,0.047967322170734406
1783174340497006000,2.094006103515625,-0.02262571081519127,-0.014505436643958092,0.04707235097885132
1783174340507075300,2.104075439453125,-0.031201090663671494,-0.01280900463461876,0.03151469677686691
1783174340517143300,2.114143310546875,-0.02592920884490013,-0.004797246772795916,0.00981876440346241
1783174340527212300,2.12421240234375,-0.02255232073366642,-0.001028075348585844,0.005237061530351639
1783174340537281300,2.13428125,-0.010209563188254833,0.0024087615311145782,0.013894078321754932
1783174340547349200,2.144349365234375,0.004969656001776457,0.0010050092823803425,0.02270115353167057
1783174340557418200,2.154418212890625,0.015411763451993465,-0.010617004707455635,0.025955501943826675
1783174340567486200,2.164486328125,0.012892679311335087,-0.012289203703403473,0.03536258265376091
1783174340577555200,2.17455517578125,0.00005333928856998682,-0.014111177995800972,0.03931867331266403
1783174340587623400,2.18462353515625,-0.009311400353908539,-0.013022743165493011,0.03504163399338722
1783174340597692200,2.194692138671875,-0.017300212755799294,-0.016594048589468002,0.033608242869377136
1783174340607761400,2.204761474609375,-0.024786625057458878,-0.01880953274667263,0.039555881172418594
1783174340617829400,2.214829345703125,-0.023092804476618767,-0.026748359203338623,0.04144665226340294
1783174340627898000,2.224898193359375,-0.014036724343895912,-0.03673041984438896,0.03176899254322052
1783174340637966300,2.23496630859375,-0.012064920738339424,-0.03673015162348747,0.02989386022090912
1783174340648035300,2.245035400390625,-0.014075873419642448,-0.019596440717577934,0.045396920293569565
1783174340658103300,2.255103271484375,-0.012157520279288292,-0.006892678793519735,0.06181785464286804
1783174340668172300,2.26517236328125,-0.0053496817126870155,0.009055128321051598,0.05567767098546028
1783174340678240300,2.275240234375,-0.0026043839752674103,0.028636384755373,0.036877311766147614
1783174340688309200,2.285309326171875,-0.0009010260691866279,0.040751904249191284,0.018779268488287926
1783174340698378200,2.295378173828125,-0.01263780053704977,0.030938757583498955,0.016210466623306274
1783174340708446200,2.3054462890625,-0.019147630780935287,0.02513040415942669,0.026569897308945656
1783174340718515200,2.31551513671875,-0.02293112315237522,0.036281898617744446,0.0239001102745533
1783174340728583400,2.32558349609375,-0.015927011147141457,0.04889276623725891,0.0013226307928562164
1783174340738652200,2.335652099609375,-0.00552063062787056,0.05586620420217514,-0.013757364824414253
1783174340748720000,2.34572021484375,0.0009881347650662065,0.058970384299755096,-0.0114763667806983
1783174340758789400,2.355789306640625,0.010740726254880428,0.06142893806099892,-0.004905708134174347
1783174340768858000,2.365858154296875,0.011064033955335617,0.061894990503787994,-0.0022263017017394304
1783174340778926300,2.37592626953125,0.010942446999251842,0.06742080301046371,-0.006380067206919193
1783174340788995300,2.385995361328125,0.010165070183575153,0.05878044664859772,-0.00627034530043602
1783174340799063300,2.396063232421875,0.006646597757935524,0.052193574607372284,0.0018971466924995184
1783174340809132300,2.40613232421875,-0.004298461601138115,0.04339448735117912,0.012347390875220299
1783174340819200300,2.4162001953125,-0.014368698932230473,0.03580218553543091,0.02267037332057953
1783174340829269200,2.426269287109375,-0.019149338826537132,0.022539110854268074,0.022353190928697586
1783174340839338200,2.436338134765625,-0.02277345582842827,0.01594092696905136,0.019228238612413406
1783174340849406200,2.44640625,-0.01573152467608452,0.025892628356814384,0.009065615944564342
1783174340859475500,2.456475341796875,-0.006994252093136311,0.03325024992227554,-0.0019276083912700415
1783174340869543400,2.46654345703125,0.005955901928246021,0.03977419435977936,0.0019925646483898163
1783174340879612200,2.476612060546875,0.01107953954488039,0.030369803309440613,0.00684169540181756
1783174340889680400,2.486680419921875,0.009851555339992046,0.0059400927275419235,-0.0034141382202506065
1783174340899749400,2.496749267578125,0.014250203967094421,-0.005380599293857813,-0.0038716772105544806
1783174340909817300,2.5068173828125,0.01069648191332817,-0.006014165002852678,0.00529838539659977
1783174340919886300,2.51688623046875,0.007875369861721992,-0.009595479816198349,0.017890647053718567
1783174340929955300,2.526955322265625,0.00863969698548317,-0.014675725251436234,0.02345239371061325
1783174340940023300,2.537023193359375,0.011704781092703342,-0.015337731689214706,0.010908563621342182
1783174340950092300,2.54709228515625,0.014847577549517155,-0.012266308069229126,-0.006385471671819687
1783174340960160300,2.55716015625,0.009100904688239098,-0.007691908162087202,-0.017848899587988853
1783174340970229500,2.5672294921875,0.0030249031260609627,0.002449143212288618,-0.006700906436890364
1783174340980297200,2.577297119140625,0.0024014057125896215,0.00752986641600728,0.006198722869157791
1783174340990366200,2.5873662109375,0.015873538330197334,0.0061594033613801,0.00808823574334383
1783174341000435500,2.597435546875,0.03171993046998978,-0.003932590130716562,0.009652500972151756
1783174341010503200,2.607503173828125,0.030989693477749825,-0.012312492355704308,0.010536404326558113
1783174341020572200,2.617572265625,0.01649945043027401,-0.017271921038627625,0.018476471304893494
1783174341030640400,2.627640380859375,-0.007351820357143879,-0.022311687469482422,0.03173821419477463
1783174341040709400,2.63770947265625,-0.022782612591981888,-0.020168185234069824,0.042038898915052414
1783174341050777000,2.647777099609375,-0.028888709843158722,-0.026240194216370583,0.03775174170732498
1783174341060846300,2.657846435546875,-0.019911201670765877,-0.02462790161371231,0.025682982057332993
1783174341070914300,2.667914306640625,-0.01033873576670885,-0.022954106330871582,0.022669348865747452
1783174341080983000,2.677983154296875,-0.00344145018607378,-0.024778516963124275,0.02187059447169304
1783174341091052300,2.68805224609375,-0.004273421596735716,-0.025334054604172707,0.019880682229995728
1783174341101120300,2.698120361328125,0.007371946703642607,-0.014461543411016464,0.013284447602927685
1783174341111189200,2.708189208984375,0.012000254355370998,-0.0042453911155462265,0.010525145567953587
1783174341121257200,2.71825732421875,0.012894011102616787,0.011900821700692177,0.016082895919680595
1783174341131326200,2.728326171875,0.011799984611570835,0.012390576303005219,0.02013542875647545
1783174341141394400,2.73839453125,0.0064695230685174465,0.00860763993114233,0.02092565968632698
1783174341151463200,2.748463134765625,0.0008356056059710681,0.014378976076841354,0.02802351675927639
1783174341161532200,2.7585322265625,0.0024437669198960066,0.023985713720321655,0.02579890750348568
1783174341171600400,2.768600341796875,0.0037069041281938553,0.029144523665308952,0.015331086702644825
1783174341181669000,2.778669189453125,0.009381885640323162,0.03618624061346054,0.011734412983059883
1783174341191737000,2.788737060546875,0.010724118910729885,0.03382162004709244,0.010697112418711185
1783174341201806300,2.798806396484375,0.005635316949337721,0.03685375303030014,0.0061587500385940075
1783174341211874300,2.808874267578125,0.006739197298884392,0.03481829911470413,0.0035184919834136963
1783174341221943300,2.818943359375,0.0058571407571434975,0.02895357459783554,0.007034274749457836
1783174341232011300,2.82901123046875,0.007920557633042336,0.023795297369360924,0.00705637875944376
1783174341242080300,2.839080322265625,0.0015330258756875992,0.012457730248570442,0.007314207497984171
1783174341252149200,2.849149169921875,0.002616133540868759,0.007454182952642441,0.004275008104741573
1783174341262217200,2.85921728515625,0.00454286253079772,0.0021957443095743656,0.000439648749306798
1783174341272286500,2.869286376953125,0.006228909362107515,-0.008124536834657192,0.0054530492052435875
1783174341282354400,2.8793544921875,0.007246760651469231,-0.019840238615870476,0.017403174191713333
1783174341292423400,2.88942333984375,0.00483526848256588,-0.01903623156249523,0.023728713393211365
1783174341302491400,2.899491455078125,0.008921725675463676,-0.006933916360139847,0.016505803912878036
1783174341312560400,2.909560302734375,0.010552112944424152,0.005275878589600325,-0.005944377742707729
1783174341322629400,2.91962939453125,0.004605377558618784,0.003039201721549034,-0.013617893680930138
1783174341332697300,2.929697265625,0.0026226539630442858,-0.004557731095701456,-0.005592192057520151
1783174341342766300,2.939766357421875,0.004630994983017445,-0.013211349956691265,0.005237744189798832
1783174341352834600,2.94983447265625,-0.003396571148186922,-0.017407160252332687,0.020500585436820984
1783174341362903300,2.9599033203125,-0.010291743092238903,-0.01142472680658102,0.017963780090212822
1783174341372971300,2.96997119140625,-0.007522322703152895,-0.0057934727519750595,-0.0001358604058623314
1783174341383040500,2.98004052734375,-0.005544555373489857,0.0032755020074546337,-0.012564449571073055
1783174341393108500,2.9901083984375,-0.0018954919651150703,0.008663875982165337,-0.00919421948492527
1783174341403177500,3.000177490234375,-0.005326916463673115,0.001048076432198286,-0.0006883179303258657
1783174341413246500,3.01024658203125,-0.0099557563662529,0.0009737741202116013,-0.004509687889367342
1783174341423314400,3.020314453125,-0.0123510817065835,0.004885740112513304,-0.007315481547266245
1783174341433383400,3.030383544921875,-0.005236446391791105,0.0036367177963256836,-0.004254977218806744
1783174341443451400,3.040451416015625,0.0031387486960738897,0.0013969354331493378,0.0015536397695541382
1783174341453520400,3.050520263671875,0.009055759757757187,0.000057365745306015015,-0.001898882444947958
1783174341463588400,3.06058837890625,0.019178427755832672,-0.0015556961297988892,-0.0062463353388011456
1783174341473657300,3.0706572265625,0.020883915945887566,-0.0015636859461665154,-0.0019125728867948055
1783174341483726600,3.0807265625,0.01942460611462593,-0.003364936448633671,0.007321257144212723
1783174341493794600,3.090794677734375,0.012839674949645996,0.002308662049472332,0.0034239869564771652
1783174341503863300,3.10086328125,0.017062466591596603,0.001098725013434887,0.003924123011529446
1783174341513931500,3.110931640625,0.022074270993471146,0.0006260140798985958,-0.002241627313196659
1783174341524000500,3.12100048828125,0.021505342796444893,-0.005538090132176876,-0.002190382918342948
1783174341534068200,3.131068115234375,0.022219868376851082,-0.0019532088190317154,-0.013165801763534546
1783174341544137500,3.141137451171875,0.01822742074728012,0.00039878301322460175,-0.01085642445832491
1783174341554206500,3.15120654296875,0.014325357042253017,-0.004010878968983889,-0.00914374552667141
1783174341564274400,3.1612744140625,0.001755786594003439,-0.005694353953003883,0.008578645996749401
1783174341574343400,3.171343505859375,-0.0022176499478518963,-0.00994529202580452,0.012680979445576668
1783174341584411400,3.181411376953125,-0.007081835996359587,-0.007618803530931473,0.0001674736849963665
1783174341594480600,3.191480712890625,-0.0025195744819939137,-0.00564806442707777,-0.014366728253662586
1783174341604548400,3.20154833984375,-0.005229066126048565,-0.004873365163803101,-0.014184461906552315
1783174341614617300,3.211617431640625,-0.001699579181149602,-0.009404467418789864,-0.002217014553025365
1783174341624685300,3.221685302734375,0.003005668055266142,-0.017978407442569733,0.00010556611232459545
1783174341634754300,3.23175439453125,0.011952291242778301,-0.02181389182806015,0.010662602260708809
1783174341644823300,3.2418232421875,0.014056343585252762,-0.027261752635240555,0.004297157283872366
1783174341654891500,3.2518916015625,0.015193512663245201,-0.021804936230182648,-0.0011753723956644535
1783174341664960500,3.26196044921875,0.019071266055107117,-0.014564817771315575,-0.009435852989554405
1783174341675028200,3.2720283203125,0.011797105893492699,-0.0051004765555262566,-0.010503514669835567
1783174341685097500,3.282097412109375,0.00894344411790371,-0.005021050572395325,-0.008691494353115559
1783174341695165400,3.29216552734375,0.008463009260594845,-0.006984333507716656,-0.008448347449302673
1783174341705234200,3.302234130859375,0.007897276431322098,-0.00664739403873682,-0.014606796205043793
1783174341715303400,3.312303466796875,0.009963623248040676,-0.007540618069469929,-0.02439418062567711
1783174341725371400,3.322371337890625,0.012362366542220116,-0.007604388054460287,-0.027318526059389114
1783174341735440400,3.3324404296875,0.017727037891745567,-0.0015302500687539577,-0.016074392944574356
1783174341745508400,3.34250830078125,0.016452088952064514,-0.006483918521553278,0.002089061541482806
1783174341755577300,3.352577392578125,0.016884321346879005,-0.013223845511674881,0.01564961113035679
1783174341765645600,3.3626455078125,0.011960058473050594,-0.031891755759716034,0.018415948376059532
1783174341775714300,3.37271435546875,0.011657523922622204,-0.033455297350883484,0.010019267909228802
1783174341785783300,3.382783203125,0.010793918743729591,-0.024833006784319878,0.0018521839519962668
1783174341795851500,3.3928515625,0.0050074029713869095,-0.01853649504482746,-0.007607364561408758
1783174341805920300,3.402920166015625,-0.0032937033101916313,-0.014896633103489876,-0.006290500517934561
1783174341815988200,3.41298828125,-0.004946460947394371,-0.00962117686867714,-0.002994039561599493
1783174341826057500,3.423057373046875,-0.009034620597958565,-0.0025110291317105293,0.0027669421397149563
1783174341836125400,3.43312548828125,-0.010519599542021751,-0.010231532156467438,0.0021813130006194115
1783174341846194400,3.4431943359375,-0.006186590995639563,-0.025698035955429077,-0.0014516841620206833
1783174341856262400,3.453262451171875,0.0017083496786653996,-0.03046109899878502,-0.0051385643891990185
1783174341866331400,3.463331298828125,0.006878961343318224,-0.024410728365182877,-0.0002759052440524101
1783174341876400400,3.473400390625,0.003329766681417823,-0.019959254190325737,0.0060102203860878944
1783174341886468400,3.48346826171875,-0.003469069255515933,-0.018763018772006035,0.0016672107158228755
1783174341896537300,3.493537353515625,-0.013589614070951939,-0.013945626094937325,-0.009488505311310291
1783174341906605600,3.50360546875,-0.012960153631865978,-0.0034651202149689198,-0.015649685636162758
1783174341916674300,3.51367431640625,-0.0026579808909446,-0.0009156758897006512,-0.017906181514263153
1783174341926742300,3.5237421875,-0.0015222900547087193,-0.008386291563510895,-0.011853283271193504
1783174341936811500,3.5338115234375,-0.0015577101148664951,-0.0184173546731472,-0.005896324757486582
1783174341946880300,3.54388037109375,-0.008257613517343998,-0.02606120891869068,0.0014799857744947076
1783174341956948500,3.553948486328125,-0.009390788152813911,-0.028203187510371208,-0.002136320574209094
1783174341967017500,3.564017578125,-0.00440533272922039,-0.02453797124326229,-0.0014584234450012445
1783174341977085400,3.57408544921875,-0.0007195178768597543,-0.023198934271931648,0.00023508071899414062
1783174341987154400,3.584154541015625,-0.0006000457215122879,-0.015344318002462387,0.007374897599220276
1783174341997222400,3.594222412109375,-0.0023217794951051474,-0.015041517093777657,0.0105307437479496
1783174342007291400,3.60429150390625,0.004360014107078314,-0.012941831722855568,0.0030231382697820663
1783174342017360400,3.6143603515625,0.011319919489324093,-0.007104448974132538,-0.008558949455618858
1783174342027428400,3.624428466796875,0.005378467030823231,-0.010409122332930565,-0.008798866532742977
1783174342037497600,3.63449755859375,0.002199718030169606,-0.004185582976788282,-0.002908752765506506
1783174342047565600,3.644565673828125,-0.001690790755674243,0.0023270240053534508,0.0015963659388944507
1783174342057634300,3.65463427734375,0.0007643774733878672,0.009076006710529327,-0.0007272420916706324
1783174342067702300,3.664702392578125,-0.0068054585717618465,0.011515701189637184,0.009602224454283714
1783174342077771500,3.674771484375,-0.013398113660514355,0.009974796324968338,0.011111438274383545
1783174342087839500,3.684839599609375,-0.014385470189154148,0.012556442990899086,0.00003377767279744148
1783174342097908500,3.694908447265625,-0.00770120183005929,0.02077229507267475,-0.011505166068673134
1783174342107977500,3.7049775390625,-0.005264228209853172,0.025165509432554245,-0.015437585301697254
1783174342118045400,3.71504541015625,-0.00044550461461767554,0.021567311137914658,-0.01005293894559145
1783174342128114400,3.725114501953125,-0.0012843154836446047,0.013197199441492558,-0.009273970499634743
1783174342138182400,3.735182373046875,-0.004763734992593527,0.008412564173340797,-0.004390798043459654
1783174342148251400,3.74525146484375,-0.0006158619071356952,0.002660402562469244,0.0027169124223291874
1783174342158319400,3.7553193359375,0.004617249593138695,0.0015461361035704613,0.006443739868700504
1783174342168388400,3.765388427734375,0.005626562051475048,-0.008651802316308022,0.006291977129876614
1783174342178457600,3.77545751953125,0.007349628023803234,-0.004134281538426876,0.011404713615775108
1783174342188525300,3.785525390625,0.005471506621688604,0.0022468767128884792,0.009032071568071842
1783174342198594300,3.79559423828125,0.003964956384152174,0.007188638672232628,0.004306025803089142
1783174342208662500,3.80566259765625,0.006336088292300701,0.011909974738955498,0.002650404116138816
1783174342218731500,3.8157314453125,0.00688549829646945,0.024519510567188263,0.000050626229494810104
1783174342228799200,3.82579931640625,0.003181995125487447,0.027460074052214622,-0.0009799760300666094
1783174342238868500,3.835868408203125,0.00266773859038949,0.03110860474407673,-0.012973787263035774
1783174342248937500,3.8459375,0.005546692758798599,0.0317024402320385,-0.018182244151830673
1783174342259004700,3.856004638671875,0.00625669164583087,0.027711695060133934,-0.013291614130139351
1783174342269073700,3.86607373046875,0.0026193461380898952,0.02617877908051014,0.000027918489649891853
1783174342279141600,3.8761416015625,-0.0011298519093543291,0.01522359810769558,0.011046480387449265
1783174342289211000,3.8862109375,-0.002733666682615876,0.007435674779117107,0.015072883106768131
1783174342299278800,3.89627880859375,-0.0025959813501685858,0.002994853537529707,-0.0024999857414513826
1783174342309347600,3.90634765625,-0.00014403479872271419,0.00426555285230279,-0.0077658165246248245
1783174342319415800,3.916415771484375,0.003952173050493002,0.00979107990860939,-0.00279662455432117
1783174342329484800,3.92648486328125,0.0037233298644423485,0.013183996081352234,0.0066374680027365685
1783174342339553500,3.936553466796875,0.0006713473703712225,0.01904907450079918,0.014174746349453926
1783174342349621800,3.946621826171875,-0.005009432788938284,0.016598153859376907,0.012164168059825897
1783174342359690800,3.956690673828125,-0.006696012802422047,0.009176456369459629,0.004008237738162279
1783174342369758700,3.9667587890625,-0.003557589603587985,0.001923239789903164,0.004143035039305687
1783174342379827700,3.97682763671875,0.0016262533608824015,-0.004578868392854929,0.011073645204305649
1783174342389895700,3.986895751953125,0.008189511485397816,-0.0136009706184268,0.011716416105628014
1783174342399965000,3.99696484375,0.02129386179149151,-0.03378560394048691,0.013159049674868584
1783174342410033700,4.00703369140625,0.0199208315461874,-0.023602880537509918,0.009706271812319756
1783174342420101600,4.0171015625,0.011361964046955109,-0.016292234882712364,0.00865032896399498
1783174342430171000,4.0271708984375,0.0012562633492052555,-0.004941275343298912,0.012915067374706268
1783174342440238600,4.037238525390625,0.004313838668167591,-0.005745283327996731,0.010997856967151165
1783174342450307600,4.0473076171875,0.007800466846674681,-0.011117236688733101,0.0072690220549702644
1783174342460375800,4.057375732421875,0.007909656502306461,-0.010138524696230888,0.010299699380993843
1783174342470444800,4.06744482421875,0.007215318735688925,-0.008468778803944588,0.014206098392605782
1783174342480513800,4.077513671875,0.01063614897429943,-0.009234437718987465,0.043469708412885666
1783174342490581800,4.087581787109375,0.009648590348660946,-0.005673566367477179,0.03431319817900658
1783174342500650800,4.097650634765625,0.014129092916846275,0.0017188359051942825,0.014108862727880478
1783174342510718500,4.107718505859375,0.019995270296931267,0.015504037030041218,0.0024187173694372177
1783174342520787700,4.11778759765625,0.02073349989950657,0.02253318391740322,0.0058893486857414246
1783174342530855700,4.127855712890625,0.013475955463945866,0.020974015817046165,0.01633145473897457
1783174342540924700,4.137924560546875,0.01374626625329256,0.028202900663018227,0.01150580681860447
1783174342550993700,4.14799365234375,0.019744159653782845,0.031808070838451385,-0.0004138569347560406
1783174342561061600,4.1580615234375,0.03138137608766556,0.03398706763982773,-0.006560965441167355
1783174342571131000,4.168130859375,0.02697606012225151,0.026771968230605125,0.004957200959324837
1783174342581198600,4.178198486328125,0.010080965235829353,0.021007822826504707,0.017574192956089973
1783174342591267600,4.188267578125,0.0041380878537893295,0.02444555051624775,0.01803724654018879
1783174342601335800,4.198335693359375,0.0035452682059258223,0.031175624579191208,0.004917716607451439
1783174342611404500,4.208404541015625,0.004714928567409515,0.03569341078400612,-0.008416463620960712
1783174342621472500,4.218472412109375,0.00811764970421791,0.03504732996225357,-0.00825081579387188
1783174342631541800,4.228541748046875,0.00982570555061102,0.03170733153820038,-0.008121661841869354
1783174342641610500,4.238610595703125,0.014761874452233315,0.021458955481648445,-0.004074456170201302
1783174342651678700,4.2486787109375,0.013527543283998966,0.004459003917872906,-0.0006298392545431852
1783174342661747700,4.258747802734375,0.011112055741250515,-0.009886646643280983,0.0009177235187962651
1783174342671815700,4.268815673828125,-0.0003486433415673673,-0.021657075732946396,0.007921644486486912
1783174342681884700,4.278884765625,-0.00520278699696064,-0.02083921805024147,0.005910159088671207
1783174342691952600,4.28895263671875,-0.007280843332409859,-0.016035156324505806,0.00045371660962700844
1783174342702021600,4.299021728515625,-0.005793467629700899,-0.016047140583395958,-0.003349277190864086
1783174342712090600,4.309090576171875,-0.0003567104577086866,-0.004572316072881222,-0.005271809175610542
1783174342722158600,4.31915869140625,0.003780510276556015,-0.002064949832856655,-0.002474159002304077
1783174342732227800,4.329227783203125,0.00926014594733715,-0.002640928141772747,-0.012422657571732998
1783174342742295800,4.3392958984375,0.011420768685638905,-0.006443655118346214,-0.01550686452537775
1783174342752364500,4.349364501953125,0.014020968228578568,-0.014352008700370789,-0.016724683344364166
1783174342762432500,4.3594326171875,0.01207686122506857,-0.019922276958823204,-0.01607487164437771
1783174342772501800,4.369501708984375,0.006696405354887247,-0.02407757379114628,-0.012643173336982727
1783174342782570500,4.379570556640625,0.0029219069983810186,-0.029668079689145088,-0.007372244261205196
1783174342792638700,4.389638671875,-0.009236144833266735,-0.029099011793732643,-0.0014678623992949724
1783174342802707700,4.399707763671875,-0.008791130967438221,-0.02979116700589657,-0.0032891982700675726
1783174342812775700,4.409775634765625,-0.010839092545211315,-0.031257517635822296,-0.002875234931707382
1783174342822844700,4.4198447265625,-0.010457195341587067,-0.038525551557540894,-0.001160425366833806
1783174342832912600,4.42991259765625,-0.015007220208644867,-0.057359665632247925,-0.007373526226729155
1783174342842981600,4.439981689453125,-0.009496075101196766,-0.06284204870462418,-0.007081377785652876
1783174342853050600,4.450050537109375,-0.0007306694751605392,-0.059999410063028336,-0.004619259852916002
1783174342863118600,4.46011865234375,-0.0028817045968025923,-0.05075850710272789,0.009307741187512875
1783174342873187800,4.470187744140625,-0.0028793078381568193,-0.055302929133176804,0.023602524772286415
1783174342883255800,4.480255859375,-0.010010188445448875,-0.05330608785152435,0.021002214401960373
1783174342893324500,4.490324462890625,-0.013429668731987476,-0.037416961044073105,0.0025711311027407646
1783174342903392800,4.500392822265625,-0.017200704663991928,-0.015044543892145157,-0.007388292346149683
1783174342913461800,4.510461669921875,-0.019223719835281372,-0.0069135986268520355,-0.014778186567127705
1783174342923530500,4.520530517578125,-0.016656432300806046,-0.0048959869891405106,-0.009665715508162975
1783174342933598700,4.5305986328125,-0.009527605026960373,-0.01223357766866684,-0.01859993487596512
1783174342943667700,4.540667724609375,-0.0015394531656056643,-0.01091371476650238,-0.02186683379113674
1783174342953735700,4.550735595703125,-0.0027189673855900764,-0.007769054267555475,-0.024218138307332993
1783174342963804700,4.5608046875,-0.00544657651335001,-0.008420463651418686,-0.006193065550178289
1783174342973872600,4.57087255859375,-0.017301132902503014,-0.006569195073097944,0.00657922588288784
1783174342983942000,4.58094189453125,-0.022296955808997154,-0.001824773382395506,0.0025698367971926928
1783174342994010600,4.5910107421875,-0.017095819115638733,0.006335241720080376,-0.010170316323637962
1783174343004078600,4.60107861328125,-0.011256041005253792,0.010112935677170753,-0.018606944009661674
1783174343014147800,4.61114794921875,-0.0006308412994258106,0.00673661008477211,-0.011056826449930668
1783174343024215800,4.6212158203125,0.007854788564145565,-0.007139524444937706,-0.008208842016756535
1783174343034284500,4.631284423828125,0.009531950578093529,-0.016236742958426476,-0.011646464467048645
1783174343044352800,4.641352783203125,0.004728140775114298,-0.019111093133687973,-0.015076084062457085
1783174343054421800,4.651421875,-0.0020563399884849787,-0.020631443709135056,-0.014352922327816486
1783174343064490800,4.66149072265625,-0.004025481175631285,-0.027443276718258858,-0.0059242844581604
1783174343074558700,4.671558837890625,-0.008619648404419422,-0.0358809158205986,-0.007301745470613241
1783174343084627700,4.681627685546875,-0.01134273037314415,-0.026986222714185715,-0.00398371322080493
1783174343094695700,4.69169580078125,-0.004973188508301973,-0.021416977047920227,-0.008767249993979931
1783174343104764700,4.7017646484375,0.0054656038992106915,-0.01722995564341545,-0.020555730909109116
1783174343114832600,4.71183251953125,0.009089437313377857,-0.014169486239552498,-0.022783951833844185
1783174343124902000,4.72190185546875,0.0016624133568257093,-0.0030039167031645775,-0.015977445989847183
1783174343134969600,4.731969482421875,0.004302112385630608,0.004650113172829151,-0.015373668633401394
1783174343145038600,4.74203857421875,0.004954586736857891,0.0032223928719758987,-0.025202065706253052
1783174343155107800,4.75210791015625,-0.0018883273005485535,-0.0001534787006676197,-0.024364080280065536
1783174343165175600,4.762175537109375,-0.012990780174732208,-0.0029098507948219776,-0.009767560288310051
1783174343175244800,4.772244873046875,-0.018454058095812798,-0.006051546894013882,-0.0035989286843687296
1783174343185312800,4.782312744140625,-0.015781043097376823,-0.014350757002830505,-0.006550243124365807
1783174343195381800,4.7923818359375,-0.008257510140538216,-0.018148578703403473,-0.010752595029771328
1783174343205448700,4.80244873046875,-0.0010549912694841623,-0.01723271794617176,-0.012431185692548752
1783174343215517000,4.812516845703125,0.0069553423672914505,-0.02396097593009472,-0.014769021421670914
1783174343225585700,4.822585693359375,0.00872128363698721,-0.026774337515234947,-0.01383984461426735
1783174343235653600,4.832653564453125,0.00823749229311943,-0.0357847660779953,-0.01656653732061386
1783174343245723000,4.842722900390625,0.006883274298161268,-0.03486064821481705,-0.012627987191081047
1783174343255791600,4.85279150390625,0.006204545497894287,-0.03486454486846924,0.003291814122349024
1783174343265860400,4.8628603515625,0.002719799056649208,-0.042547497898340225,0.011827511712908745
1783174343275929300,4.872929443359375,0.00014484039274975657,-0.0407324954867363,0.010911575518548489
1783174343285997300,4.882997314453125,-0.003970009740442038,-0.04040892422199249,0.002222479786723852
1783174343296066300,4.89306640625,-0.0021437944378703833,-0.033407002687454224,-0.00029980484396219254
1783174343306134500,4.903134521484375,0.0033513722009956837,-0.023597782477736473,-0.013455288484692574
1783174343316203300,4.913203369140625,0.015522543340921402,-0.015636783093214035,-0.019329795613884926
1783174343326272500,4.9232724609375,0.02176872082054615,-0.010621783323585987,-0.02073913998901844
1783174343336340500,4.933340576171875,0.0229968074709177,-0.0030015683732926846,-0.02073502726852894
1783174343346409200,4.9434091796875,0.02165643870830536,-0.006791246589273214,-0.003388261655345559
1783174343356477400,4.9534775390625,0.0072951288893818855,-0.007921434938907623,0.008714666590094566
1783174343366546400,4.96354638671875,-0.017954567447304726,-0.006826876197010279,0.005614747293293476
1783174343376614400,4.973614501953125,-0.014253169298171997,0.0011189230717718601,0.0006028632633388042
1783174343386683400,4.983683349609375,-0.010922886431217194,0.006508628372102976,-0.012120122089982033
1783174343396752400,4.99375244140625,-0.0038283108733594418,0.0005426784045994282,-0.008179701864719391
1783174343406820400,5.0038203125,0.006081311497837305,-0.010644994676113129,0.0014566798927262425
1783174343416889300,5.013889404296875,0.008696869015693665,-0.008701127022504807,0.011655392125248909
1783174343426957300,5.023957275390625,0.00004692189395427704,-0.006498425267636776,0.0022293992806226015
1783174343437026600,5.034026611328125,-0.011644965037703514,-0.008744487538933754,-0.006089936476200819
1783174343447094500,5.044094482421875,-0.02239161916077137,-0.015629557892680168,-0.007815131917595863
1783174343457163300,5.054163330078125,-0.02558140642940998,-0.020942114293575287,-0.005031128413975239
1783174343467232500,5.064232421875,-0.02438218519091606,-0.02704314887523651,0.002287238137796521
1783174343477300500,5.074300537109375,-0.02034955844283104,-0.025329910218715668,0.0006151797715574503
1783174343487369200,5.084369140625,-0.021577276289463043,-0.02126086689531803,0.004678630735725164
1783174343497437400,5.0944375,-0.018216220661997795,-0.019864922389388084,0.013597757555544376
1783174343507506400,5.10450634765625,-0.021121462807059288,-0.023198401555418968,0.007793931290507317
1783174343517574400,5.114574462890625,-0.018050793558359146,-0.02278287708759308,0.0012543619377538562
1783174343527643400,5.124643310546875,-0.014889619313180447,-0.02574031800031662,-0.002316404366865754
1783174343537712400,5.13471240234375,-0.012058302760124207,-0.0244592372328043,0.00531883304938674
1783174343547780600,5.144780517578125,-0.014764340594410896,-0.02278091385960579,0.00978948175907135
1783174343557849300,5.154849365234375,-0.015606451779603958,-0.017223604023456573,0.009765388444066048
1783174343567917300,5.164917236328125,-0.013376319780945778,-0.012577720917761326,0.0017492735059931874
1783174343577986600,5.174986572265625,-0.00989069789648056,0.0006576073355972767,-0.006096243858337402
1783174343588054500,5.185054443359375,0.0004152031324338168,0.00894137006253004,-0.003825632855296135
1783174343598123300,5.195123291015625,0.004172098357230425,0.012171090580523014,0.0022536013275384903
1783174343608191500,5.20519140625,0.0022045550867915154,0.00656673451885581,0.008252637460827827
1783174343618260500,5.215260498046875,0.004283478483557701,0.00010887673124670982,0.007170894183218479
1783174343628329500,5.22532958984375,-0.002053513191640377,0.006258381996303797,0.009113670326769352
1783174343638397400,5.2353974609375,-0.011370064690709114,0.01292323786765337,0.014142307452857494
1783174343648466400,5.245466552734375,-0.010362324304878712,0.01355307549238205,0.013759611174464226
1783174343658534400,5.255534423828125,0.0005016974173486233,0.01639152131974697,0.014201274141669273
1783174343668603400,5.265603271484375,0.0031624615658074617,0.012917694635689259,0.018476447090506554
1783174343678672400,5.27567236328125,0.003381802001968026,0.016626300290226936,0.023664165288209915
1783174343688740600,5.28574072265625,0.007313959300518036,0.01995605044066906,0.01592475362122059
1783174343698809300,5.295809326171875,0.010435638949275017,0.02091057598590851,0.004987794905900955
1783174343708877300,5.305877197265625,0.015401635318994522,0.02296840026974678,0.004138247109949589
1783174343718946600,5.315946533203125,0.016329051926732063,0.015825115144252777,0.014545464888215065
1783174343729014300,5.32601416015625,0.01489840168505907,0.009084388613700867,0.019976980984210968
1783174343739083300,5.336083251953125,0.007844590581953526,0.00462743453681469,0.019347263500094414
1783174343749151500,5.3461513671875,0.0010617857333272696,0.00023827888071537018,0.009160405956208706
1783174343759220500,5.356220458984375,-0.00006565992953255773,0.00644902978092432,0.007539790589362383
1783174343769289500,5.36628955078125,0.0035589023027569056,0.018980002030730247,0.01274041086435318
1783174343779357400,5.376357421875,0.010080081410706043,0.022466765716671944,0.010989532805979252
1783174343789426400,5.386426513671875,0.014018363319337368,0.030180346220731735,0.0185297392308712
1783174343799494400,5.396494384765625,0.014336980879306793,0.03097567707300186,0.009431700222194195
1783174343809563400,5.4065634765625,0.01870403252542019,0.026241909712553024,-0.000580719904974103
1783174343819632400,5.41663232421875,0.024694684892892838,0.02439659833908081,-0.0044149537570774555
1783174343829700400,5.426700439453125,0.02055719867348671,0.014976464211940765,-0.005764643661677837
1783174343839769300,5.436769287109375,0.01941583678126335,0.009133721701800823,0.002372163347899914
1783174343849837300,5.44683740234375,0.01492814440280199,0.011077029630541801,0.0010227396851405501
1783174343859906600,5.456906494140625,0.010427487082779408,0.018393734470009804,0.002921565668657422
1783174343869974300,5.466974365234375,0.00980590470135212,0.0267371516674757,-0.007107366807758808
1783174343880043500,5.47704345703125,0.01299554668366909,0.01186456810683012,-0.019371718168258667
1783174343890111500,5.487111572265625,0.008908660151064396,0.020236214622855186,-0.024946248158812523
1783174343900180200,5.49718017578125,0.001190338865853846,0.01889989711344242,-0.014960799366235733
1783174343910249500,5.50724951171875,-0.002102926140651107,0.012104308232665062,-0.0062434738501906395
1783174343920317400,5.5173173828125,0.0014138300903141499,-0.009681889787316322,-0.013307314366102219
1783174343930386400,5.527386474609375,0.0061209676787257195,-0.010464061051607132,-0.02445663884282112
1783174343940454400,5.537454345703125,0.00227038050070405,-0.010048391297459602,-0.01208610087633133
1783174343950523400,5.5475234375,0.00014171568909659982,-0.019528977572917938,0.006806363817304373
1783174343960592400,5.55759228515625,-0.00201743864454329,-0.032169945538043976,0.0173015333712101
1783174343970660400,5.567660400390625,-0.005810578819364309,-0.042189821600914,0.01833404041826725
1783174343980729300,5.577729248046875,-0.006181342527270317,-0.0408356599509716,0.005064648576080799
1783174343990797600,5.587797607421875,-0.0069254301488399506,-0.03679511323571205,0.0008280922193080187
1783174344000866300,5.5978662109375,-0.01477994304150343,-0.043026700615882874,0.0003059208393096924
1783174344010934300,5.607934326171875,-0.00939156860113144,-0.04483205825090408,0.0006113855633884668
1783174344021003500,5.61800341796875,-0.0012651477009057999,-0.040719546377658844,0.000016360776498913765
1783174344031072300,5.628072265625,0.010365142486989498,-0.03565767779946327,-0.0032931496389210224
1783174344041140200,5.63814013671875,0.018895410001277924,-0.033959757536649704,-0.00617347564548254
1783174344051209500,5.64820947265625,0.01958729885518551,-0.035417571663856506,-0.004699149634689093
1783174344061277400,5.65827734375,0.015056748874485493,-0.026021499186754227,-0.0016925823874771595
1783174344071346200,5.66834619140625,0.017325494438409805,-0.010245997458696365,-0.00866127572953701
1783174344081414400,5.678414306640625,0.014340819790959358,-0.008700264617800713,-0.012319711036980152
1783174344091483400,5.6884833984375,0.016913434490561485,0.004353220574557781,-0.011657916009426117
1783174344101552400,5.698552490234375,0.01639648899435997,0.007136594969779253,-0.01795359142124653
1783174344111620400,5.708620361328125,0.010906382463872433,0.0061890422366559505,-0.012899709865450859
1783174344121689300,5.718689453125,0.012561192736029625,0.010244286619126797,-0.006406811531633139
1783174344131757600,5.728757568359375,0.00867537409067154,0.0023501445539295673,0.0038535494823008776
1783174344141826300,5.738826416015625,0.007421895395964384,-0.002183654811233282,0.000004265923053026199
1783174344151894300,5.748894287109375,0.012212123721837997,-0.006434060167521238,-0.010689124464988708
1783174344161963500,5.758963623046875,0.02193377912044525,0.00008567981421947479,-0.01762194000184536
1783174344172032300,5.7690322265625,0.016467906534671783,0.0028559002093970776,-0.01689276657998562
1783174344182100200,5.779100341796875,0.011047126725316048,0.004178362432867289,-0.01411616150289774
1783174344192169500,5.78916943359375,0.0075887455604970455,0.000572974793612957,-0.004998297430574894
1783174344202237400,5.799237548828125,-0.0008659138693474233,0.00268055172637105,-0.0050569986924529076
1783174344212306400,5.809306396484375,0.0020598347764462233,0.013118012808263302,-0.003248445922508836
1783174344222374400,5.81937451171875,0.008417469449341297,0.02262016385793686,-0.003696202766150236
1783174344232443400,5.829443359375,0.004350289702415466,0.02106567844748497,-0.002651977352797985
1783174344242512400,5.839512451171875,0.004088637884706259,0.02098976820707321,-0.009912634268403053
1783174344252580400,5.849580322265625,0.00871454831212759,0.01917162910103798,-0.014324692077934742
1783174344262649300,5.8596494140625,0.011693637818098068,0.01930633746087551,-0.026819825172424316
1783174344272716500,5.869716552734375,0.010461393743753433,0.022944480180740356,-0.029290173202753067
1783174344282785500,5.87978564453125,0.008706280030310154,0.025644470006227493,-0.02135910838842392
1783174344292853500,5.889853515625,0.004166655242443085,0.02526417374610901,-0.008802570402622223
1783174344302922500,5.899922607421875,-0.003253782168030739,0.023923836648464203,0.005426913499832153
1783174344312991700,5.90999169921875,-0.007461576256901026,0.020510464906692505,-0.0005667970981448889
1783174344323059500,5.9200595703125,-0.0075029972940683365,0.0218050479888916,-0.012516953982412815
1783174344333128400,5.93012841796875,0.0006824940210208297,0.017851851880550385,-0.02191631682217121
1783174344343196700,5.94019677734375,0.005467934068292379,0.015039274469017982,-0.014646315947175026
1783174344353265400,5.950265380859375,0.008214985020458698,0.008034627884626389,-0.007678953465074301
1783174344363333400,5.96033349609375,0.008182143792510033,0.001059605274349451,-0.011452910490334034
1783174344373402600,5.970402587890625,0.010649030096828938,0.008973188698291779,-0.021642964333295822
1783174344383471600,5.9804716796875,0.01138568576425314,0.024016480892896652,-0.014884697273373604
1783174344393539300,5.990539306640625,0.007030885200947523,0.024025004357099533,-0.009489399380981922
1783174344403608600,6.000608642578125,0.0002167907659895718,0.011916667222976685,0.0034068755339831114
1783174344413676500,6.010676513671875,-0.005071181803941727,0.016863223165273666,0.005639403127133846
1783174344423745500,6.02074560546875,-0.0017365270759910345,0.015936806797981262,-0.0018145623616874218
1783174344433813500,6.0308134765625,0.0028358541894704103,0.026586787775158882,-0.002283811569213867
1783174344443882500,6.040882568359375,0.007617936935275793,0.028347237035632133,-0.0030495140235871077
1783174344453951500,6.050951416015625,0.003870069980621338,0.022700536996126175,-0.007347323000431061
1783174344464019500,6.06101953125,-0.0015158290043473244,0.015968281775712967,0.003479646984487772
1783174344474088400,6.07108837890625,-0.0009419178240932524,0.018655676394701004,0.008162283338606358
1783174344484156700,6.08115673828125,-0.005355204455554485,0.021672086790204048,0.012121189385652542
1783174344494225400,6.091225341796875,-0.008849537931382656,0.03762708231806755,0.013463156297802925
1783174344504293400,6.10129345703125,-0.009715701453387737,0.05241017788648605,0.013676092028617859
1783174344514362600,6.111362548828125,-0.003353143809363246,0.05237768590450287,0.007596894167363644
1783174344524431400,6.121431396484375,-0.0037429784424602985,0.05150795727968216,0.005519021302461624
1783174344534499600,6.13149951171875,0.007501686457544565,0.036908239126205444,0.004554424434900284
1783174344544568600,6.141568603515625,0.0069120037369430065,0.03185351938009262,0.00489368150010705
1783174344554636500,6.151636474609375,0.0045135607942938805,0.028325630351901054,0.010399766266345978
1783174344564705500,6.16170556640625,-0.0009375008521601558,0.027761992067098618,0.012969866394996643
1783174344574774500,6.1717744140625,-0.006880344823002815,0.0229139756411314,0.010041985660791397
1783174344584842500,6.181842529296875,-0.001316332258284092,0.029185177758336067,0.0034252814948558807
1783174344594911500,6.191911376953125,0.0014634751714766026,0.03782660514116287,0.0074301427230238914
1783174344604979500,6.2019794921875,0.009347919374704361,0.04927996173501015,0.0072062150575220585
1783174344615048400,6.21204833984375,0.010925043374300003,0.05412238836288452,0.0031941630877554417
1783174344625116700,6.22211669921875,0.0047261593863368034,0.0411074236035347,-0.0050237737596035
1783174344635185400,6.232185302734375,0.0030166765209287405,0.03342659771442413,0.0019395933486521244
1783174344645254700,6.242254638671875,-0.0019541659858077765,0.031129566952586174,0.014833626337349415
1783174344655322600,6.252322509765625,-0.001232449198141694,0.023796286433935165,0.0191159900277853
1783174344665391400,6.262391357421875,-0.0016021220944821835,0.023882677778601646,0.014447505585849285
1783174344675459600,6.27245947265625,0.002185957971960306,0.024849938228726387,0.015509573742747307
1783174344685528600,6.282528564453125,0.004314663354307413,0.025661002844572067,0.0073924316093325615
1783174344695596500,6.292596435546875,0.007870249450206757,0.02243564836680889,0.0015281513333320618
1783174344705665500,6.30266552734375,0.0114779407158494,0.02622993290424347,-0.0012086115311831236
1783174344715734500,6.312734619140625,0.019922293722629547,0.025250421836972237,-0.008143216371536255
1783174344725802500,6.322802490234375,0.014348647557199001,0.014255763962864876,-0.009632197208702564
1783174344735871500,6.33287158203125,0.013063939288258553,0.013337505981326103,-0.010607712902128696
1783174344745939500,6.342939453125,0.013398665003478527,0.010497364215552807,-0.0022052405402064323
1783174344756008700,6.3530087890625,0.007229985203593969,0.012314705178141594,0.012201662175357342
1783174344766076700,6.36307666015625,0.004861987195909023,0.01639673486351967,0.019611099734902382
1783174344776145400,6.3731455078125,0.01137128472328186,0.012234214693307877,0.011943060904741287
1783174344786214700,6.383214599609375,0.018057331442832947,0.016575496643781662,-0.00655524805188179
1783174344796282600,6.39328271484375,0.019807297736406326,0.015321681275963783,-0.022186672315001488
1783174344806351400,6.403351318359375,0.020368274301290512,0.022324014455080032,-0.034173764288425446
1783174344816419600,6.413419677734375,0.016657959669828415,0.029008546844124794,-0.03286908194422722
1783174344826488600,6.423488525390625,0.018717899918556213,0.028659436851739883,-0.02496982179582119
1783174344836556500,6.433556640625,0.015857666730880737,0.027263939380645752,-0.014587488025426865
1783174344846625500,6.44362548828125,0.013461016118526459,0.015396928414702415,-0.007010048255324364
1783174344856694500,6.453694580078125,0.010751250199973583,0.0023421128280460835,0.0008686467772349715
1783174344866762800,6.4637626953125,0.014039110392332077,0.005362985655665398,0.00832401029765606
1783174344876831500,6.47383154296875,0.015276414342224598,0.01551389042288065,0.0032605426385998726
1783174344886899500,6.4838994140625,0.010738356038928032,0.011296628043055534,-0.004145508632063866
1783174344896968700,6.49396875,0.0074448250234127045,0.006970855873078108,-0.0022802306339144707
1783174344907036400,6.504036376953125,0.00017537595704197884,-0.0010041827335953712,0.0011768272379413247
1783174344917105400,6.51410546875,-0.002167673083022237,-0.0013498617336153984,-0.0032749127130955458
1783174344927174700,6.524174560546875,-0.00239682849496603,-0.0013746507465839386,-0.00879083015024662
1783174344937242600,6.53424267578125,0.00326744862832129,0.006086461246013641,-0.014200775884091854
1783174344947311600,6.5443115234375,0.005773989949375391,0.013382562436163425,-0.0175952035933733
1783174344957379600,6.554379638671875,0.010468344204127789,0.012068824842572212,-0.014364257454872131
1783174344967448600,6.564448486328125,0.014987410977482796,0.007856180891394615,-0.020953109487891197
1783174344977516300,6.574516357421875,0.018036464229226112,0.009148347191512585,-0.020639389753341675
1783174344987585500,6.58458544921875,0.01126046571880579,0.0029681315645575523,-0.014120031148195267
1783174344997654500,6.594654541015625,0.005449181422591209,-0.0024559288285672665,-0.002808520570397377
1783174345007722500,6.604722412109375,0.004882325418293476,0.0033822599798440933,-0.0003380896523594856
1783174345017791500,6.61479150390625,0.004376591183245182,0.01130356639623642,-0.012984641827642918
1783174345027859500,6.624859375,0.008465368300676346,0.012650754302740097,-0.02407914213836193
1783174345037928700,6.6349287109375,0.01324254646897316,0.015390614047646523,-0.0340082049369812
1783174345047996400,6.644996337890625,0.015190336853265762,0.006477743852883577,-0.034853316843509674
1783174345058065400,6.6550654296875,0.022894861176609993,-0.00014394009485840797,-0.036062125116586685
1783174345068134700,6.665134765625,0.030734261497855186,0.002460980787873268,-0.04123978316783905
1783174345078202400,6.675202392578125,0.027578415349125862,0.00782565213739872,-0.03682612627744675
1783174345088271600,6.685271728515625,0.021694693714380264,0.00939159095287323,-0.03360023722052574
1783174345098339600,6.695339599609375,0.020900538191199303,0.003005330916494131,-0.017207149416208267
1783174345108408600,6.70540869140625,0.021416377276182175,-0.004652560222893953,-0.014639273285865784
1783174345118477600,6.7154775390625,0.023953303694725037,-0.0072528705932199955,-0.015910133719444275
1783174345128545500,6.725545654296875,0.018181897699832916,-0.002760881558060646,-0.017343765124678612
1783174345138614500,6.735614501953125,0.019872473552823067,-0.0020847050473093987,-0.018161088228225708
1783174345148682500,6.7456826171875,0.018845075741410255,-0.008867453783750534,-0.021653100848197937
1783174345158751500,6.75575146484375,0.01525992900133133,-0.010196371003985405,-0.021149761974811554
1783174345168819500,6.7658193359375,0.01933194324374199,-0.006493426859378815,-0.022283215075731277
1783174345178888400,6.775888427734375,0.024473708122968674,-0.003017202951014042,-0.02181982435286045
1783174345188957400,6.78595751953125,0.018173394724726677,-0.0032688379287719727,-0.0193101167678833
1783174345199025700,6.796025634765625,0.006436577066779137,0.004304659552872181,-0.005996975116431713
1783174345209094400,6.806094482421875,0.0012303122784942389,0.015250196680426598,-0.00793275237083435
1783174345219162400,6.816162353515625,0.006108690984547138,0.0045767794363200665,-0.015017293393611908
1783174345229231600,6.826231689453125,-0.0005102782743051648,0.006751039531081915,-0.02232188545167446
1783174345239299600,6.836299560546875,0.005216050427407026,0.009228844195604324,-0.03573063760995865
1783174345249368300,6.846368408203125,0.010974396951496601,0.017222363501787186,-0.04005584493279457
1783174345259437600,6.8564375,0.007863557897508144,0.018010661005973816,-0.03642968460917473
1783174345269506000,6.866506103515625,0.005759387742727995,-0.006690943147987127,-0.022632485255599022
1783174345279574800,6.87657470703125,0.009395401924848557,0.0014287685044109821,-0.006900393404066563
1783174345289643000,6.88664306640625,0.001341021852567792,-0.01260082796216011,0.0022496876772493124
1783174345299712000,6.8967119140625,-0.003246006788685918,-0.017319682985544205,0.011382732540369034
1783174345309780000,6.906780029296875,-0.00019365391926839948,-0.007773202378302813,0.0024269064888358116
1783174345319849000,6.916848876953125,-0.0006077755242586136,-0.011940516531467438,-0.0050232866778969765
1783174345329918000,6.92691796875,0.002883180510252714,-0.007027847692370415,-0.00854612234979868
1783174345339986000,6.93698583984375,0.002596357837319374,-0.012090249918401241,-0.0003968500532209873
1783174345350055000,6.947054931640625,0.004405144136399031,-0.018772270530462265,0.011154010891914368
1783174345360123000,6.957122802734375,0.0023111007176339626,-0.02265648916363716,0.01935388334095478
1783174345370192100,6.967192138671875,0.0027672485448420048,-0.02181312069296837,0.0144239142537117
1783174345380260900,6.9772607421875,0.010745014064013958,-0.016901453956961632,-0.005488008726388216
1783174345390328800,6.987328857421875,0.017690004780888557,-0.0147181935608387,-0.00862308219075203
1783174345400398000,6.997398193359375,0.02054464817047119,-0.003963018301874399,-0.002483163494616747
1783174345410466000,7.007466064453125,0.014769070781767368,0.005608025006949902,-0.006762202829122543
1783174345420534800,7.01753466796875,0.011860099621117115,-0.005087762139737606,-0.00701440405100584
1783174345430603000,7.02760302734375,0.018762512132525444,-0.023530539125204086,0.004979738499969244
1783174345440672000,7.037672119140625,0.022064300253987312,-0.026176653802394867,0.006927307695150375
1783174345450741000,7.047740966796875,0.016617873683571815,-0.022770220413804054,0.011753859929740429
1783174345460809000,7.05780908203125,0.005878678057342768,-0.018561094999313354,0.021089572459459305
1783174345470878000,7.0678779296875,0.0025108898989856243,-0.027824031189084053,0.022160248830914497
1783174345480946000,7.07794580078125,0.012936633080244064,-0.03357725590467453,0.021083800122141838
1783174345491015000,7.088014892578125,0.01704525388777256,-0.04403400793671608,0.02260860800743103
1783174345501083000,7.098082763671875,0.024903442710638046,-0.0549929141998291,0.015245499089360237
1783174345511152000,7.108152099609375,0.01971990056335926,-0.06057314947247505,0.006542355753481388
1783174345521220900,7.118220947265625,0.011120285838842392,-0.06663823872804642,0.006647550966590643
1783174345531288800,7.128288818359375,0.0056371744722127914,-0.061411552131175995,0.012052487581968307
1783174345541358000,7.138358154296875,-0.00043749582255259156,-0.06515835225582123,0.01438701432198286
1783174345551426000,7.148426025390625,-0.005045777186751366,-0.0712481439113617,0.004976129624992609
1783174345561494800,7.158494873046875,-0.010601397603750229,-0.07596993446350098,0.013448177836835384
1783174345571563000,7.16856298828125,-0.01769331842660904,-0.08324094116687775,0.02803925983607769
1783174345581632000,7.178632080078125,-0.013389915227890015,-0.08166009187698364,0.03169471397995949
1783174345591701000,7.188700927734375,-0.012314784340560436,-0.07833117246627808,0.034120794385671616
1783174345601769000,7.19876904296875,-0.007570895832031965,-0.07446585595607758,0.024309976026415825
1783174345611838000,7.208837890625,0.0029967869631946087,-0.06285712122917175,0.012722991406917572
1783174345621906000,7.218906005859375,0.0168612040579319,-0.051080625504255295,0.012685174122452736
1783174345631975000,7.228974853515625,0.023607224225997925,-0.037729814648628235,0.019560856744647026
1783174345642043000,7.23904296875,0.018662532791495323,-0.03909148648381233,0.023226166144013405
1783174345652112100,7.249112060546875,0.016482975333929062,-0.04578443989157677,0.01690439134836197
1783174345662180900,7.259180908203125,0.008357938379049301,-0.04425258934497833,0.005731365643441677
1783174345672248800,7.269248779296875,-0.00524244224652648,-0.04764963313937187,0.005823568906635046
1783174345682318000,7.279318115234375,-0.011851608753204346,-0.04782859608530998,0.017735354602336884
1783174345692385800,7.2893857421875,-0.014975504018366337,-0.057530477643013,0.025493307039141655
1783174345702455000,7.299455078125,-0.002912183292210102,-0.05541805922985077,0.01835017465054989
1783174345712523000,7.30952294921875,0.007082816679030657,-0.048846274614334106,0.0037646209821105003
1783174345722592000,7.319592041015625,0.018198583275079727,-0.042097557336091995,0.004096184391528368
1783174345732661000,7.329660888671875,0.025815121829509735,-0.04259168729186058,0.013104206882417202
1783174345742729000,7.33972900390625,0.025192741304636,-0.04982456564903259,0.024662325158715248
1783174345752798000,7.3497978515625,0.025636637583374977,-0.04463624954223633,0.017921673133969307
1783174345762866000,7.359865966796875,0.02269917167723179,-0.034865111112594604,0.013362874276936054
1783174345772935000,7.369934814453125,0.01446773111820221,-0.0231623612344265,0.010566802695393562
1783174345783004200,7.380004150390625,0.011833066120743752,-0.016288477927446365,0.005665255710482597
1783174345793071900,7.39007177734375,0.012523284181952477,-0.002863182220607996,0.0005806919652968645
1783174345803140900,7.400140869140625,0.014395220205187798,0.0010929438285529613,-0.008168857544660568
1783174345813209000,7.410208984375,0.012559388764202595,-0.0038246670737862587,-0.003319028066471219
1783174345823277800,7.42027783203125,-0.0014009017031639814,-0.0073320502415299416,0.011078553274273872
1783174345833345800,7.430345703125,0.0012993726413697004,-0.0039017237722873688,0.014457766897976398
1783174345843415000,7.4404150390625,0.010142665356397629,-0.006425868719816208,-0.0008207880891859531
1783174345853483000,7.45048291015625,0.015039627440273762,-0.010788965970277786,-0.005474692676216364
1783174345863551700,7.4605517578125,0.020882336422801018,-0.009498665109276772,0.01466146856546402
1783174345873621000,7.47062109375,0.025406306609511375,-0.020369380712509155,0.01774836890399456
1783174345883689000,7.48068896484375,0.030991487205028534,-0.03936490789055824,0.008918657898902893
1783174345893758000,7.490758056640625,0.04655070602893829,-0.040291838347911835,-0.0005231141112744808
1783174345903826000,7.500825927734375,0.051606450229883194,-0.03624916076660156,-0.006976486183702946
1783174345913895000,7.51089501953125,0.042954105883836746,-0.0497623011469841,-0.007156781852245331
1783174345923964000,7.5209638671875,0.02415911667048931,-0.05843382328748703,0.00017942790873348713
1783174345934032000,7.531031982421875,0.005761181004345417,-0.05488959699869156,0.002106632338836789
1783174345944100900,7.541100830078125,0.0008939875988289714,-0.05155558884143829,-0.003439666936174035
1783174345954169000,7.551169189453125,0.0051570069044828415,-0.05253976583480835,-0.0030902461148798466
1783174345964237800,7.56123779296875,-0.000322713574860245,-0.053118735551834106,0.018163111060857773
1783174345974305800,7.571305908203125,-0.01288478635251522,-0.062153469771146774,0.030755896121263504
1783174345984375000,7.581375,-0.01666860468685627,-0.05729879066348076,0.024280954152345657
1783174345994443800,7.59144384765625,-0.00915990024805069,-0.045843955129384995,0.0027379568200558424
1783174346004511700,7.60151171875,0.0037923837080597878,-0.035195570439100266,-0.01318401750177145
1783174346014581000,7.6115810546875,0.023273322731256485,-0.017695074900984764,-0.012816494330763817
1783174346024649000,7.62164892578125,0.028322676196694374,-0.02158062718808651,-0.0021281642839312553
1783174346034718000,7.631718017578125,0.02100263349711895,-0.04205016791820526,0.008501953445374966
1783174346044786000,7.641785888671875,-0.0014858979266136885,-0.044301338493824005,0.02053811028599739
1783174346054855000,7.65185498046875,-0.01633145660161972,-0.040508344769477844,0.008598028682172298
1783174346064924000,7.661923828125,-0.01631947234272957,-0.026138991117477417,-0.010366074740886688
1783174346074991900,7.671991943359375,-0.017003605142235756,-0.0176691934466362,-0.020167509093880653
1783174346085060900,7.682060791015625,-0.010931330733001232,-0.014472868293523788,-0.01581723429262638
1783174346095129000,7.692129150390625,-0.0042611840181052685,-0.011674937792122364,-0.012299034744501114
1783174346105197800,7.70219775390625,0.00817098468542099,-0.011357222683727741,-0.0045817261561751366
1783174346115267000,7.71226708984375,0.018112462013959885,-0.012556290253996849,-0.006242859177291393
1783174346125335000,7.7223349609375,0.014207733795046806,-0.005737265106290579,-0.0007711285725235939
1783174346135403800,7.73240380859375,0.008457274176180363,-0.015626803040504456,-0.0032802389468997717
1783174346145472000,7.742471923828125,0.009118004702031612,-0.010246151126921177,-0.005407839082181454
1783174346155541000,7.752541015625,0.008449660614132881,-0.006328543648123741,-0.006808706559240818
1783174346165609000,7.76260888671875,0.003740925807505846,0.008106322027742863,-0.007335745729506016
1783174346175678000,7.772677978515625,-0.00013729894999414682,0.011610768735408783,-0.0104871466755867
1783174346185747000,7.782746826171875,-0.000759679707698524,0.01192289125174284,-0.00764368986710906
1783174346195815000,7.79281494140625,0.011955608613789082,0.009076133370399475,-0.005965136922895908
1783174346205884000,7.8028837890625,0.023932909592986107,0.010268696583807468,-0.0015352342743426561
1783174346215952000,7.812951904296875,0.020599300041794777,0.004836107604205608,-0.0007355669513344765
1783174346226021000,7.823021240234375,0.012964018620550632,0.004712270572781563,0.0018271930748596787
1783174346236089000,7.833089111328125,-0.0005599945434369147,0.007895602844655514,0.0029166177846491337
1783174346246157800,7.84315771484375,-0.004828775301575661,0.007609845604747534,0.006259949877858162
1783174346256227000,7.85322705078125,-0.01575325056910515,0.012809086591005325,0.0012637479230761528
1783174346266295000,7.863294921875,-0.015749255195260048,0.013054363429546356,-0.01479005441069603
1783174346276363800,7.87336376953125,-0.006897388957440853,0.014945264905691147,-0.028909673914313316
1783174346286431700,7.883431640625,0.0038244975730776787,0.0074655101634562016,-0.027809521183371544
1783174346296500700,7.893500732421875,0.013321596197783947,-0.006698778364807367,-0.017124386504292488
1783174346306569000,7.90356884765625,0.005368331912904978,-0.0016558165661990643,-0.006393712479621172
1783174346316637700,7.9136376953125,0.0013973184395581484,-0.0034522241912782192,-0.012939000502228737
1783174346326707000,7.92370703125,0.004267407115548849,-0.024996398016810417,-0.005514906253665686
1783174346336775000,7.93377490234375,-0.00006603694055229425,-0.018651627004146576,-0.0016981379594653845
1783174346346843600,7.94384375,-0.002359551377594471,-0.016536012291908264,0.0030835678335279226
1783174346356911600,7.95391162109375,0.0003049482766073197,-0.022522546350955963,0.0018927068449556828
1783174346366980900,7.96398095703125,0.003713794518262148,-0.02034221589565277,0.012822053395211697
1783174346377048800,7.974048828125,0.0028234669007360935,-0.015242144465446472,0.0103569645434618
1783174346387117800,7.984117919921875,0.0011736385058611631,-0.00812617689371109,-0.0009811779018491507
1783174346397186800,7.994186767578125,-0.004824858624488115,-0.001982279121875763,-0.00010489416308701038
1783174346407254800,8.0042548828125,-0.012080375105142593,0.008665039204061031,0.0010589073644950986
1783174346417323800,8.01432373046875,-0.009855576790869236,0.011934082955121994,-0.00275191362015903
1783174346427391700,8.024391845703125,-0.007893892005085945,0.011220356449484825,-0.004614261910319328
1783174346437460700,8.034460693359375,-0.008159519173204899,0.019955959171056747,0.009122101590037346
1783174346447529700,8.04452978515625,-0.01409756951034069,0.022351738065481186,0.011582596227526665
1783174346457597700,8.05459765625,-0.009961414150893688,0.024974685162305832,0.0013347526546567678
1783174346467667000,8.0646669921875,-0.00308087095618248,0.0275568887591362,-0.020201964303851128
1783174346477735000,8.07473486328125,-0.003849823260679841,0.019390443339943886,-0.01928665302693844
1783174346487803600,8.0848037109375,-0.005526017397642136,0.01229045633226633,-0.0020557332318276167
1783174346497872000,8.094871826171875,-0.014169812202453613,0.012867458164691925,0.0010119249345734715
1783174346507940900,8.10494091796875,-0.013479255139827728,0.013010736554861069,-0.00821619387716055
1783174346518009600,8.115009521484374,0.00023860263172537088,0.013101346790790558,-0.003783622058108449
1783174346528077800,8.125077880859376,0.011603109538555145,0.00863709021359682,0.008503404445946217
1783174346538146800,8.135146728515625,0.007521277759224176,-0.004439549520611763,0.01653486303985119
1783174346548214800,8.14521484375,0.0038266743067651987,-0.0016490891575813293,0.020787132903933525
1783174346558283800,8.15528369140625,-0.0026032044552266598,0.003030659630894661,0.01312045194208622
1783174346568351700,8.165351806640626,0.0009595724404789507,0.012490473687648773,0.011580878868699074
1783174346578421000,8.1754208984375,-0.003289364278316498,0.012820431962609291,0.0170045904815197
1783174346588489700,8.18548974609375,-0.00005894998321309686,0.015274535864591599,0.03006180189549923
1783174346598557700,8.1955576171875,0.0022925951052457094,0.02734168991446495,0.03297613933682442
1783174346608627000,8.205626953125,0.0023133677896112204,0.03259291127324104,0.009587990120053291
1783174346618694700,8.215694580078125,0.003188904607668519,0.04460287094116211,-0.009274335578083992
1783174346628763600,8.225763671875,0.008557571098208427,0.053228847682476044,-0.016820136457681656
1783174346638831900,8.235831787109374,0.009691070765256882,0.048894595354795456,-0.010440237820148468
1783174346648900900,8.24590087890625,0.006552535574883223,0.050398483872413635,0.00024835928343236446
1783174346658969900,8.255969970703125,-0.001728068571537733,0.044584937393665314,0.005067182704806328
1783174346669037800,8.266037841796875,-0.006265295669436455,0.03859282284975052,0.003930545412003994
1783174346679106800,8.27610693359375,-0.0002609282382763922,0.03437303006649017,-0.0020542768761515617
1783174346689174800,8.2861748046875,0.014164882712066174,0.02972741238772869,0.001797985751181841
1783174346699243800,8.296243896484375,0.025161027908325195,0.02492140233516693,0.008676577359437943
1783174346709312800,8.306312744140625,0.028041770681738853,0.019394010305404663,0.01792626827955246
1783174346719380700,8.316380615234374,0.022475628182291985,0.007315783761441708,0.026507850736379623
1783174346729449700,8.32644970703125,0.015090947970747948,-0.0032854615710675716,0.02282203733921051
1783174346739517700,8.336517578125,0.00605977326631546,-0.0034383339807391167,0.023138873279094696
1783174346749587000,8.3465869140625,-0.0022253210190683603,-0.00896172970533371,0.018817894160747528
1783174346759654700,8.356654541015626,-0.0029983913991600275,-0.006245767697691917,0.025230607017874718
1783174346769724000,8.366723876953126,-0.0023648254573345184,0.00411632563918829,0.03353673964738846
1783174346779793000,8.37679296875,0.0030205408111214638,0.008284754119813442,0.028207600116729736
1783174346789860600,8.386860595703125,0.007079464383423328,0.0005786311812698841,0.01086642686277628
1783174346799929900,8.396929931640624,0.006716105621308088,-0.006923073437064886,0.0029146415181457996
1783174346809997800,8.406997802734375,0.0027991284150630236,-0.002234312240034342,0.0030810891184955835
1783174346820066800,8.41706689453125,0.0006798884132876992,0.0018710633739829063,-0.004443020559847355
1783174346830134800,8.427134765625,0.004797401838004589,0.00841658003628254,-0.01365169882774353
1783174346840203800,8.437203857421874,-0.00129822944290936,0.006888676434755325,-0.006936649791896343
1783174346850272800,8.447272705078126,-0.01516557577997446,0.00542686739936471,0.015710871666669846
1783174346860340700,8.4573408203125,-0.021616362035274506,-0.0014184731990098953,0.029328525066375732
1783174346870409700,8.46740966796875,-0.011905412189662457,-0.015743084251880646,0.016518186777830124
1783174346880477700,8.477477783203126,-0.0032530417665839195,-0.018601026386022568,0.0016361396992579103
1783174346890546700,8.487546630859375,0.008050478994846344,-0.02698545530438423,0.004061214160174131
1783174346900614700,8.49761474609375,0.013522612862288952,-0.028281891718506813,0.00816985685378313
1783174346910684000,8.507683837890625,0.01883588545024395,-0.036545149981975555,0.009792255237698555
1783174346920752600,8.517752685546874,0.015111343935132027,-0.040440917015075684,0.0052124615758657455
1783174346930820600,8.527820556640625,0.008578076958656311,-0.041951727122068405,0.014032584615051746
1783174346940889900,8.537889892578125,0.0039154100231826305,-0.02882019802927971,0.02930624596774578
1783174346950957800,8.547957763671874,0.005639274138957262,-0.012720858678221703,0.022939693182706833
1783174346961026600,8.558026611328126,0.013823355548083782,-0.007684239186346531,0.006050833500921726
1783174346971094800,8.5680947265625,0.023455210030078888,-0.0011813323944807053,-0.007021292112767696
1783174346981163800,8.578163818359375,0.030336402356624603,0.0029455851763486862,-0.004503482021391392
1783174346991232800,8.588232666015625,0.0423954613506794,0.008971519768238068,-0.0038150546606630087
1783174347001300700,8.59830078125,0.040272489190101624,0.00761689618229866,-0.00984044000506401
1783174347011369700,8.60836962890625,0.0332886166870594,0.008596939034759998,-0.013195225968956947
1783174347021438000,8.61843798828125,0.027702074497938156,0.011141695082187653,-0.01647939905524254
1783174347031506700,8.628506591796874,0.025823213160037994,0.001521026249974966,-0.030483365058898926
1783174347041575700,8.63857568359375,0.01634254865348339,-0.0061312513425946236,-0.03922375291585922
1783174347051644000,8.648643798828125,0.020935703068971634,0.006512105464935303,-0.03589053452014923
1783174347061712600,8.658712646484375,0.03621245175600052,-0.0011393814347684383,-0.02745095081627369
1783174347071780600,8.668780517578124,0.042332664132118225,-0.007582633290439844,-0.04683716595172882
1783174347081849900,8.678849853515626,0.038098692893981934,-0.019410215318202972,-0.06277766823768616
1783174347091917800,8.688917724609375,0.046895913779735565,-0.016431469470262527,-0.022806020453572273
1783174347101986800,8.69898681640625,0.03563171625137329,0.03474870324134827,0.01862601563334465
1783174347112055800,8.709055908203124,0.015605011023581028,0.015083124861121178,0.046262968331575394
1783174347122123800,8.719123779296876,-0.0034342724829912186,-0.010163859464228153,0.05120883509516716
1783174347132192800,8.72919287109375,-0.02041592076420784,0.01524669211357832,0.028933890163898468
1783174347142260700,8.7392607421875,-0.03309743106365204,0.020572781562805176,0.009453080594539642
1783174347152329700,8.749329833984374,-0.03228276968002319,0.027299661189317703,-0.012625856325030327
1783174347162398000,8.75939794921875,-0.0271256435662508,0.029494434595108032,-0.03760736808180809
1783174347172466700,8.769466796875,-0.01391636487096548,0.03686739504337311,-0.05806310847401619
1783174347182536000,8.779535888671875,-0.005764051340520382,0.04490518197417259,-0.08357489854097366
1783174347192604000,8.78960400390625,-0.00409930944442749,0.0577796995639801,-0.09585287421941757
1783174347202672600,8.799672607421876,0.030372407287359238,0.11526180058717728,-0.07679639011621475
