time,seconds_elapsed,z,y,x
1783169500913215000,0.069215087890625,0.14011106600165366,-0.01947687215255573,0.009112239602487533
1783169500923285000,0.079284912109375,0.10090601381659507,-0.024743601608299647,-0.007757811052538454
1783169500933354000,0.08935400390625,-0.12340367682874202,-0.010760573065094649,0.0065311736007221035
1783169500943423000,0.099423095703125,-0.1295399876266718,0.014191479095537215,0.004099927865806967
1783169500953493000,0.109492919921875,0.0675298139154911,0.0037312817830825224,-0.007902443687617779
1783169500963562000,0.11956201171875,0.08294190258085728,0.004092287982045672,-0.006173190475907177
1783169500973631000,0.129630859375,-0.02809212201833725,-0.014995689884200691,-0.007506557971518486
1783169500983701000,0.139700927734375,-0.12342296605110167,-0.013703718411480076,-0.008031823954638093
1783169500993770000,0.14977001953125,0.00017886369824409484,-0.011235663780535105,-0.009050462945271284
1783169501003840000,0.159840087890625,0.0994318496108055,0.0036402470653411,-0.00795760794095695
1783169501013908700,0.16990869140625,0.025206921970844266,0.00760729894923279,-0.012172841882659121
1783169501023978000,0.17997802734375,-0.0807534526258707,0.024506977557542265,-0.01261774523910135
1783169501034047700,0.1900478515625,-0.05441022010147571,0.02192288163176272,-0.013437281461060047
1783169501044117000,0.200116943359375,0.05452887804508209,0.021806516109942456,0.013003301357431336
1783169501054186000,0.21018603515625,0.05948270106017589,0.027822851506725418,0.012585075945360586
1783169501064256000,0.220256103515625,-0.05797405006289482,0.022311435708065982,0.010226667117793112
1783169501074324700,0.23032470703125,-0.08759528134465216,0.018068391310831065,0.0103506314241793
1783169501084395000,0.24039501953125,0.00757774177789688,0.025494298961304594,-0.0006902655527926981
1783169501094463700,0.250463623046875,0.046488194930553436,0.003690200854022987,-0.010752805317169985
1783169501104533000,0.260532958984375,-0.0002028290957212448,-0.011299938355514313,-0.006363456917577423
1783169501114603000,0.27060302734375,-0.05332476295232773,-0.018018284541810863,-0.015192997988010756
1783169501124672000,0.280672119140625,-0.032391865038871766,-0.012728598902164958,0.02533795077225659
1783169501134740700,0.29074072265625,0.013231822016835213,-0.010266579003073274,-0.0032521747629391026
1783169501144811000,0.30081103515625,0.012172668352723121,-0.020574206969165242,0.004254588704556227
1783169501154880000,0.3108798828125,-0.026292379119992253,-0.01543240080103278,0.0023683365665376184
1783169501164949000,0.320948974609375,-0.05083586874604225,-0.011202572078397496,-0.00011150668361224233
1783169501175019000,0.33101904296875,-0.003989361897110939,0.0076570175591856235,0.006802400890691206
1783169501185088000,0.341087890625,0.012031798577308654,0.013656783130369148,-0.009088982024486176
1783169501195158000,0.351157958984375,-0.028653263032436368,-0.005355257122567855,-0.020544053859496487
1783169501205227000,0.36122705078125,-0.03494739474058151,0.010104986100038514,0.0018590536038391291
1783169501215296000,0.3712958984375,-0.009054828593134879,0.012386927591334097,0.01171177284270525
1783169501225365800,0.38136572265625,0.013992284995317458,-0.0040104206681600765,0.008692096227966248
1783169501235435000,0.39143505859375,0.008904606467485428,0.003741287153866142,0.0018115794666111469
1783169501245504000,0.40150390625,-0.007554360902309418,-0.0009770899874041788,-0.006628341231727972
1783169501255574000,0.411573974609375,-0.02102934402525425,0.004789946823427454,0.005135892450576648
1783169501265643000,0.42164306640625,-0.010255436554551123,0.010750649892701766,0.010178453195048495
1783169501275713000,0.431713134765625,-0.010536007061600685,-0.001366781141445972,0.0035435863244114444
1783169501285781800,0.44178173828125,0.0017284312278032302,-0.005815371747873723,0.004806961890310049
1783169501295851000,0.45185107421875,-0.0087619831264019,0.004378603243292309,0.0012927843234734609
1783169501305920800,0.461920654296875,0.0014086977541446686,0.00879824174987152,0.024622692342102525
1783169501315990000,0.471989990234375,-0.00353051221370697,0.01744230671818368,-0.012021268050139769
1783169501326058800,0.482058837890625,-0.00561316370666027,-0.008321902075549586,-0.011512368679931387
1783169501336129000,0.49212890625,-0.006370704075694083,0.001144589758128859,-0.01369808782171458
1783169501346197800,0.50219775390625,-0.024043723410367965,-0.01123131411569193,-0.005978773015504702
1783169501356268000,0.51226806640625,-0.014462825116515159,-0.016864853890100492,-0.005257016345905139
1783169501366336800,0.522336669921875,-0.0035369419544935225,-0.021613135262578725,-0.003452661204524338
1783169501376406000,0.532406005859375,-0.0033878888726234435,-0.025028008040250276,-0.007068376616807654
1783169501386476000,0.54247607421875,-0.017322890722751616,-0.0010429834140231833,-0.007235997401829808
1783169501396545000,0.552544921875,-0.014327800559997557,0.007469851823477074,0.009332933148462326
1783169501406615000,0.562614990234375,-0.0036918402552604673,0.01050848430043552,0.004175285523803905
1783169501416684000,0.57268408203125,-0.00817336958348751,0.003469689971138723,0.001673221308691427
1783169501426753000,0.5827529296875,-0.01071311719417572,0.008702293394994922,-0.0014175203814171253
1783169501436822800,0.59282275390625,-0.008313654837012291,0.0063409299919381735,0.011349040477536617
1783169501446892000,0.60289208984375,-0.015041501787304878,0.001540253995230887,0.008551536979805678
1783169501456961000,0.6129609375,-0.008002104669809341,0.003355797250906471,0.0022156667554751037
1783169501467031000,0.623031005859375,-0.01593289766907692,0.0028227292705327272,0.006390559553634375
1783169501477099800,0.633099853515625,-0.017286650365591048,0.0007923308379133232,-0.005433980348007753
1783169501487169000,0.6431689453125,-0.021631986093521117,-0.009824516057688743,-0.013589330217614768
1783169501497238800,0.65323876953125,-0.016247370445728302,-0.001871419895067811,0.0014029803994111715
1783169501507308000,0.66330810546875,-0.011909048980474471,0.002225745191494934,0.0014446093177422881
1783169501517377800,0.673377685546875,-0.007873509854078293,-0.014463153910078108,-0.0013175488719716667
1783169501527447000,0.683447021484375,-0.03151975837945938,-0.006380284754792228,0.013718180761672555
1783169501537515500,0.693515625,-0.007128828966617584,-0.009557156658661551,-0.004827337958058342
1783169501547585800,0.703585693359375,0.0064876084536314,-0.006239661574549972,-0.0019495631651952861
1783169501557654500,0.713654541015625,-0.004733458262681961,0.0009032735492335632,-0.003687894732505083
1783169501567724800,0.723724853515625,-0.01310731885433197,0.007486898856400512,-0.018254435951821506
1783169501577793800,0.733793701171875,-0.013854922351241111,-0.0016996891905087976,0.01497167882095091
1783169501587862800,0.74386279296875,-0.010264204382896422,-0.005435459919041022,0.013952455308428034
1783169501597932800,0.753932861328125,0.010687982752919196,0.0009764072841033338,0.013503916956484317
1783169501608001800,0.764001708984375,-0.0012853636354207992,0.005981343998503871,0.010520763826696202
1783169501618070800,0.77407080078125,-0.015499182426929473,-0.005100780038000084,-0.0007096187072340399
1783169501628140800,0.784140869140625,-0.014151274949312209,-0.0054191184223047455,-0.0021204353532288224
1783169501638209800,0.794209716796875,0.005152560457587242,0.0031697343436069784,-0.005362915272638201
1783169501648279600,0.804279541015625,-0.015344868648052215,0.006234969416412059,-0.012638641896657645
1783169501658348800,0.814348876953125,-0.004424830704927444,0.0056787762887775895,0.0015909863853361458
1783169501668417800,0.824417724609375,-0.011309914043545722,0.005895234334340784,0.005399566621752456
1783169501678487800,0.83448779296875,0.0027530981004238128,0.013549514230457133,0.0055866136264521625
1783169501688556500,0.844556640625,-0.018048866909742355,0.006910229196317959,-0.0023943751900922508
1783169501698625800,0.854625732421875,-0.015056114834547041,0.0006423530241474509,-0.005429358971817419
1783169501708695600,0.864695556640625,-0.02388356441259384,-0.010911420811829156,0.009785526621015742
1783169501718764800,0.874764892578125,-0.011463058778643608,-0.004357437157677486,-0.0003044171735178679
1783169501728834600,0.88483447265625,-0.002782324194908142,-0.008268285891902632,0.004818213936686516
1783169501738903800,0.89490380859375,-0.012061024671792984,-0.01593253690947313,-0.008533992189960553
1783169501748972500,0.90497265625,-0.01804828238785267,-0.009507120671588928,-0.012291152766393497
1783169501759042800,0.915042724609375,-0.010717793369293212,0.009648789598024449,-0.0028304193866439164
1783169501769111600,0.925111572265625,0.0030488661766052243,-0.002928354202629998,-0.0032368173636030404
1783169501779180800,0.935180908203125,-0.006377718338370323,0.0020952598127769303,0.004625349112553522
1783169501789250600,0.94525048828125,-0.015507950255274771,0.004029858304280787,0.001169637434417382
1783169501799319800,0.95531982421875,-0.007726210337877273,-0.007060745866200886,0.012793330134870483
1783169501809389800,0.965389892578125,-0.003985854765772819,0.005259938955353573,0.006847308611497282
1783169501819458800,0.975458740234375,-0.01101589953303337,0.030261990570439955,-0.004715146287856623
1783169501829527600,0.985527587890625,-0.008470306703448295,0.016333936767617706,-0.008722801893483846
1783169501839597800,0.995597900390625,-0.013259294545650481,0.010347274989890866,-0.009215069789299741
1783169501849666800,1.005666748046875,0.01083119061589241,-0.0001108536630636081,0.008541837569698691
1783169501859736600,1.015736572265625,-0.005630114841461181,-0.01152905038667377,0.011720093146478757
1783169501869805800,1.025805908203125,-0.018798808494210242,-0.007760354636074043,0.006390860947733745
1783169501879874800,1.035874755859375,-0.008773673564195632,-0.0037920400935690848,0.0028940774736925957
1783169501889944800,1.04594482421875,-0.014908230796456336,0.008119461138895712,0.004969468108797445
1783169501900013600,1.056013671875,-0.012663082218170165,0.010987458889838307,0.010576119876280427
1783169501910082800,1.066082763671875,-0.01819850451350212,0.0034812982105417176,0.006084142219275236
1783169501920152600,1.076152587890625,-0.01640168422460556,-0.017941629975871183,0.0004644757065922022
1783169501930221800,1.086221923828125,-0.0014390928924083708,0.01045084952879697,-0.008141385276336222
1783169501940291600,1.09629150390625,-0.005181202030181884,0.005590709846257232,0.007477916398923844
1783169501950360800,1.10636083984375,-0.003536357432603836,-0.00025662794245872645,-0.010027016359847039
1783169501960429600,1.1164296875,-0.015208090525865555,-0.007359413718944415,0.0036536088704131543
1783169501970499800,1.126499755859375,-0.019397358909249304,-0.005627205931744538,-0.011169500925857574
1783169501980568600,1.136568603515625,-0.005931143614649772,-0.010131814741459674,0.011082681158930062
1783169501990637800,1.146637939453125,-0.004285129973292351,-0.0063162202423671255,0.001253625923441723
1783169502000707600,1.15670751953125,0.0024497312396764754,0.012715524791460483,-0.0011312507859431206
1783169502010776800,1.16677685546875,-0.0036848259925842284,-0.0009369429233949631,0.003033787338482216
1783169502020846800,1.176846923828125,-0.007726210337877273,0.007283800332620739,0.009216942085977644
1783169502030915800,1.186915771484375,-0.008922726646065712,0.014167271669465116,0.0024510007481556386
1783169502040984600,1.196984619140625,-0.01535597456395626,0.0006166751601966098,0.005641193357901648
1783169502051054600,1.2070546875,-0.011463643300533293,0.004977089726249687,0.0024653215344529597
1783169502061123800,1.217123779296875,0.002153378641605377,0.0074282548711868,-0.006506276621483266
1783169502071192800,1.22719287109375,-0.012361468923091888,0.013231379058840684,-0.017607790345046666
1783169502081262800,1.237262939453125,-0.0026367782443761823,-0.009210717841167934,-0.00912203947729431
1783169502091331800,1.247331787109375,0.015320903250575064,-0.014272421677527018,-0.014399495823029428
1783169502101401900,1.25740185546875,0.0030500352203845977,-0.011962117174849844,-0.007321894720150157
1783169502111470600,1.267470703125,-0.005180617508292198,-0.015116475852811707,-0.009048736779065801
1783169502121539800,1.277539794921875,-0.006229249778389931,0.005435439369443338,-0.008729962286632507
1783169502131609600,1.287609619140625,-0.0038350481182336804,0.010218150451197288,-0.006047984060505405
1783169502141678800,1.297678955078125,-0.011766425639390945,0.002066823736159131,0.0016663257770240306
1783169502151747600,1.30774755859375,-0.015806640940904615,-0.015877838447014802,0.006181729975389317
1783169502161817900,1.31781787109375,-0.01101765309870243,-0.004028543130028993,0.005493300186656415
1783169502171886600,1.327886474609375,0.007238719081878662,0.008335770770697854,-0.002855900887772441
1783169502181956900,1.337956787109375,-0.010865092885494232,0.0033133326489361934,0.004804148878715932
1783169502192025600,1.348025634765625,-0.026426234632730482,-0.0038645253744674845,0.003248124208906665
1783169502202094800,1.3580947265625,-0.002333995905518532,0.006950625138788018,-0.003813557805633172
1783169502212164600,1.36816455078125,-0.00966565396785736,0.003562030729977414,-0.004795417582988739
1783169502222233900,1.37823388671875,-0.002184358301758766,0.0030397170390584504,-0.0008457392422948032
1783169502232302600,1.388302490234375,-0.020589783564209936,0.009436021346889902,0.015625932345446198
1783169502242372900,1.398372802734375,-0.02508008072078228,0.008963245886121875,0.002488748075813055
1783169502252441600,1.408441650390625,-0.02702595409154892,0.004610790864238515,-0.009613394057657569
1783169502262511600,1.41851171875,-0.01520692148208618,0.010213887551322113,-0.0062499272402375934
1783169502272580600,1.42858056640625,-0.0035351883888244625,0.021142812053801027,0.0021231296338140963
1783169502282649900,1.43864990234375,-0.004282791885733604,0.0026177401837659997,0.007439794611930847
1783169502292719900,1.448719970703125,-0.015206336960196494,-0.003729541917145252,-0.0037071930880192665
1783169502302788600,1.45878857421875,-0.01984510267674923,0.005454470580187626,0.002300248899543658
1783169502312857600,1.468857666015625,-0.022390695506334303,-0.008836048443033359,-0.0020396891340613366
1783169502322927600,1.478927734375,-0.029423662883043288,0.0004897973775165155,-0.00019223463647067546
1783169502332996900,1.488996826171875,-0.014309095859527587,-0.006127040646085515,-0.00733473593541421
1783169502343066600,1.499066650390625,-0.006527355942130089,-0.0019545179015258325,0.00007876432463526726
1783169502353135900,1.509135986328125,-0.01535597456395626,-0.011214559343713335,0.012147826172411441
1783169502363204600,1.51920458984375,-0.009370470413565635,0.002576878450415097,-0.011404250396648422
1783169502373275000,1.52927490234375,-0.010717208847403526,0.0012386840826366097,0.0022238135293126105
1783169502383343600,1.539343505859375,-0.00682663114964962,0.010442871718318201,0.022951507726870476
1783169502393414000,1.549413818359375,-0.017449147450923918,0.019173244996904395,0.0033024116794113066
1783169502403482600,1.559482666015625,-0.020442484048008917,0.006376120036328211,-0.0007794416735880076
1783169502413551900,1.5695517578125,-0.015654080727696418,0.006534429570310749,-0.002647847627662122
1783169502423621600,1.57962158203125,-0.008172200539708137,0.011658330188994296,0.006003743059979751
1783169502433691000,1.58969091796875,-0.01939502082169056,0.0030272023340687155,0.007775794233800843
1783169502443759600,1.599759521484375,0.005745265653729438,-0.0009759734592633321,0.017167261769622563
1783169502453830000,1.609829833984375,0.0008072247296571731,-0.008603043404757045,0.005805745403002947
1783169502463898600,1.619898681640625,-0.008472060269117355,0.001706534489826299,-0.007062056473875418
1783169502473968600,1.62996875,-0.009969020828604697,0.0054469768268987535,-0.010936121428245679
1783169502484037600,1.64003759765625,-0.012813304343819618,-0.004090694246580824,-0.0030760099118575454
1783169502494107000,1.65010693359375,-0.024485621958971023,-0.011093248218717053,0.005596075574541464
1783169502504176600,1.6601767578125,-0.012364391532540321,-0.007942086144839412,0.001785157250566408
1783169502514245600,1.67024560546875,-0.011318681871891022,0.019826690237224102,0.012724383951351045
1783169502524314600,1.680314697265625,-0.005783259576559067,0.005759275912772864,0.010167365545453503
1783169502534384600,1.690384521484375,-0.012068038934469222,-0.0034229053870774803,0.013191855332627891
1783169502544453600,1.70045361328125,-0.006381809991598129,-0.005136924497038126,0.01877942794030532
1783169502554523600,1.710523681640625,-0.02329144373834133,0.010806407801085152,0.005496569855976849
1783169502564592600,1.720592529296875,0.0013999299257993697,0.005365641519264318,-0.004074318500515073
1783169502574661400,1.730661376953125,-0.008776011651754378,-0.013703937607188708,-0.008524996032752096
1783169502584731600,1.740731689453125,-0.010870938104391097,-0.0016547769031254574,-0.0064511854333803055
1783169502594800600,1.750800537109375,-0.0023421792119741438,0.0044137065227143465,0.009235573721211403
1783169502604869600,1.76086962890625,-0.013864859223365783,0.0072561360075604165,-0.013287004536483436
1783169502614939600,1.770939697265625,-0.00937806919813156,-0.005687507584504783,0.005047684444161132
1783169502625008600,1.781008544921875,-0.008481997141242027,-0.00677578231182415,-0.01188686454812996
1783169502635078700,1.79107861328125,-0.017011925077438355,0.009210617376468144,0.013917000402556732
1783169502645147600,1.801147705078125,-0.024942133554816243,0.0037716640258207913,0.008320714765461161
1783169502655216600,1.811216552734375,-0.027785832548141477,0.015107621259498409,0.008976429594680667
1783169502665286700,1.82128662109375,-0.01162497134208679,0.004316721554799005,-0.007510923619382083
1783169502675355600,1.831355712890625,-0.00878244139254093,0.010550241082930005,-0.01673379312264733
1783169502685424600,1.841424560546875,-0.009382160851359367,0.005497843931033275,-0.012818327578809111
1783169502695494700,1.85149462890625,-0.022700492107868193,-0.013571410968434065,0.00926785942246206
1783169502705563600,1.861563720703125,-0.011475333738327025,-0.011454647143324836,-0.001612842024117708
1783169502715633700,1.871633544921875,-0.0011526771664619444,-0.0005381711304653435,-0.003152947605587542
1783169502725702400,1.881702392578125,-0.015519640693068503,-0.004197844415483996,0.0024753588712774217
1783169502735771600,1.891771728515625,-0.026145664125680923,-0.004369607086083851,-0.002576700353901833
1783169502745841400,1.90184130859375,-0.026894436666369436,-0.011502838233183137,-0.000969109893636778
1783169502755910700,1.91191064453125,-0.00893675517141819,-0.008934092856873757,-0.006000537322741002
1783169502765979600,1.921979736328125,-0.019112112227082253,-0.017124431841471232,0.0041033710650634015
1783169502776049700,1.932049560546875,-0.0039998832911252976,-0.0018644147655460983,0.011724056935543193
1783169502786118400,1.942118408203125,-0.00040741175711154934,0.010402649305784143,-0.011414388198172674
1783169502796188700,1.952188720703125,-0.015669862818717954,-0.006754776056413538,0.00823209576709196
1783169502806257400,1.96225732421875,-0.0017559037566184997,0.002196491697547026,-0.005019490396138281
1783169502816326700,1.97232666015625,0.0030330840855836865,0.0041575124050956215,0.0006267535962164401
1783169502826396700,1.982396728515625,-0.004448796102404594,0.0008932910113362595,-0.004797527341684326
1783169502836465700,1.992465576171875,-0.006543138033151626,-0.010636627025017515,-0.006334655514778569
1783169502846535700,2.00253564453125,-0.014023849177360534,-0.007790557978092692,-0.012260246171476318
1783169502856604700,2.012604736328125,0.014406711015105246,-0.0009776859257370233,0.003137037650402635
1783169502866673700,2.022673583984375,-0.009084639209508895,-0.007537939490471035,0.004111892298236489
1783169502876743700,2.03274365234375,-0.027789924201369283,0.0028084221839671953,-0.00947355632870458
1783169502886812700,2.042812744140625,-0.022852467799186704,0.0005377921045525,0.020330831233924252
1783169502896881700,2.052881591796875,-0.011930091768503188,0.0028496035777265203,0.004672138263192027
1783169502906951700,2.06295166015625,-0.010135025045275688,0.0021593197586247696,-0.0012399261916521936
1783169502917020700,2.073020751953125,-0.015072481447458267,-0.006396002913732081,-0.0018776943722274154
1783169502927090700,2.083090576171875,-0.01761515166759491,0.0025150013284990563,-0.002052740411879495
1783169502937159400,2.093159423828125,-0.004746902266144752,-0.01275703954536002,-0.007496694164630025
1783169502947228700,2.103228759765625,-0.007889876466989517,-0.0030808459171792492,-0.009998648781888187
1783169502957298400,2.11329833984375,-0.016119944673776625,-0.0029776458376087247,-0.00048145424085669215
1783169502967367700,2.12336767578125,-0.007291910573840141,-0.0030326365610118954,-0.008520338123943656
1783169502977436400,2.1334365234375,-0.016271920365095137,-0.007970796216093003,0.0029000779562164095
1783169502987506700,2.143506591796875,-0.012232289585471153,0.016579940568073652,0.000940176060097292
1783169502997575400,2.153575439453125,-0.013279752811789511,-0.0004093982182210311,-0.0036572438659146426
1783169503007645700,2.163645751953125,-0.017919103050231932,0.008387857150961645,-0.006679404698684811
1783169503017714400,2.17371435546875,0.013055296406149863,0.013989805343863553,-0.004149356498103589
1783169503027783700,2.18378369140625,-0.0062467854350805275,0.003714065786800347,-0.003316933395108208
1783169503037853700,2.193853759765625,-0.02135901437103748,-0.01920284098414704,-0.007390420778561383
1783169503047922700,2.203922607421875,-0.027494156125187873,0.0030360523608047515,0.0072537796536926175
1783169503057991400,2.213991455078125,-0.013130115208029746,0.005576206396869383,-0.012626166007574647
1783169503068061700,2.224061767578125,-0.019864391899108887,-0.0122063651263481,0.005273127230489626
1783169503078130700,2.234130615234375,-0.004599602749943733,0.008432988634053618,0.009605694808391853
1783169503088200400,2.244200439453125,-0.006544307076930999,0.0026710184406954795,-0.0010867905897088347
1783169503098269700,2.254269775390625,-0.012830840000510215,-0.012337640522932633,-0.009870994681073351
1783169503108338700,2.264338623046875,-0.0008598316997289657,0.0036283830976113676,-0.0030096301447600123
1783169503118408700,2.27440869140625,-0.004299743020534515,-0.01657729651983827,0.005807809495925903
1783169503128477700,2.284477783203125,-0.004001052334904671,-0.001001774620800279,-0.006930621247086674
1783169503138547700,2.294547607421875,-0.013576689931750296,-0.002449256315641105,0.0012214954858180134
1783169503148616400,2.304616455078125,-0.025846388918161392,0.0038470262503949924,-0.02080038497443311
1783169503158685700,2.314685791015625,-0.018814006063342093,0.005307225862913764,-0.0022464637525379657
1783169503168755500,2.32475537109375,-0.018962474623322487,-0.0030495146305765954,0.004695838799187914
1783169503178824700,2.33482470703125,-0.012677110743522643,0.011704078160016796,-0.0020274415738414974
1783169503188893400,2.3448935546875,-0.005195230555534363,-0.005426029936992563,0.0061711172498296945
1783169503198963700,2.354963623046875,-0.007739069819450378,0.0009626710196956992,0.0010233242989052087
1783169503209032400,2.365032470703125,-0.009385667982697486,0.010643102431576698,0.014076867139386013
1783169503219102700,2.375102783203125,-0.015222119051218033,0.0029456660970347,0.013716061869822441
1783169503229171500,2.38517138671875,0.00303425312936306,-0.0025235271282494066,0.008195398752205074
1783169503239240700,2.39524072265625,0.003632219022512436,-0.019042522156168706,0.005814741560211405
1783169503249310500,2.405310546875,-0.006844166806340217,0.010138011586805804,0.010054781149607152
1783169503259379700,2.415379638671875,0.0030319150418043135,0.0046651057342067355,0.00031323066763579843
1783169503269448400,2.425448486328125,-0.024203297886252403,-0.004358903028978966,0.005095925766369328
1783169503279518700,2.435518798828125,-0.011035773277282715,0.0014232742687687277,-0.012487762183882296
1783169503289587500,2.44558740234375,-0.024054244804382324,0.007461056595668196,-0.022544296899158506
1783169503299657500,2.455657470703125,-0.014626491245627402,0.008521000277646816,-0.0030990071949549016
1783169503309726700,2.465726806640625,-0.007294248661398888,-0.008805228613084182,0.003978018519189209
1783169503319795700,2.475795654296875,-0.020911855125427245,-0.009698789052478968,-0.008687757979566231
1783169503329865700,2.48586572265625,0.002879354828596115,-0.0023377085328334943,-0.002920508822891861
1783169503339934500,2.4959345703125,-0.0008627543091773986,-0.005675049961730838,0.0038442269385326653
1783169503350003700,2.506003662109375,-0.010291092389822006,0.007486889723245986,-0.015799334417283536
1783169503360073500,2.516073486328125,-0.024656886872649192,-0.006942960138851776,-0.001337276485748589
1783169503370142700,2.526142822265625,0.0006342062503099441,0.0066939675135770805,-0.0013654431343078613
1783169503380212500,2.53621240234375,-0.010888473761081695,0.006345364138460718,0.007343184103351086
1783169503390281700,2.54628173828125,-0.011038695886731146,0.007093232496851123,-0.014523405330488457
1783169503400350500,2.5563505859375,-0.006997311541438103,0.008874101731367408,-0.008386984934704378
1783169503410420700,2.566420654296875,-0.006247954478859901,-0.0018498839166946708,-0.00017344773760996757
1783169503420489500,2.576489501953125,-0.005800210711359977,0.0017482912723207845,0.004604708183323964
1783169503430559700,2.586559814453125,-0.013282090899348259,0.012206575188902205,0.00598884688494727
1783169503440628500,2.59662841796875,-0.023157588225603102,-0.006048764945217408,0.008686488471087068
1783169503450697700,2.60669775390625,-0.015375263786315917,0.0015180216138251125,0.009085470326570793
1783169503460767500,2.616767578125,0.0016840075641870497,-0.008305960154323838,0.004189606310101225
1783169503470836700,2.626836669921875,-0.021508651974797247,0.005301193414349109,0.0019120350332465022
1783169503480905500,2.636905517578125,-0.024652795219421385,-0.00023732502036727962,0.0016381682616192846
1783169503490975700,2.646975830078125,-0.011185995402932166,0.004540735002444125,0.005507602706644684
1783169503501044500,2.65704443359375,-0.0013099135547876358,-0.007537948623625561,-0.013817896542791277
1783169503511114500,2.667114501953125,-0.008492518535256385,-0.010182435250421985,-0.014281166672986
1783169503521183500,2.67718359375,-0.01732055263519287,-0.007698404448921792,0.0014740089421626178
1783169503531252700,2.687252685546875,-0.010139116698503493,0.006501605012943036,-0.014797865757159887
1783169503541322000,2.697322021484375,-0.015226795226335525,-0.006647945547918789,0.0031146248891949654
1783169503551391000,2.707390869140625,-0.012982815691828726,-0.018243293503299354,0.024282546268077566
1783169503561460000,2.7174599609375,-0.008491349491477012,-0.007573289365065284,0.0002761409271042794
1783169503571530000,2.727530029296875,-0.013429390415549277,-0.002335530275478959,-0.006410287167411297
1783169503581599000,2.737598876953125,-0.020013444980978963,-0.004477360043185763,0.010624552994733676
1783169503591669000,2.7476689453125,-0.014327216038107871,0.0007056549181696027,0.0059333995038177816
1783169503601738000,2.757738037109375,-0.018218378257751463,0.0026999842402758074,-0.00418045488926582
1783169503611807000,2.767806884765625,-0.020461188748478888,0.005867878253245726,-0.007060302908206358
1783169503621877000,2.777876953125,-0.00938683702647686,0.008103943909355439,-0.0026181283428333697
1783169503631946000,2.787946044921875,-0.015073065969347953,0.00012144812231417744,0.0018666980541776864
1783169503642016000,2.79801611328125,-0.02824059057831764,-0.00010424125918652861,-0.003887079699570313
1783169503652085000,2.8080849609375,-0.015222119051218033,-0.0011310726894298568,-0.003083325568633154
1783169503662154000,2.818154052734375,-0.023753216031193732,0.0011914017416536807,0.00973559566522017
1783169503672224000,2.82822412109375,-0.010285831692814827,-0.0007622850428102537,-0.010008421257231384
1783169503682293000,2.83829296875,-0.008790040177106856,-0.0037641291733365506,0.007424167784536257
1783169503692362000,2.848362060546875,-0.002655482944846153,0.010072111310320906,0.010400525847356765
1783169503702432000,2.858431884765625,-0.013130115208029746,0.0013651097741676495,-0.007713378255767747
1783169503712501000,2.8685009765625,0.0003378536522388458,-0.0032177519035292788,0.013878805550327524
1783169503722571000,2.878571044921875,0.009913491249084472,-0.0063480218864278865,0.0040869131206069135
1783169503732640000,2.888639892578125,-0.015225041660666464,0.000015389365376904606,0.005896556358458474
1783169503742709000,2.898708984375,-0.01956570121347904,-0.006250566561054438,0.007078550950950011
1783169503752779000,2.908779052734375,-0.0014607202023267745,0.011655836837808601,0.0095174046035856
1783169503762848000,2.918847900390625,-0.004903554132580757,-0.003321673502307385,-0.012745719000324606
1783169503772918000,2.92891796875,-0.0081955814152956,-0.008101943748514168,-0.010510251565836369
1783169503782986800,2.93898681640625,-0.011936521509289741,-0.004420081464573741,-0.007922920220065861
1783169503793056000,2.949055908203125,-0.020617256093025206,0.0014024598096031694,0.014097389337606727
1783169503803126000,2.9591259765625,-0.011639584389328956,-0.010280630361312068,0.010439314354630186
1783169503813195000,2.969195068359375,-0.025407412979006765,0.010623945639957673,0.009094174222834407
1783169503823264000,2.979263916015625,-0.015081833797693251,0.014666745624202303,0.001353971892222762
1783169503833334000,2.989333984375,-0.011042203018069267,0.006382988168532029,-0.006158349099801853
1783169503843402800,2.99940283203125,-0.023911621463298796,-0.01610878395894542,-0.004004093675361946
1783169503853473000,3.00947314453125,-0.009247136294841765,0.0012056905619101598,-0.00726371652581729
1783169503863542000,3.0195419921875,0.009906476986408234,-0.0071431497529149054,-0.029099700758839026
1783169503873611000,3.029611083984375,0.008410100948810577,0.007173595123528502,-0.002673548324499279
1783169503883681000,3.039680908203125,-0.006104162093997001,-0.011962811294593848,0.005384697846183553
1783169503893750000,3.04975,0.0012274959683418274,-0.008610139865824021,0.00849461002764292
1783169503903819000,3.059819091796875,-0.01642915675342083,0.007802988201403059,-0.018360901134135202
1783169503913889000,3.069888916015625,-0.03288987768888473,0.007165443783113732,-0.012266794643271713
1783169503923958000,3.0799580078125,-0.015230886879563331,0.0033999081039801237,-0.026907259615324437
1783169503934028000,3.090028076171875,-0.00729892483651638,0.0020113991879159585,-0.0005844670907594263
1783169503944097000,3.100096923828125,-0.005503273591399192,0.0033413463171571493,0.006713654028158635
1783169503954166000,3.110166015625,-0.01029226143360138,-0.0010419331012526526,-0.011502477473579346
1783169503964236000,3.120236083984375,-0.014930442628264427,-0.0030800011003855616,0.0032951873541809617
1783169503974305000,3.130304931640625,-0.006699789899587631,0.013815028732270002,-0.006804702445631847
1783169503984375000,3.140375,-0.027647885382175445,0.0016883458125870675,0.004111399107892066
1783169503994443800,3.15044384765625,-0.008494272100925446,-0.004488648622180335,-0.003037723728083074
1783169504004513000,3.160512939453125,-0.021361936980485916,-0.0030294308237731457,0.007303107821289449
1783169504014582800,3.170582763671875,-0.025702012011408804,-0.00603958155834116,-0.0072513776340521864
1783169504024652000,3.180652099609375,0.0010825345396995544,-0.0027812464826740325,0.006301474764384329
1783169504034721000,3.190720947265625,0.0018313070803880691,0.0007840813160873949,0.007733270266326144
1783169504044791000,3.200791015625,-0.01747135928273201,-0.0014502125080442054,-0.0012009824207518248
1783169504054859800,3.21085986328125,-0.011934183421730995,-0.001266572169982828,-0.003802652819128707
1783169504064930000,3.220929931640625,-0.01073708259165287,-0.009369662129390053,-0.021286131797917187
1783169504074999000,3.2309990234375,-0.01163549273610115,-0.005951263954071328,0.006029836482461541
1783169504085068000,3.241068115234375,-0.006848258459568024,-0.009796011482411994,-0.006761082499613985
1783169504095138000,3.251137939453125,-0.011935936987400054,-0.005412905593938194,-0.004821574937552213
1783169504105207000,3.26120703125,-0.006549567773938178,-0.014701177616766653,0.0018906999842729418
1783169504115276000,3.271276123046875,-0.005503273591399192,-0.01110218501042109,-0.010608533441694453
1783169504125346000,3.281345947265625,-0.009245382729172706,-0.01964610493935179,-0.011691396774956956
1783169504135415000,3.2914150390625,-0.0075982000440359115,-0.005642910390952602,-0.0006699990828987211
1783169504145484800,3.30148486328125,-0.005052607214450836,-0.0038018217020668087,-0.003488636700203642
1783169504155554000,3.311553955078125,0.0007838438540697097,0.007240595945133827,0.0013013466558419167
1783169504165623000,3.321623046875,-0.012832593566179275,0.009461185470898635,0.014677801307756453
1783169504175693000,3.331693115234375,-0.004602525359392166,-0.010437967214337549,-0.012111412285314873
1783169504185762000,3.341761962890625,-0.00011339724659919739,-0.006005857385252602,-0.015731347214989363
1783169504195832000,3.35183203125,-0.020465280401706695,-0.013712805900233797,0.007331320135621353
1783169504205900800,3.36190087890625,-0.002808043158054352,-0.0009693427890772,0.0020901315465103832
1783169504215970000,3.371969970703125,-0.0298936184823513,-0.00886206880027894,-0.0045639286483637985
1783169504226039800,3.382039794921875,-0.010142623829841614,0.010511571306665428,0.007292001905385404
1783169504236109000,3.392109130859375,-0.013735095363855362,-0.0033373779615154487,0.01557629365059547
1783169504246177800,3.402177734375,-0.011640168911218643,-0.014637505829986184,0.0003382372447289526
1783169504256248000,3.412248046875,-0.006551905861496925,-0.011936758971307426,0.0006872790112625807
1783169504266316800,3.42231689453125,-0.020018705677986144,0.0033844913391396403,0.004707026913482695
1783169504276387000,3.432386962890625,-0.015977905854582787,-0.0009479255417129025,0.0008274638000875711
1783169504286455800,3.442455810546875,-0.0032592940568923947,0.00030754984552040695,-0.008743662018422037
1783169504296525000,3.452525146484375,-0.02076689369678497,0.0022428972556954247,0.0055976008113473655
1783169504306595000,3.462594970703125,-0.006701543465256691,0.007607730490784161,0.012863847220968455
1783169504316664000,3.4726640625,-0.0041582887232303615,-0.0019853194651659575,0.025050827226834372
1783169504326732800,3.48273291015625,-0.022563713985681532,0.0025997387361945583,0.00795319662732072
1783169504336803000,3.492802978515625,-0.019721184036135674,0.002229393886728212,0.014809364398708566
1783169504346872000,3.5028720703125,-0.012537994533777236,-0.01297737233173102,-0.003070904478477314
1783169504356941800,3.51294189453125,-0.005504442635178566,-0.003341391982929781,0.0032994616704992946
1783169504367011000,3.523010986328125,-0.013435235634446143,-0.0012239705706946552,0.015149766201060264
1783169504377080000,3.533080078125,-0.004007482075691223,0.0005631457415176555,0.003736556179821491
1783169504387150000,3.543150146484375,-0.02690261997282505,-0.008358165265596471,0.008704225057177245
1783169504397218800,3.55321875,-0.009098083212971687,-0.003740419504186138,0.0159221479461994
1783169504407289000,3.5632890625,-0.005059036955237389,-0.020373802725970745,0.017887694131815804
1783169504417357800,3.57335791015625,0.0022726211071014404,-0.0006458692886400967,-0.00537391159068793
1783169504427427000,3.583427001953125,-0.01194353577196598,0.0007811541400616988,0.005826797324186191
1783169504437496800,3.593496826171875,-0.01792845540046692,-0.001150124449771829,-0.0021777732973452656
1783169504447566000,3.603566162109375,-0.010746434941887855,-0.006972044669440947,-0.003649718146584928
1783169504457634800,3.613634765625,-0.006556582036614417,-0.0009922122080111876,0.011001414349954575
1783169504467705000,3.623705078125,-0.011345569878816604,-0.016584694375004618,-0.012107950819749384
1783169504477773800,3.63377392578125,-0.00670680416226387,-0.005856393311428837,-0.0036061986652668565
1783169504487844000,3.643843994140625,-0.002815641942620277,-0.0032934246553573757,0.002200405254261568
1783169504497912800,3.653912841796875,-0.011045710149407386,-0.007420925514679402,-0.021328537034383043
1783169504507982000,3.663982177734375,-0.010746434941887855,-0.0015629019351676105,-0.004133647472318262
1783169504518051800,3.6740517578125,-0.007604045262932777,-0.003791145044425502,-0.004665863786032423
1783169504528121000,3.68412109375,-0.015835867035388945,0.001419607307226397,-0.004358423538366333
1783169504538192100,3.694192138671875,-0.008204933765530586,0.003859387975046411,-0.002016426989482716
1783169504548261000,3.70426123046875,-0.019275778356194494,-0.007285763960843905,0.0014073186478111893
1783169504558330000,3.714330078125,-0.004761515313386917,0.00763537654953543,-0.0030430118245538323
1783169504568400100,3.724400146484375,-0.021671733582019806,0.020825332186021842,-0.006335788025939836
1783169504578469000,3.73446923828125,-0.006855857244133949,0.01013902536695823,0.006766397995548322
1783169504588539100,3.7445390625,-0.009399111986160278,0.002835433488478884,0.014841851029358803
1783169504598608100,3.754608154296875,-0.0058066404521465295,0.00633715799911879,0.01625310606677085
1783169504608677000,3.764677001953125,-0.012391279539465904,-0.0014983853315934537,-0.0091271997096017
1783169504618747000,3.774746826171875,-0.006855272722244263,0.003843290790193714,0.008291872263466938
1783169504628816100,3.784816162109375,-0.0076017071753740305,-0.005152122066169977,0.008851214046124368
1783169504638885000,3.794885009765625,-0.0077519293010234825,-0.01077430476292502,-0.00255747506362386
1783169504648955100,3.804955078125,-0.00895019917488098,-0.003803958860225975,-0.01190059167938307
1783169504659024100,3.815024169921875,-0.008052373552322387,0.003517520301393233,0.0016670472962316124
1783169504669094100,3.82509423828125,-0.009700140759348868,0.00008003839969169347,-0.0014984857962932437
1783169504679163000,3.835162841796875,-0.01912789431810379,0.010711217498034237,0.012511179592087864
1783169504689232100,3.845232177734375,-0.006258475872874259,-0.003213546085869893,-0.007666004583239555
1783169504699302000,3.855302001953125,0.000025718963146209716,0.003239730839896947,-0.0009728818864561617
1783169504709371100,3.86537109375,-0.003418284010887146,-0.006660320972301997,-0.0063986423953901975
1783169504719440000,3.87543994140625,-0.00476443792283535,0.0052678847997915,-0.0035423579151276498
1783169504729510100,3.88551025390625,-0.012395955714583396,-0.0001318827513605356,0.00900539082768373
1783169504739579000,3.895578857421875,-0.011648352217674254,0.010572192619834095,-0.010088701685518026
1783169504749649200,3.905649169921875,-0.013892916274070738,0.010860932733607477,-0.003685182185610756
1783169504759718100,3.91571826171875,-0.009553425765037536,0.005121827392606065,0.00031795250852592285
1783169504769787100,3.925787109375,-0.003866612300276756,-0.004309392198291607,-0.004400819641677663
1783169504779857200,3.935857177734375,-0.026312837386131285,-0.002076637310697697,0.023053990853810682
1783169504789926100,3.945926025390625,-0.014792495462298392,0.005415590741368942,-0.010224730889033525
1783169504799996200,3.95599609375,-0.013446926072239875,-0.007922701024357229,-0.0040963385360781104
1783169504810065200,3.966065185546875,-0.00895721343755722,-0.0024615130090154705,-0.002148117944598198
1783169504820134100,3.976134033203125,-0.02571662505865097,0.0007455302708316594,-0.013774906784435733
1783169504830204000,3.986203857421875,-0.004018003469705582,-0.002075911224912852,-0.007789037307864055
1783169504840273200,3.996273193359375,0.0030155484288930893,0.007977280755806714,0.0017887009145226328
1783169504850342100,4.006342041015625,-0.007458499312400817,-0.0016275190034415572,-0.004777900192607194
1783169504860412200,4.016412109375,-0.016436755537986753,0.001167984333448112,-0.00033464791500009596
1783169504870481000,4.02648095703125,-0.002070961055159569,-0.0035411660384619607,-0.004495128595316782
1783169504880551200,4.03655126953125,-0.002070961055159569,-0.003927475642040372,0.00013264993634074925
1783169504890620000,4.046619873046875,-0.009551672199368475,0.00978758158078417,-0.0002125376389827579
1783169504900689200,4.056689208984375,-0.023618191474676132,0.006731755940429866,0.007666379042575135
1783169504910759000,4.066759033203125,-0.003118424281477928,0.011889704959187656,-0.005089322495646775
1783169504920828200,4.076828125,-0.016137480330467222,0.002272895101737231,-0.023973955242941155
1783169504930898000,4.08689794921875,0.0058580783784389495,-0.005229123691981658,0.0014551215786021202
1783169504940967200,4.09696728515625,0.005108721315860748,0.001964258410828188,0.0076248414557892824
1783169504951036000,4.107035888671875,-0.01539163039922714,0.004121262914780527,0.0038588582520838826
1783169504961106200,4.117106201171875,-0.013894669839739799,0.0033998715713620185,-0.0030625293757766485
1783169504971175000,4.1271748046875,0.0007698153287172317,0.005450557023473084,-0.004842425929335877
1783169504981244200,4.137244140625,-0.01643967814743519,-0.011201307136495597,-0.005928467600373551
1783169504991314200,4.147314208984375,-0.012697569009661673,0.011288894088403322,-0.011939489784510806
1783169505001383200,4.157383056640625,0.008252280038595199,-0.004304177167057059,0.014556065491074695
1783169505011453200,4.167453125,0.0037631519258022306,-0.009732289463281632,0.0038295864918269215
1783169505021522000,4.17752197265625,-0.005364741903543472,0.004323617086466402,0.006432170205656439
1783169505031591200,4.187591064453125,-0.014492635732889175,0.0005568073322763667,-0.00419104934851639
1783169505041661000,4.197660888671875,-0.00566284806728363,-0.00007054448556154966,-0.004125564630562439
1783169505051730200,4.207730224609375,-0.005213350734114647,0.008162606160878204,-0.0020141528340056536
1783169505061800000,4.217800048828125,-0.006411036086082458,-0.011615751422592437,0.003462159685231745
1783169505071869200,4.227869140625,-0.015090017104148864,0.0007342325586825609,0.0049428632296621795
1783169505081938000,4.23793798828125,-0.02197568496465683,0.010515722325397655,0.013247083518048748
1783169505092008200,4.24800830078125,-0.009856208103895188,0.008676926058297976,0.01459309129952453
1783169505102077000,4.258076904296875,-0.02377250525355339,-0.007063979002903215,0.0024037640729453412
1783169505112146200,4.268146240234375,-0.013745032235980033,-0.011439961030846461,0.007787676467839628
1783169505122216000,4.2782158203125,-0.023471476480364798,0.0014198721687076613,0.010672365058679132
1783169505132285200,4.28828515625,-0.021077859342098236,-0.014151338881393893,-0.00864681404782459
1783169505142355000,4.29835498046875,-0.012998597782850264,-0.0029786093854112547,-0.006049920289264992
1783169505152424200,4.308424072265625,-0.01359656367599964,0.009750514673138968,-0.01514997626361437
1783169505162493000,4.318492919921875,-0.010902502286434173,-0.0027901376086054367,-0.02089896824439056
1783169505172563200,4.328563232421875,-0.00805880329310894,-0.009407030431134627,0.0021594156567472963
1783169505182632000,4.3386318359375,-0.016139233896136283,0.005050611620186828,-0.015520417011203243
1783169505192702000,4.348701904296875,-0.011948796468973158,0.003508985368488356,-0.016508660863572732
1783169505202771000,4.35877099609375,-0.010751111117005347,0.00945955520281568,-0.0006725289667025208
1783169505212840200,4.368840087890625,-0.020028058028221128,-0.005417645701137371,0.0028685868394095447
1783169505222910200,4.37891015625,-0.0119470429033041,0.013013859284063801,0.019058957267738878
1783169505232979000,4.38897900390625,-0.010150807136297225,0.0033410449230577796,0.010330474552139639
1783169505243048000,4.3990478515625,-0.006558920124173164,0.01896591325600166,-0.005322437131777405
1783169505253118000,4.409117919921875,-0.014491466689109802,0.0196055765661411,0.01803776099383831
1783169505263187200,4.419187255859375,-0.012394786670804023,0.006720618058484978,-0.006937306716199964
1783169505273257000,4.429257080078125,-0.019426000481843946,-0.005536107281921431,-0.00942650231658481
1783169505283326200,4.439326171875,-0.013441080853343008,-0.011318480942491441,-0.0008185863738879561
1783169505293395000,4.44939501953125,-0.016135142242908476,-0.004042731485585682,-0.009450111521035432
1783169505303465200,4.45946533203125,0.0039151276171207425,0.003539001480839215,-0.0015792502817697821
1783169505313534000,4.469533935546875,-0.016287117934226988,0.004948306589759886,-0.0040468733711633825
1783169505323604200,4.479604248046875,-0.007757189998030662,0.00820817603538744,0.0035432894968893376
1783169505333673000,4.4896728515625,-0.012248071676492691,0.002141158480849117,0.0034809100514743476
1783169505343742200,4.4997421875,-0.01344458798468113,-0.021746986208739688,-0.001950102021312341
1783169505353812000,4.50981201171875,-0.0126963999658823,0.008401771511882544,0.011795377739239483
1783169505363881200,4.519881103515625,-0.030353637209534642,0.004729827833757735,-0.00463539558253251
1783169505373950000,4.529949951171875,-0.006859948897361755,-0.01638098392987158,-0.013832025532843545
1783169505384020000,4.54002001953125,-0.00012684125006198882,-0.009334558849968016,-0.004406326933857054
1783169505394089000,4.5500888671875,-0.0126963999658823,-0.006723928827000782,-0.006461825558403507
1783169505404159000,4.560158935546875,-0.017934885141253472,0.01448673571506515,-0.01277423270875588
1783169505414228000,4.57022802734375,-0.01539163039922714,-0.000952108526485972,-0.006469296478806063
1783169505424297200,4.580297119140625,-0.018981763845682145,-0.0007032346322201192,-0.008812535136705263
1783169505434367200,4.5903671875,-0.014044307443499564,-0.0026872160902479663,0.0008976155600044876
1783169505444436000,4.60043603515625,-0.017635609933733937,0.001576734097697772,0.007922116502467543
1783169505454506200,4.61050634765625,-0.018533435556292534,-0.010987805949710308,0.0031845209207851436
1783169505464575000,4.620574951171875,-0.025864509096741675,-0.0022493361296365036,-0.0034838691935408857
1783169505474644000,4.63064404296875,-0.01359481011033058,-0.019885736081236973,-0.011047911239648238
1783169505484714000,4.6407138671875,-0.014493804776668548,0.005507904100744054,-0.015601665553869678
1783169505494783200,4.650783203125,-0.017485972329974172,-0.003241808632551692,0.003387487013824284
1783169505504853000,4.66085302734375,-0.009407879814505577,0.0006631172509631142,0.007541428355500102
1783169505514922200,4.670922119140625,-0.001028174003958702,0.001865008420590311,0.00007806107173673807
1783169505524991000,4.680990966796875,-0.002673603123426437,-0.006718617897643707,-0.0021130374980624766
1783169505535061200,4.691061279296875,-0.008659107273817062,-0.007466810483019799,-0.009886959435185416
1783169505545129700,4.701129638671875,-0.012101356682181357,-0.0017367971973493695,-0.02188862773571163
1783169505555199000,4.711198974609375,-0.028410686448216437,-0.004063751440728083,-0.011314042229391634
1783169505565268700,4.721268798828125,-0.009107435563206673,0.0011839445209829136,0.0002839863068424165
1783169505575338000,4.731337890625,-0.011802665996551514,-0.007593537568650208,-0.014948681537853553
1783169505585407700,4.74140771484375,-0.020482231536507606,-0.005003347545512952,0.008215674355253577
1783169505595477000,4.75147705078125,0.002410568273067474,-0.005201495899539441,0.013735004032310098
1783169505605545700,4.761545654296875,-0.008512976801395416,-0.002816203631623648,-0.030189322626451028
1783169505615615700,4.77161572265625,-0.015245499926805496,-0.013739643674809485,-0.007495296791987493
1783169505625684700,4.781684814453125,0.00046761751174926756,0.0097364724480547,-0.009349929949035867
1783169505635754800,4.791754638671875,-0.006267243701219559,0.003474704072973691,0.0010649075514636934
1783169505645823700,4.80182373046875,-0.008362754675745964,-0.00113097679130733,0.0008607084825634956
1783169505655892700,4.811892822265625,-0.013451017725467682,-0.0016196918900124727,-0.004825767055479809
1783169505665962800,4.821962646484375,-0.0215326173722744,0.008456246212054975,0.004390371312899515
1783169505676031700,4.83203173828125,0.002409399229288101,0.008027714035101234,0.000729474185174331
1783169505686100700,4.842100830078125,-0.004324877461791038,-0.006791304107941687,-0.004056399251334369
1783169505696170800,4.852170654296875,-0.017494155636429785,-0.008355041726748459,-0.00440853715725243
1783169505706239700,4.86223974609375,-0.019289806881546974,-0.0028265514957020055,-0.0044180265048053115
1783169505716309800,4.872309814453125,0.000012859481573104858,-0.001345505457976833,-0.005327423834148794
1783169505726379000,4.88237890625,-0.003426467317342758,-0.002562904723989777,-0.0002488693276885897
1783169505736447700,4.89244775390625,-0.015095862323045729,0.006588219283893704,0.0029159605119377374
1783169505746518000,4.90251806640625,-0.0022264438778162,-0.0031469790891045703,0.012190751998685299
1783169505756586800,4.912586669921875,-0.00596738397181034,0.010630434746248647,-0.001895595355099067
1783169505766656800,4.92265673828125,-0.016291209587454794,0.003220966773922555,-0.00987861173194833
1783169505776725800,4.932725830078125,-0.004169979161024093,0.007391977981408126,-0.007205848858738317
1783169505786795000,4.942794921875,-0.007162146714329719,-0.0037186140977544706,-0.014368296967167406
1783169505796864800,4.95286474609375,-0.007162146714329719,-0.009221536062704398,0.00016579415411688387
1783169505806933800,4.962933837890625,-0.0035708442240953444,-0.009945320292608813,-0.006289784326590597
1783169505817002800,4.973002685546875,-0.00416881011724472,-0.0024401870931964366,-0.006886864303750917
1783169505827072800,4.98307275390625,-0.0022246903121471403,-0.0017168732207501307,-0.002487898692442104
1783169505837141800,4.993141845703125,-0.020630700096487996,-0.0037019734902074557,-0.01871986150648445
1783169505847211800,5.003211669921875,-0.0019265841484069823,-0.004644072079332545,-0.014559855750203132
1783169505857280800,5.01328076171875,-0.002974631896615028,0.008640548703819513,-0.0019932835759129373
1783169505867349800,5.023349853515625,-0.003423544707894325,0.0072937920036725695,0.0021826138692442325
1783169505877419800,5.033419677734375,-0.008211948028206824,-0.014802436901000327,-0.001490622150246054
1783169505887488800,5.04348876953125,-0.010306874480843543,0.0015070024628890677,-0.006953134472994133
1783169505897559000,5.05355908203125,0.006902618995308875,-0.006322818946512415,0.006315932547999546
1783169505907627800,5.063627685546875,-0.012999182304739952,-0.0008054163650609552,-0.003402456254092976
1783169505917696800,5.07369677734375,-0.025119828209280968,-0.0064139038966037325,0.0005310838025528937
1783169505927766800,5.083766845703125,-0.013147650864720344,0.0077076609010342505,-0.008240954926982522
1783169505937836000,5.0938359375,-0.0016249708533287047,-0.010291343551571481,-0.01223790647550486
1783169505947905800,5.10390576171875,-0.017786416581273078,0.006922497306135483,0.015213022429309785
1783169505957974800,5.113974853515625,-0.009108020085096358,0.005237380063673481,-0.0028916663208976385
1783169505968043800,5.124043701171875,-0.019732289952039718,0.008865959524107165,0.001156239096727222
1783169505978113800,5.13411376953125,-0.004468085324764251,-0.0004802897636545822,0.009601703619863837
1783169505988182800,5.144182861328125,-0.013595979154109953,-0.002032743370044045,-0.0083547266329173
1783169505998252000,5.154251953125,-0.027362054178118704,-0.005987604775931686,0.008575456711510197
1783169506008321800,5.16432177734375,-0.02242401325404644,-0.011094385296455584,0.010818806058354676
1783169506018390800,5.174390869140625,0.0009188684105873108,-0.017481561016337945,-0.009911774216033517
1783169506028460800,5.184460693359375,-0.0032721535384654995,0.012073158067581243,0.0019915026107802988
1783169506038529800,5.19452978515625,-0.009854454538226127,0.012231905992981046,0.003594352963846177
1783169506048598800,5.204598876953125,-0.010453589475154876,-0.010437793684401548,-0.008245192710682749
1783169506058668800,5.214668701171875,-0.008358663022518158,-0.015285599041753448,-0.017380785789294168
1783169506068737800,5.22473779296875,-0.011649521261453627,-0.010745179133140482,-0.006029379824735224
1783169506078807800,5.234807861328125,-0.01419394504725933,0.003739410290610976,0.006973647538060322
1783169506088876800,5.244876708984375,-0.009103928431868552,-0.00683544464376755,0.012233412963477894
1783169506098945800,5.25494580078125,-0.014040800312161445,0.0023366353871766476,-0.007686682045087218
1783169506109015800,5.265015869140625,-0.012694061878323554,0.002459015091252513,0.008878622642857954
1783169506119084800,5.275084716796875,-0.013443418940901756,0.0029764996267156673,0.007766706745047122
1783169506129153800,5.28515380859375,-0.017184943556785584,-0.004802920469432138,0.011463268841197714
1783169506139223800,5.295223876953125,-0.016883914783596993,0.004551283795922063,0.014896394228190182
1783169506149292800,5.305292724609375,-0.009251812469959259,-0.004009760797745548,0.005193577454565093
1783169506159362800,5.31536279296875,-0.0001239186406135559,-0.005735516011272557,-0.004900047001242637
1783169506169431800,5.325431884765625,-0.019429507613182066,-0.00815196146927774,0.0036699206843972204
1783169506179500800,5.335500732421875,-0.016287117934226988,0.009502960519702173,-0.011377024463005363
1783169506189570800,5.34557080078125,-0.007907412123680114,-0.005710463768406771,-0.008825266754115
1783169506199639800,5.355639892578125,-0.00042553193569183347,-0.003355941098090261,-0.0006116199591662734
1783169506209709800,5.365709716796875,0.006757073044776916,0.001314576030173339,-0.01601295890165493
1783169506219778800,5.37577880859375,-0.0005757540613412857,0.006643232840183191,-0.0013768595774658024
1783169506229847800,5.385847900390625,-0.003570259702205658,-0.0014311927137430757,0.014743203827319666
1783169506239917800,5.395917724609375,-0.010453004953265189,0.0029080466335406527,0.0006434855353087186
1783169506249986800,5.40598681640625,-0.00656301177740097,-0.006354182199155911,-0.02142903826679103
1783169506260056800,5.416056884765625,-0.017035890474915504,-0.0011400916795246303,-0.00462918503745459
1783169506270125800,5.426125732421875,-0.0013233575582504273,0.00817171648251824,0.004576824662555009
1783169506280194800,5.43619482421875,-0.005962123274803161,0.0076570221257628865,-0.0077931472274009135
1783169506290264800,5.446264892578125,0.0006248539000749588,0.003903286482277326,-0.017122235317807644
1783169506300333800,5.456333740234375,-0.012691723790764808,0.005429911527666263,-0.009350706267170607
1783169506310402800,5.46640283203125,-0.0017699322819709777,0.011092444501118733,0.0015519056171178817
1783169506320472800,5.476472900390625,-0.0013216039925813673,-0.00839630531889852,-0.001551421559927985
1783169506330541800,5.486541748046875,-0.002966448590159416,0.01342175966494251,0.00019207937284372747
1783169506340611600,5.496611572265625,-0.011046879193186759,-0.011046984224463813,0.012833095889678224
1783169506350680800,5.506680908203125,-0.025111644902825355,-0.010902506853011437,-0.0005054561709519475
1783169506360749800,5.516749755859375,-0.00760346074104309,-0.000734027062705718,0.006908683409914374
1783169506370819800,5.52681982421875,-0.005058452433347702,0.004368602439085953,0.013612921155756338
1783169506380888600,5.536888671875,0.0034703064590692516,0.0028840584031771866,-0.004654429076565429
1783169506390958800,5.546958740234375,-0.014935703325271606,0.004947256276989356,-0.004087168848933652
1783169506401027800,5.55702783203125,-0.007453238615393638,0.020469335522316397,-0.000024613851448521016
1783169506411096800,5.567096923828125,-0.01239186406135559,-0.011174789022328331,-0.008001858074637129
1783169506421166800,5.577166748046875,-0.009250058904290199,-0.00042464601970277726,-0.014718681307416409
1783169506431235800,5.58723583984375,0.0033189152896404266,-0.002813984275073744,-0.017180650974158197
1783169506441304800,5.597304931640625,-0.014039046746492385,0.0041371454705018545,-0.009233290432579816
1783169506451374800,5.607374755859375,-0.020773323437571524,0.0020322182136587796,0.001262375485477969
1783169506461443800,5.61744384765625,-0.0073059390991926185,-0.003989992084773257,0.004405230955313891
1783169506471513900,5.627513916015625,-0.015087679016590118,-0.007427834746078587,-0.0014571491389069706
1783169506481582800,5.637582763671875,-0.024815292304754256,0.007852362034772522,0.003120369643392041
1783169506491651800,5.64765185546875,-0.0137421096265316,-0.007360888723400421,-0.016058670340059325
1783169506501721900,5.657721923828125,0.000025134441256523132,-0.0006863656958099454,-0.008581685522897169
1783169506511790800,5.667790771484375,-0.016285364368557927,-0.006518323252303526,-0.017405591436987743
1783169506521860900,5.67786083984375,-0.011796236255764961,-0.001865154551062733,0.005485326942754909
1783169506531929900,5.687929931640625,-0.018977672192454338,-0.0069792187623213976,0.00767255305503495
1783169506541999000,5.6979990234375,-0.0008709376156330108,-0.013533115651505067,-0.011205458155227825
1783169506552068900,5.70806884765625,-0.015683891344070434,-0.0032849513712455516,0.0032036092137452212
1783169506562138000,5.71813818359375,-0.031097733575105667,0.005565899631986394,0.0008874960247892886
1783169506572208000,5.7282080078125,-0.024063597154617308,-0.0017731562855187802,-0.007381598151288926
1783169506582277000,5.738277099609375,-0.00954933411180973,0.013487335714441724,-0.008491066363686696
1783169506592345900,5.748345947265625,0.00137421096265316,-0.00044499925456475465,0.006192625828739255
1783169506602416000,5.758416015625,-0.01568447586596012,0.006720362330158241,0.009553635827591642
1783169506612485000,5.768485107421875,-0.0034141923576593396,-0.0053410573505680075,0.0055030635288450865
1783169506622554000,5.77855419921875,0.0012257424026727675,0.0036253828563494604,-0.01957346439482644
1783169506632624000,5.7886240234375,-0.005507949766516685,0.01179074494660599,-0.0016668920326046645
1783169506642693000,5.798693115234375,-0.014934534281492232,0.007324324139254167,-0.005030824640905485
1783169506652763100,5.80876318359375,-0.012389525973796844,-0.012578600538801402,0.008281907991878688
1783169506662832000,5.81883203125,-0.027204233267903326,-0.006224484555015806,0.006534087077016011
1783169506672901000,5.828901123046875,-0.019571546432375908,0.006624149113800376,0.0033320122332312165
1783169506682971000,5.838970947265625,-0.005056698867678642,-0.009227595910732633,-0.017851061049010603
1783169506693040000,5.8490400390625,-0.024062428110837936,-0.0027711132477270437,-0.01141507318476215
1783169506703110000,5.85910986328125,-0.009397942942380905,0.0031743991022813133,-0.007228033291082829
1783169506713179100,5.86917919921875,-0.007901566904783249,-0.0031007813102216456,0.009897837022226304
1783169506723248000,5.879248046875,0.0009270517170429229,0.009337933550565503,-0.0021847784268669785
1783169506733318100,5.889318115234375,-0.013886486533284186,0.015096017586672677,-0.010070060917129739
1783169506743387000,5.899386962890625,-0.006405190867185592,0.012336195201228837,0.003932325347093865
1783169506753457200,5.90945703125,-0.002514028647542,-0.0008663002564222551,-0.007600191071722656
1783169506763526000,5.91952587890625,-0.00041793315112590785,0.012311273105815052,-0.021408342538634315
1783169506773595100,5.92959521484375,-0.012388941451907156,-0.008122445397137199,-0.016258302831696346
1783169506783665200,5.9396650390625,-0.012387772408127783,-0.004306499271595384,0.0008702982948161661
1783169506793734100,5.949734130859375,0.0021259061127901074,-0.0013554994123172945,-0.004760136207053438
1783169506803803000,5.959802978515625,0.008410100948810577,0.011055539706966374,-0.00495343028944917
1783169506813873200,5.969873046875,-0.02840016505420208,0.003978493443224579,-0.0003879033390432596
1783169506823942000,5.97994189453125,-0.005506780722737312,-0.016550981618359217,-0.006924885626044124
1783169506834012000,5.990011962890625,-0.018524667727947235,0.007541985477926209,-0.01206343582458794
1783169506844081200,6.0000810546875,-0.017326982375979422,0.006398135505313984,-0.023490774835878983
1783169506854150100,6.010150146484375,-0.0002694645911455154,0.0065696652804734185,0.009105901193246245
1783169506864220200,6.02022021484375,-0.014785481199622154,0.0012825780232902616,0.007292065837467089
1783169506874289200,6.0302890625,-0.011942366728186606,0.006408707131678238,-0.007741197844455018
1783169506884359200,6.040359130859375,-0.006257306829094886,0.00759989424420055,-0.012436826581088826
1783169506894428000,6.050427978515625,-0.005360065728425979,0.004212105836276896,0.007687156969122588
1783169506904497200,6.0604970703125,-0.016732523614168167,0.008952637727139516,0.008296128313476219
1783169506914567000,6.07056689453125,-0.017330489507317543,0.014790490734879858,0.008556149222841486
1783169506924636200,6.08063623046875,-0.011195347753167151,0.008857525055902078,0.0023480609634891152
1783169506934706000,6.090705810546875,-0.004161795854568481,-0.007686672911932691,-0.00958346471027471
1783169506944775200,6.100775146484375,-0.020470541098713872,-0.005457091795536689,-0.007223210985492915
1783169506954844000,6.110843994140625,-0.012689385703206062,0.007417212887364439,-0.0023052082024514675
1783169506964914200,6.1209140625,-0.009695464584231376,0.009616261868178844,0.009808907496603205
1783169506974983000,6.13098291015625,-0.004905307698249817,0.002059307149983942,0.004567143518757075
1783169506985052200,6.14105224609375,-0.014481529816985129,0.011578958509583025,-0.006183008617023006
1783169506995122000,6.151121826171875,-0.0075982000440359115,0.001585871818801388,0.017100945934606714
1783169507005191200,6.161191162109375,-0.014480360773205756,-0.00009107125035952776,0.004685408736718818
1783169507015261200,6.17126123046875,0.0004851531684398651,0.009888808898977003,0.000765760208107531
1783169507025330200,6.181330078125,0.0007855974197387695,0.009386279904050752,0.006753346717730164
1783169507035399000,6.19139892578125,-0.010735913547873496,0.019317644736543297,-0.000378596654580906
1783169507045469000,6.201468994140625,-0.00355272404551506,-0.02013277877802029,-0.015079705772688612
1783169507055538200,6.2115380859375,-0.010885551151633262,-0.014746039671800099,0.0015112722126301378
1783169507065608000,6.22160791015625,0.007967617878317833,0.018354325262876225,-0.012667986722150817
1783169507075677200,6.23167724609375,-0.015377017351984977,0.003542768907081336,-0.0013573420262429862
1783169507085746200,6.24174609375,-0.016125789892673492,0.007805445019970648,0.011019324465980753
1783169507095816200,6.251816162109375,-0.011936521509289741,-0.0035001125088660046,0.004301706648757681
1783169507105885000,6.261885009765625,0.004073533049225807,-0.003495783393620513,-0.008192065150802955
1783169507115954200,6.2719541015625,-0.0002659574598073959,-0.030463344661705194,-0.018063671753229572
1783169507126024000,6.28202392578125,-0.01403144796192646,-0.0031552445939509195,0.00684688848638907
1783169507136093200,6.29209326171875,-0.010140285742282866,0.012102014269307255,0.006238045006198808
1783169507146163000,6.302162841796875,-0.017173837640881536,0.002869029797404073,-0.010481536928005516
1783169507156232200,6.312232177734375,-0.008196750459074973,-0.0036049108904786407,0.01083709976687096
1783169507166301000,6.322301025390625,-0.009543488892912864,0.0019910687859402967,-0.002053936855122447
1783169507176371200,6.33237109375,-0.011937106031179428,-0.0039845258917892345,0.0013973635093774647
1783169507186440000,6.34243994140625,-0.017174422162771225,0.004945950235892087,0.006268905935343355
1783169507196510000,6.352510009765625,-0.0014624737679958342,0.013919174093334003,0.008433847150579094
1783169507206579000,6.362578857421875,-0.026900281885266303,0.005391835406445898,-0.008632575459918006
1783169507216648200,6.372648193359375,-0.03228606657683849,0.004239783861069008,0.013813293432909995
1783169507226718000,6.382718017578125,-0.013131284251809119,0.004158937177201733,-0.0036013124275952576
1783169507236787200,6.392787109375,-0.011037526842951773,-0.00944115189644508,-0.013836948303133248
1783169507246857200,6.402857177734375,0.00018470891714096068,-0.00302716580145061,0.0019863606447819617
1783169507256926000,6.412926025390625,-0.010588614031672477,-0.0011166149058146402,-0.01400364663954824
1783169507266995000,6.422994873046875,0.0015326163947582245,0.012581372451200149,0.002343275190517306
1783169507277065000,6.43306494140625,-0.005949263793230056,0.0003492107298923656,-0.011355077492678537
1783169507287134200,6.44313427734375,-0.02285831301808357,-0.010070960532850585,-0.008167286902572958
1783169507297203000,6.453202880859375,-0.0025070143848657605,-0.0069352060906589024,-0.008993663857271895
1783169507307273200,6.463273193359375,-0.011783376774191856,0.01414968121384736,0.006111788278026506
1783169507317342000,6.473342041015625,-0.01701952386200428,0.007693792205885983,-0.005869531354214996
1783169507327412200,6.483412109375,-0.02016132901906967,0.006393294933415018,-0.016012812771182508
1783169507337481000,6.49348095703125,-0.009836918881535529,0.00878790301894769,-0.003133457453828305
1783169507347550200,6.50355029296875,-0.004151858982443809,-0.002669429271807894,-0.01505687288637273
1783169507357620000,6.513619873046875,-0.005349544334411621,-0.007006371630728245,-0.008954363893344999
1783169507367689200,6.523689208984375,-0.014028525352478026,-0.0007984660344664007,0.0018225392520427703
1783169507377759000,6.533759033203125,-0.01627308940887451,0.0015250815422739833,-0.007967928405571728
1783169507387828200,6.543828125,-0.005798457145690918,0.005664533134293742,0.013889025550242512
1783169507397897000,6.55389697265625,0.000037409400939941404,-0.003379678166704252,-0.00016200389498844742
1783169507407967000,6.563967041015625,-0.0025070143848657605,0.00976296772933565,0.00381847144276835
1783169507418036000,6.574035888671875,-0.004601356315612793,-0.009883219408406875,-0.004021200073789805
1783169507428106000,6.58410595703125,-0.011632570126652716,-0.005261518991086632,-0.013413051202101633
1783169507438175000,6.594175048828125,-0.01761690523326397,-0.0037366977437166497,-0.008782231329986826
1783169507448244000,6.604243896484375,-0.011032266145944594,-0.006548179534450173,-0.016568747887201606
1783169507458314200,6.614314208984375,-0.006392915907502174,0.002901091736368835,0.00041324784285388884
1783169507468383000,6.624383056640625,-0.013725743013620376,-0.007316761887306347,0.003872457519173622
1783169507478453200,6.634453369140625,-0.021806758138537406,-0.0008837057656608521,0.0018666797878686338
1783169507488522000,6.64452197265625,-0.00968611223399639,-0.009645428597158752,-0.009481684836233035
1783169507498591000,6.654591064453125,-0.00938683702647686,0.012767428508633747,-0.0071694532379508015
1783169507508661000,6.664660888671875,-0.003100304102897644,0.005793940800777636,0.00887822991721332
1783169507518730200,6.674730224609375,-0.01746434502005577,-0.0004458029721630737,0.0064884304375387725
1783169507528799000,6.684799072265625,-0.002949497455358505,0.005005096544604748,-0.002393114814767614
1783169507538869200,6.694869140625,-0.012227028888463973,-0.004951987251034006,0.008430056891450658
1783169507548938800,6.704938720703125,-0.015070727881789207,-0.014574354633013717,0.0007628741312772035
1783169507559008800,6.7150087890625,-0.0022018939584493636,-0.027155507888505234,-0.0017844813971314578
1783169507569077800,6.725077880859375,-0.0030997195810079574,-0.007265246329200454,-0.013102350418269633
1783169507579146800,6.735146728515625,-0.020606734699010847,0.008871096923528238,-0.0010938048523850739
1783169507589216800,6.745216796875,-0.024048399585485457,0.01138727186238393,0.0019811730130109935
1783169507599285800,6.75528564453125,-0.012077391284704208,0.003028206981066614,-0.0137706324681174
1783169507609356000,6.76535595703125,-0.002948328411579132,0.0268335139591014,-0.003464461240172386
1783169507619424800,6.7754248046875,-0.022699907585978507,0.008170547438738867,0.013594855776103212
1783169507629493800,6.78549365234375,-0.00803483789563179,-0.009508481511613353,-0.008006908709090203
1783169507639563800,6.795563720703125,-0.011177812096476555,-0.014043106433679349,-0.0032644360228907313
1783169507649633000,6.805633056640625,-0.009830489140748976,0.006293327990546822,-0.0022549119204748422
1783169507659701800,6.81570166015625,-0.018509470158815385,0.0029110012090299278,-0.009826863278402015
1783169507669772000,6.82577197265625,-0.024644027391076087,-0.008434600635827518,-0.016263490463467315
1783169507679840800,6.8358408203125,0.0010942249774932862,-0.005927695848816074,0.001584629709785804
1783169507689910800,6.845910888671875,0.004833996027708053,-0.0003466762795113027,-0.0008066950066946447
1783169507699979800,6.855979736328125,-0.020904256340861318,-0.0004373456710716709,0.01589363423776813
1783169507710049000,6.866049072265625,-0.013272738549113273,-0.005036797723965719,0.005857493856549263
1783169507720118800,6.876118896484375,-0.005490998631715774,0.0021334820644697172,-0.003198394182510674
1783169507730187800,6.886187744140625,-0.01821019495129585,-0.0014031402296153827,-0.013645005927607416
1783169507740257800,6.8962578125,-0.00982990461885929,0.005936029852321371,-0.0000756133863236755
1783169507750326800,6.906326904296875,-0.016264321580529213,0.0039035924429539587,0.0053853736996185035
1783169507760395800,6.916395751953125,0.017106033101677895,0.006521067765238695,0.004628755779191852
1783169507770465800,6.9264658203125,-0.011923662027716636,-0.006925150487525388,0.019532109471131116
1783169507780534800,6.93653466796875,-0.011175474008917809,-0.0028601615043589842,-0.0030753979905042794
1783169507790604800,6.946604736328125,-0.023744448202848434,-0.0037276650538900866,-0.006564345217961818
1783169507800673800,6.956673828125,-0.021200608938932417,-0.0008601330938283353,0.0022635610178112983
1783169507810742800,6.96674267578125,-0.018656185153126715,-0.0026045564752072096,0.0010691727346275
1783169507820812800,6.976812744140625,-0.007582417953014373,0.0045286655387375505,0.01265157444346696
1783169507830881800,6.9868818359375,-0.01716097815930843,0.0051472632279619575,0.009599813056876882
1783169507840950800,6.99695068359375,-0.02030219879448414,0.0013683246445609257,-0.003170127069251612
1783169507851020800,7.007020751953125,0.0016945289582014082,0.0038231658841948956,0.004984592612693086
1783169507861089800,7.01708984375,-0.011923662027716636,-0.00666857734399382,0.009461975488765165
1783169507871159800,7.027159912109375,-0.025989012259244916,-0.01227892347248271,-0.003793236536812037
1783169507881228800,7.037228759765625,-0.014467501291632651,0.0049306750349467614,0.0009859788300469517
1783169507891297800,7.0472978515625,-0.006835398977994918,0.004633683116058818,0.0028434706644620746
1783169507901367800,7.057367919921875,-0.008032499808073043,0.010345165231195278,0.0024378581387922166
1783169507911436800,7.067436767578125,-0.008781272348761558,-0.0012801486041862516,0.013053296245308592
1783169507921506800,7.0775068359375,-0.004441781839728355,0.0049150208080885925,-0.012659766883077099
1783169507931575800,7.087575927734375,-0.02075344969332218,-0.008363690824084915,-0.010414152513910084
1783169507941644800,7.097644775390625,-0.012822656694054602,-0.002838328698463738,0.007399416935769841
1783169507951714800,7.10771484375,-0.009081132078170776,0.0021238328867126256,-0.01722855436964892
1783169507961783800,7.11778369140625,-0.003544540739059448,-0.002088231850368902,0.00255234223078005
1783169507971853800,7.127853759765625,-0.0018991116195917128,-0.002933961959509179,0.012269835983728989
1783169507981922800,7.1379228515625,-0.014767945542931557,-0.00915841226519551,-0.0038442178053781388
1783169507991991800,7.14799169921875,-0.02269756949841976,0.0033319802671903744,-0.0023488555479329078
1783169508002061800,7.158061767578125,-0.02434358313977718,-0.00226826459239237,-0.0017028309956658631
1783169508012130800,7.168130859375,-0.007732640078663825,-0.008968639013869687,-0.00784939832612872
1783169508022200800,7.178200927734375,0.002742576706409454,0.0017901028537424281,0.0065327810359187425
1783169508032269800,7.188269775390625,-0.011323942568898201,0.010249066179268993,0.015768546553375198
1783169508042338800,7.1983388671875,-0.0005506196200847625,-0.000235703885438852,0.0012361815982963888
1783169508052408600,7.20840869140625,-0.005787351229786872,-0.006889645349304191,0.0021292671136558055
1783169508062477800,7.218477783203125,-0.010725976675748825,-0.001434645046154037,0.0021081512603908776
1783169508072547800,7.2285478515625,-0.022096680995821953,-0.0011742542440304532,-0.004597182463994249
1783169508082616800,7.238616943359375,-0.009974866047501564,-0.0010660309294704348,-0.001691131424717605
1783169508092685800,7.248685791015625,0.008130699485540389,0.010082504840171895,-0.007591231447132304
1783169508102755800,7.258755859375,-0.01446457868218422,-0.0009129318601451814,0.003962309493403882
1783169508112824800,7.268824951171875,-0.010873276191949844,-0.00042384686868172136,0.006371032869257032
1783169508122893800,7.278893798828125,-0.02389233224093914,-0.00624197226264514,0.011319887448288499
1783169508132963800,7.2889638671875,-0.016261983492970467,-0.007496826595370657,0.012292029549228027
1783169508143032800,7.29903271484375,-0.024192191970348356,0.00974299808696378,0.0021126813050359487
1783169508153102800,7.309102783203125,-0.015514379996061324,0.007141181558114476,-0.010276050084317102
1783169508163171800,7.319171875,-0.023445172995328903,0.0032330271044746037,-0.014514874964160844
1783169508173240800,7.32924072265625,-0.006086041915416717,-0.001079470366355963,0.0019263284200802444
1783169508183310800,7.339310791015625,-0.01895487583875656,0.005819335536938161,0.0025296372086275366
1783169508193379800,7.3493798828125,-0.02538987732231617,-0.0025698870206251737,-0.001745948618184775
1783169508203449600,7.35944970703125,-0.012072715109586714,-0.019049614050658418,0.014368004706222563
1783169508213518800,7.369518798828125,-0.01162497134208679,0.0012271123758517204,-0.005182425872888416
1783169508223587800,7.379587890625,-0.0021978023052215577,0.0035954124097712335,-0.01081836766693741
1783169508233657900,7.389657958984375,0.00797813927233219,0.007403695818665437,-0.007938008191343396
1783169508243726800,7.399726806640625,-0.0021960487395524977,-0.00600486187140923,-0.01399391069682315
1783169508253796900,7.409796875,-0.020602058523893355,-0.007451297820056788,0.009003682927787303
1783169508263865600,7.419865478515625,-0.01237140579521656,0.003952870378200896,0.0051794119318947195
1783169508273934800,7.429934814453125,-0.022696400454640386,-0.0025634755461476743,-0.002771638404112309
1783169508284004900,7.4400048828125,-0.014165887996554374,-0.006538206129707395,-0.020642344868509098
1783169508294073900,7.450073974609375,-0.007283727267384529,-0.0003124771823873743,0.003962044631922617
1783169508304142600,7.460142578125,-0.02613748081922531,-0.011168341015232727,-0.02176257193693891
1783169508314212900,7.470212890625,-0.01745908432304859,0.010003000730019994,-0.008873855136195197
1783169508324281900,7.48028173828125,-0.018206687819957733,-0.002745499315857887,-0.00704600038821809
1783169508334352000,7.490351806640625,-0.02733399712741375,0.009050581676280126,0.003218194861523807
1783169508344420900,7.5004208984375,-0.012220599147677421,-0.013979311349312774,0.007142154239071533
1783169508354489900,7.51048974609375,-0.011321019959449768,0.012226919290609657,-0.0013661920529790222
1783169508364560000,7.520559814453125,-0.008029577198624611,-0.0046098227498587215,0.008705156638938933
1783169508374628900,7.53062890625,0.0012467851907014846,-0.0007894516109488904,0.009067952936189248
1783169508384699000,7.540698974609375,-0.0066845923304557795,0.000028673538635484873,0.003814955178275704
1783169508394768000,7.550767822265625,-0.014914076015353201,0.004539273697719909,0.01972990619870834
1783169508404836900,7.5608369140625,-0.020749358040094375,0.00027347404598258434,0.013784889322333037
1783169508414906600,7.57090673828125,-0.0066822542428970335,-0.0010094693034887314,-0.0020745503848884255
1783169508424976000,7.580975830078125,-0.010123334607481957,0.007772825958579779,-0.0004599730614107102
1783169508435045600,7.591045654296875,-0.010720715978741645,0.012047009846172295,0.020185815006354822
1783169508445115000,7.601114990234375,-0.01939969699680805,0.0005609355181222781,0.009890868425322696
1783169508455184000,7.611183837890625,-0.00877425808608532,-0.0009050727806752547,-0.0003480736521538347
1783169508465254000,7.62125390625,-0.010868015494942665,-0.007990281801274977,0.0036493619535584
1783169508475322600,7.631322509765625,-0.024336568877100943,-0.007625225048279389,-0.0015351919443346558
1783169508485392000,7.641391845703125,-0.006379471904039383,-0.009744975414918734,0.010648545791674405
1783169508495461600,7.651461669921875,0.0009521861582994461,0.0047106253763660785,0.016357762884488328
1783169508505531000,7.66153076171875,-0.0054810617595911024,0.014051212108321488,-0.003160893450025469
1783169508515601000,7.671600830078125,-0.004582651615142822,-0.002100598141597584,0.006643228273605927
1783169508525670000,7.681669921875,-0.01281271982192993,-0.005661185833159834,0.005035327286086976
1783169508535738600,7.691738525390625,-0.00967091466486454,-0.002006969607970677,0.009571262815827503
1783169508545807600,7.7018076171875,-0.0008434650868177413,-0.005279680268862284,0.008085800897888839
1783169508555876600,7.711876708984375,-0.012962941947579383,0.000579101362475194,0.01239797414173372
1783169508565946600,7.721946533203125,-0.0006932429611682891,0.002010846632067114,0.0001442490425892174
1783169508576015400,7.732015380859375,-0.009673252752423285,0.0018151185639901086,0.0035953484776895493
1783169508586084600,7.742084716796875,-0.005931728136539459,-0.013309047404932788,0.011367471183370798
1783169508596154400,7.752154296875,-0.022093173864483832,-0.0037019415241666136,-0.002224635513219982
1783169508606223600,7.7622236328125,0.004841010290384292,0.009655570965260266,0.014869561020191758
1783169508616293600,7.772293701171875,-0.0038379707276821134,0.005847401720797642,0.004010121557349339
1783169508626362600,7.782362548828125,-0.00772854842543602,0.003606970416824333,0.017209429544070735
1783169508636431400,7.792431396484375,-0.01760463027358055,0.012927034950559026,0.004656374438479542
1783169508646501600,7.802501708984375,-0.014164134430885314,-0.004275480795535259,0.009427242102101444
1783169508656570600,7.812570556640625,-0.019102759876847265,-0.00036672812027391044,0.0013846227588132022
1783169508666639600,7.8226396484375,-0.010723638588190079,-0.004522409327886999,-0.008472800054633989
1783169508676709600,7.832709716796875,-0.00428863710463047,0.009497992083639837,0.004326795424241572
1783169508686778600,7.842778564453125,-0.009675590839982031,0.0017929341316455974,-0.0007378218884114175
1783169508696848600,7.8528486328125,-0.018206103298068047,-0.006451016470021568,-0.01582591189695522
1783169508706917600,7.862917724609375,-0.018954291316866875,-0.004026693666237406,-0.011483608376327902
1783169508716986600,7.872986572265625,-0.009825812965631484,0.013877782637020572,-0.0015721994864754379
1783169508727056400,7.883056396484375,-0.017605214795470236,0.0047040175390662626,0.004509138854360208
1783169508737125600,7.893125732421875,-0.014164134430885314,-0.009502850921847857,0.006529794494388625
1783169508747195400,7.9031953125,-0.005483984369039535,0.012984468792797996,-0.010164680398022756
1783169508757264600,7.9132646484375,0.0030447745233774183,-0.003572054367070086,-0.013543408716656267
1783169508767333600,7.923333740234375,-0.006382394513487815,-0.002750129825202748,-0.007174467339785769
1783169508777403600,7.933403564453125,-0.003389642438292503,-0.011212358253472485,0.016269847139017656
1783169508787472400,7.943472412109375,-0.009375146588683127,-0.0022070952899521214,-0.00466364442948252
1783169508797542700,7.953542724609375,-0.009675006318092346,-0.0063950850317021826,-0.017228335173940287
1783169508807611400,7.963611328125,-0.0017453823626041411,-0.00595693107645493,-0.009659589553251862
1783169508817680600,7.9736806640625,-0.017905074524879456,0.0034138955301372333,-0.004185998714063316
1783169508827750400,7.98375048828125,-0.016408113965392112,0.006296825988730415,0.006361242127604782
1783169508837819600,7.993819580078125,-0.0009942717343568801,-0.015688211326161397,0.011100609541265294
1783169508847889700,8.0038896484375,0.005290507623553276,-0.0006243789760395884,0.0051990299478173255
1783169508857958700,8.013958740234376,-0.009972527959942816,-0.018626342570711857,-0.0009164207251742482
1783169508868027400,8.02402734375,-0.02418810031712055,-0.00937520595418755,-0.00570399292842485
1783169508878097400,8.034097412109375,-0.008625789526104927,-0.006005008001881651,-0.005116466230899095
1783169508888166700,8.044166748046875,-0.009673837274312973,0.006992306572757661,0.01173055060841143
1783169508898235600,8.054235595703124,-0.011768179205060004,-0.0079425839017611,0.009343892933893948
1783169508908305700,8.0643056640625,-0.013415361890196799,0.005386095218826085,-0.004477784734871238
1783169508918374700,8.074374755859376,-0.014761515802145003,-0.010382766428380272,0.000008037175983190536
1783169508928444700,8.084444580078125,-0.009524199670553207,0.009452431342285126,-0.0027594273765105754
1783169508938513400,8.094513427734375,-0.004437105664610862,0.001112180759292096,0.000021115853264927864
1783169508948582700,8.104582763671875,-0.011321019959449768,-0.010625338446022942,-0.002209227881534025
1783169508958652400,8.11465234375,-0.01087386071383953,0.0062001378483371805,0.0090208715246059
1783169508968721700,8.1247216796875,0.00019873744249343872,-0.004413619757746346,-0.015130056853592394
1783169508978791400,8.13479150390625,-0.0006985036581754684,-0.016781536687933838,-0.008374070654204115
1783169508988860700,8.144860595703125,-0.0020446575701236723,-0.001287322697066702,-0.010341151209780946
1783169508998929400,8.154929443359375,-0.026435586982965466,0.007370259339944459,0.007210077509284019
1783169509008999700,8.164999755859375,-0.00608545739352703,-0.0004576030078111216,0.029201179238781332
1783169509019068400,8.175068359375,-0.005486322456598282,0.0032936758171068503,0.0071396243552677326
1783169509029138700,8.185138671875,0.008280921611189842,-0.012876834566704928,-0.0032523437262978404
1783169509039207400,8.19520751953125,-0.009825228443741799,0.002721214257972315,0.017184130706032738
1783169509049276700,8.205276611328125,-0.002642623463273048,-0.004582957575819455,-0.003912442469689995
1783169509059346700,8.2153466796875,-0.006233341431617736,-0.003313156835711561,0.007526440848922357
1783169509069415700,8.225415771484375,-0.009674421796202658,0.0027641081182053313,0.006559203251963481
1783169509079484400,8.235484375,-0.01206862345635891,-0.0019274609312415123,-0.014356880524009465
1783169509089554400,8.245554443359374,-0.013115502160787582,-0.0023693731795763596,-0.009391449269512667
1783169509099623700,8.255623779296876,-0.013714052575826644,-0.007341380305332131,0.014415807637013493
1783169509109693400,8.265693359375,-0.008773673564195632,-0.0017212114691501483,0.009965787691902369
1783169509119762700,8.2757626953125,-0.01161678803563118,-0.000169602679554373,0.013204084626538678
1783169509129831700,8.285831787109375,-0.020742928299307822,-0.008397981252754106,0.014611412407504394
1783169509139901700,8.295901611328125,-0.020593875217437742,-0.014648524980922228,-0.003432239471003413
1783169509149970400,8.305970458984374,-0.02059270617365837,-0.00506422915358562,-0.0067548262887634335
1783169509160040700,8.316040771484374,-0.016850597035884856,-0.002050964013324119,0.0055179049049504094
1783169509170109400,8.326109375,-0.021639584878087044,0.007525399669306352,0.015656628877809272
1783169509180178700,8.3361787109375,-0.029869068562984463,-0.0031131361850071696,-0.0006099029261153191
1783169509190248400,8.34624853515625,0.006642506754398345,-0.0017873766071163117,-0.012527263077208771
1783169509200317700,8.356317626953125,-0.013559738796949385,0.0034430439928080886,0.0009868190802633761
1783169509210387500,8.366387451171875,-0.02882277438044548,0.00624322350481525,0.004185551189491525
1783169509220456700,8.376456787109374,-0.01655073730647564,0.007861691552121191,-0.00106189817704726
1783169509230525400,8.386525390625,-0.0033820436537265776,-0.01153293197734747,-0.0009109773650765418
1783169509240595500,8.396595458984375,0.013078677281737327,-0.005606286441301927,-0.00536481040220242
1783169509250664400,8.40666455078125,-0.006523264288902282,-0.011910012528277001,-0.0032786426447564735
1783169509260733700,8.416733642578125,-0.012359130835533142,0.0021697726539801807,0.0010969101249240338
1783169509270803500,8.426803466796875,-0.011310498565435409,-0.011776764370314776,0.01664484533071518
1783169509280872700,8.436872802734374,-0.01564882003068924,-0.0028112534618703645,0.013238434420712292
1783169509290942700,8.446942626953126,0.0030558804392814636,-0.005096094729728065,0.020078194479993542
1783169509301011500,8.457011474609375,-0.0074181673020124435,0.004635217486019246,-0.0018744658021023497
1783169509311080400,8.46708056640625,-0.0075672203838825225,-0.014078337577264755,-0.01689750035095494
1783169509321150500,8.477150390625,-0.000384030881524086,-0.0009656118954531848,0.0027120491374051196
1783169509331219700,8.4872197265625,-0.016992635855078698,0.0018337456326466054,0.009083164205052889
1783169509341289500,8.49728955078125,-0.011308160477876663,-0.0068156211318681015,0.009547626211913301
1783169509351358700,8.507358642578126,0.005748188263177871,-0.012109215761651285,0.006461926023103296
1783169509361427500,8.517427490234375,0.0023065233767032623,-0.0007513846228830516,-0.009526697588316164
1783169509371497700,8.527497802734375,-0.02582593065202236,0.003745045446953736,-0.011285044463770464
1783169509381566500,8.53756640625,-0.020288754791021345,-0.00359008778068237,0.010208711335994302
1783169509391636700,8.54763671875,-0.021935352954268454,-0.022721384198847224,0.009497645023767836
1783169509401705500,8.55770556640625,-0.012657821521162986,-0.004354153788625263,0.000923946444503963
1783169509411774700,8.567774658203126,-0.014304419684410095,-0.0004270434727659449,-0.003417932384437881
1783169509421844500,8.577844482421876,0.003652677288651466,0.0025059275394771247,-0.01345873524104245
1783169509431913700,8.587913818359375,-0.020289339312911034,0.01327397152497433,-0.004767301166779361
1783169509441983500,8.5979833984375,-0.01220890870988369,-0.0013892898007761686,-0.007688581741228699
1783169509452052500,8.608052490234375,-0.018643910193443296,0.00860805294001475,0.0025898064306471495
1783169509462121500,8.61812158203125,-0.018194997382164,-0.011076817673724143,-0.002267666370770894
1783169509472191500,8.62819140625,0.0018558569997549055,-0.006999823158932849,-0.003266723878099583
1783169509482260500,8.638260498046876,-0.0017366145342588423,0.003794483212404884,0.0010182279986795037
1783169509492329500,8.64832958984375,-0.011015315011143684,0.0073149763555964455,0.0007773867138195782
1783169509502399500,8.6583994140625,-0.017300094369053838,0.002324579623201862,0.012798536032950504
1783169509512468500,8.668468505859375,-0.015952771413326263,-0.004947142112557776,-0.011370156330801545
1783169509522538800,8.678538818359375,-0.009368716847896575,-0.013457228270545601,0.014058043707907199
1783169509532607500,8.688607421875,-0.018646248281002045,-0.00557311025748495,0.014716434551402926
1783169509542676000,8.698676025390625,-0.024332477223873137,-0.017920139663270673,0.006746907843789085
1783169509552746000,8.70874609375,-0.008618775263428687,0.007604757648985832,0.0025567489778390152
1783169509562815000,8.71881494140625,-0.01430500420629978,-0.005840862382156774,-0.007699317764374427
1783169509572885000,8.728885009765625,-0.004579144483804702,0.003241333708516322,0.010851808712235652
1783169509582954200,8.738954345703124,-0.01849427258968353,-0.02386113795165438,-0.001226660284702666
1783169509593023000,8.74902294921875,-0.011610358294844627,-0.012760523843811824,-0.004975792818306945
1783169509603093200,8.75909326171875,-0.010263619861006736,-0.002254656192148104,0.008152856518421321
1783169509613162000,8.769161865234375,-0.018044775256514548,-0.010400092022516764,0.013315038754302077
1783169509623232000,8.77923193359375,-0.008918634992837906,0.0015715464659268035,0.004612462231516838
1783169509633301000,8.789301025390625,-0.011762918508052824,0.0044230132071767,0.003101217418350279
1783169509643370200,8.799370361328124,-0.0153542209982872,0.01313902003369294,-0.005006968841282651
1783169509653440000,8.80943994140625,-0.021039865419268607,0.005057260556682013,0.013317235277965665
1783169509663509200,8.81950927734375,-0.0023357494711875914,0.010375103711732662,0.007171873523900285
1783169509673578000,8.829577880859375,-0.019244798696041107,0.002411782982619479,0.009153608225914649
1783169509683648000,8.83964794921875,-0.010115735822916031,0.0037002381908474487,0.000024855880043469367
1783169509693717000,8.849717041015625,-0.02074000568985939,-0.013802182950428687,-0.004939424596983008
1783169509703787000,8.859787109375,-0.015802549287676812,-0.005506241866620258,0.005128056203993037
1783169509713856000,8.86985595703125,-0.018646248281002045,0.005133426498854532,0.00017104115139227359
1783169509723925000,8.879925048828126,-0.014155951124429703,-0.0066355198911856855,-0.0010440200270619242
1783169509733995000,8.8899951171875,-0.013106734332442282,0.0012839297301601618,0.004276293646288104
1783169509744064000,8.90006396484375,-0.002034136176109314,-0.0052320052022347225,-0.00561829653950408
1783169509754134300,8.91013427734375,-0.0021837737798690794,-0.009960864921612664,0.016948125426494515
1783169509764203000,8.920203125,-0.00966740753352642,-0.017165384906367397,0.004281056586373597
1783169509774272000,8.93027197265625,-0.008021393892168998,0.0014801829546224326,0.006930676046013832
1783169509784342000,8.940342041015626,-0.003083352968096733,0.0031067840760340914,0.0002602857708465308
1783169509794411000,8.950410888671875,-0.02567863113582134,0.010605633665132336,0.000435665170638822
1783169509804481000,8.96048095703125,-0.020290508356690405,-0.014512436411902307,0.0014395084509393199
1783169509814550300,8.97055029296875,-0.013556231665611266,0.0011165920729283242,0.016312170177092775
1783169509824619000,8.980618896484375,-0.015951017847657203,-0.006109760717721655,0.011173204420018009
1783169509834689000,8.99068896484375,-0.006077274087071418,-0.0085727030654205,0.007084724963409826
1783169509844758000,9.000758056640626,0.06649988634586333,0.02225418681220617,-0.01568759940480813
1783169509854827300,9.0108271484375,0.15284370632469654,-0.034456117792031726,0.006967578556877561
1783169509864897000,9.02089697265625,-0.327343948662281,-0.017946621244819834,-0.014746669859462417
1783169509874966300,9.03096630859375,-0.1887824501901865,0.035667991499556226,0.0019373201715527102
1783169509885036000,9.0410361328125,0.11976970424056052,0.032824913560738786,0.006953595697297714
1783169509895105000,9.05110498046875,0.2577402510821819,-0.004909002059255726,-0.007351184746716171
1783169509905174000,9.061174072265626,-0.015049100571870803,-0.007617539498745464,0.0066222128850407895
1783169509915244000,9.071244140625,-0.2776660177797079,-0.007510466961655765,0.02096525667994283
1783169509925313000,9.08131298828125,0.020112229180336,0.009769758229725993,0.01092529864013195
1783169509935383000,9.091383056640625,0.14072072233259678,-0.008986517163855023,-0.026456835266971027
1783169509945452000,9.1014521484375,0.0943348187327385,-0.006164002522453665,-0.013875965139269829
1783169509955521000,9.11152099609375,-0.20329671323299406,-0.02108709752790164,0.009922953197173774
1783169509965591000,9.121591064453124,-0.11770517292618751,-0.01733332078522071,0.007645980141940526
1783169509975660000,9.131659912109376,0.12695289374291896,0.002816801853245124,0.008626392314303667
1783169509985730000,9.14172998046875,0.09642623805403709,-0.011338085258682257,-0.006080160163901746
1783169509995799000,9.151799072265625,-0.07266425419449805,-0.0014046654664212838,0.005510831276769749
1783169510005868000,9.161867919921875,-0.14015373609960077,0.005527074592094868,-0.0010155474178260191
1783169510015938000,9.17193798828125,0.019210896426439285,0.007143743407959118,-0.00019795199120417237
1783169510026007300,9.18200732421875,0.10929331841170788,-0.014813780278922058,-0.0027550571620697153
1783169510036076000,9.192075927734376,-0.014905308187007903,-0.013216674680053256,0.005750256922678091
1783169510046146000,9.20214599609375,-0.11067454363703727,0.00446648702272214,0.02997162475516088
1783169510056215000,9.212215087890625,-0.042591187492012975,-0.008232794453413225,0.011672632708982564
1783169510066285000,9.22228515625,0.09911503874659537,-0.0067026303106453265,-0.007848685940075666
1783169510076354000,9.23235400390625,0.038361002576351166,-0.003008826427161693,0.00316289361086674
1783169510086423000,9.242423095703124,-0.07326864982843398,-0.0012456983453128486,0.003607294643810019
1783169510096493000,9.2524931640625,-0.06384264983534813,0.002564745054626837,-0.00925225999453105
1783169510106562000,9.26256201171875,0.02100187149643898,-0.0034266088812379162,0.012572874050913377
1783169510116632000,9.272632080078125,0.0486854127138853,0.0023683365665376184,0.015234202214656397
1783169510126701000,9.282701171875,-0.025685060876607893,0.004085314818564802,-0.013109446879336609
1783169510136770000,9.29277001953125,-0.06369476579725741,-0.015759399699117056,0.005426244566123933
1783169510146840000,9.302840087890624,-0.010123334607481957,-0.01473834955568891,0.004431863233912736
1783169510156909000,9.312908935546876,0.03087795334458351,-0.0012449494266416877,-0.012037388067878782
1783169510166979000,9.32297900390625,0.010676876837015152,-0.014126697630481794,0.009277010843297465
1783169510177048000,9.333048095703125,-0.047831426233053205,-0.016590886653773486,-0.0013624474596232174
1783169510187117000,9.343116943359375,-0.026583471021056175,-0.009308807920780964,0.003354936451092362
1783169510197187000,9.35318701171875,0.018009703943133355,-0.010781456022919154,-0.0033575667995959517
1783169510207256000,9.363256103515624,0.015316811597347258,0.010515229135053232,0.014228856530436314
1783169510217326000,9.373326171875,-0.02089548851251602,0.003618094599037431,0.013987823449331334
1783169510227395000,9.38339501953125,-0.03945113590061664,0.016825891852891073,0.006110153443366289
1783169510237464000,9.393464111328125,-0.0069803604066371915,0.018559876038646325,0.0009539488571230322
1783169510247534000,9.4035341796875,0.030428456011414525,0.01270722275399603,0.0010920969524886458
1783169510257603000,9.41360302734375,-0.016706804651021957,-0.003315823716833256,0.0033707276752684263
1783169510267672000,9.423672119140624,-0.03646189095675945,0.0010816851563286035,0.0017309245789889245
1783169510277742000,9.4337421875,0.24621406393945217,-0.012416528145154006,0.008423458187305367
1783169510287811000,9.44381103515625,-0.09825169991552829,-0.07368383390004746,0.014094042036472819
1783169510297881000,9.453881103515625,-0.23921149170100686,-0.044951820242707614,0.0008749470704700797
1783169510307950000,9.4639501953125,-0.2990712093800306,0.007051731442683376,-0.018771235500695184
1783169510318019000,9.47401904296875,0.011723171019554137,0.054782172386138694,0.008552212833240628
1783169510328089000,9.484089111328124,0.35035657545924187,0.045654895044723524,0.012601095498399809
1783169510338158000,9.494157958984376,-0.03944938233494758,0.025056055957800707,0.018710856216121462
1783169510348228000,9.50422802734375,-0.05426233606338501,0.013277688718866556,0.0421661441800883
