time,seconds_elapsed,z,y,x
1783169500913215000,0.069215087890625,-0.00013461278285831213,-0.004686426371335983,-0.0006984514184296131
1783169500923285000,0.079284912109375,-0.0005023953272029757,-0.0011076703667640686,-0.00009764195419847965
1783169500933354000,0.08935400390625,0.0005359319038689137,0.0018881168216466904,-0.000134029658511281
1783169500943423000,0.099423095703125,-0.002125098602846265,-0.0005518710240721703,-0.0020733438432216644
1783169500953493000,0.109492919921875,-0.00011136499233543873,-0.00045306049287319183,-0.0014451304450631142
1783169500963562000,0.11956201171875,-0.00007834180723875761,-0.0004567885771393776,-0.0011151647195219994
1783169500973631000,0.129630859375,-0.00008797715418040752,0.005041023716330528,-0.00018361303955316544
1783169500983701000,0.139700927734375,-0.00012020138092339039,0.003814638126641512,0.001076328568160534
1783169500993770000,0.14977001953125,0.0005185506888665259,-0.0016834363341331482,0.0018303607357665896
1783169501003840000,0.159840087890625,0.0005118927801959217,-0.0015334999188780785,-0.002181158633902669
1783169501013908700,0.16990869140625,-0.0005784833338111639,-0.0010096607729792595,0.0016036563320085406
1783169501023978000,0.17997802734375,0.001446584239602089,0.0020590992644429207,0.0008356007747352123
1783169501034047700,0.1900478515625,-0.0016515691531822085,-0.0009096655994653702,0.001990324817597866
1783169501044117000,0.200116943359375,-0.0008100102422758937,-0.0017855791375041008,-0.0021703315433114767
1783169501054186000,0.21018603515625,0.0014532030327245593,-0.0002344166859984398,0.001609878963790834
1783169501064256000,0.220256103515625,0.00027502060402184725,0.0017991727218031883,0.0018192033749073744
1783169501074324700,0.23032470703125,0.000480291317217052,0.00043576397001743317,0.002258238848298788
1783169501084395000,0.24039501953125,0.001387630240060389,-0.0020486991852521896,-0.00038494844920933247
1783169501094463700,0.250463623046875,0.0021482990123331547,-0.00009421631693840027,-0.0031855760607868433
1783169501104533000,0.260532958984375,-0.000154003850184381,0.002405958715826273,-0.001395931700244546
1783169501114603000,0.27060302734375,-5.582114681601524e-7,-0.004158448427915573,0.0014792371075600386
1783169501124672000,0.280672119140625,0.0012378116371110082,0.0007108747959136963,0.0006280909292399883
1783169501134740700,0.29074072265625,-0.0018573723500594497,0.0014492333866655827,0.0009550077375024557
1783169501144811000,0.30081103515625,-0.003340486902743578,0.003243139013648033,-0.003421365050598979
1783169501154880000,0.3108798828125,-0.00123984448146075,-0.0009749121963977814,0.000020917272195219994
1783169501164949000,0.320948974609375,0.0005066565936431289,-0.00041245296597480774,0.00014448794536292553
1783169501175019000,0.33101904296875,-0.0023824386298656464,-0.0019500348716974258,0.0019183962140232325
1783169501185088000,0.341087890625,-0.000943798921070993,-0.0003782371059060097,-0.00021772528998553753
1783169501195158000,0.351157958984375,-0.002573289442807436,-0.0002920785918831825,0.0018217467004433274
1783169501205227000,0.36122705078125,-0.000035563018172979355,-0.0017245924100279808,0.0017173507949337363
1783169501215296000,0.3712958984375,0.00106017105281353,-0.00016904901713132858,-0.0006325002759695053
1783169501225365800,0.38136572265625,0.001711313845589757,-0.0008622696623206139,0.0006340988911688328
1783169501235435000,0.39143505859375,-0.0005113717634230852,-0.000448533333837986,-0.0016781571321189404
1783169501245504000,0.40150390625,0.0005775947938673198,0.0013938415795564651,0.0014015224296599627
1783169501255574000,0.411573974609375,0.001776580698788166,0.001496093813329935,-0.0023164653684943914
1783169501265643000,0.42164306640625,0.0003493926487863064,-0.0009465571492910385,-0.0009060550946742296
1783169501275713000,0.431713134765625,-0.0008471183246001601,-0.0007547922432422638,0.000010090181604027748
1783169501285781800,0.44178173828125,-0.0003863914171233773,-0.0009643826633691788,-0.00006820680573582649
1783169501295851000,0.45185107421875,-0.00020879763178527355,0.0029027904383838177,0.001050153048709035
1783169501305920800,0.461920654296875,-0.0007408973760902882,-0.00158010795712471,0.0009654646273702383
1783169501315990000,0.471989990234375,0.001422329805791378,-0.0002577193081378937,0.0019203550182282925
1783169501326058800,0.482058837890625,-0.0005345609970390797,0.001121798064559698,-0.0006977985613048077
1783169501336129000,0.49212890625,-0.0009524434572085738,0.0014091669581830502,-0.0008163673337548971
1783169501346197800,0.50219775390625,-0.001718102372251451,-0.00013546645641326904,0.000882196705788374
1783169501356268000,0.51226806640625,0.0006946368375793099,-0.0013554804027080536,0.0034977716859430075
1783169501366336800,0.522336669921875,-0.0007205669535323977,-0.0006662542000412941,0.0018676506588235497
1783169501376406000,0.532406005859375,-0.0011159483110532165,0.0007139346562325954,0.00007882760837674141
1783169501386476000,0.54247607421875,-0.0015537721337750554,0.002181869000196457,-0.00002077454701066017
1783169501396545000,0.552544921875,-0.0009354251669719815,0.0020348597317934036,0.0006741420365869999
1783169501406615000,0.562614990234375,0.00027444877196103334,0.0004939548671245575,0.0007737441919744015
1783169501416684000,0.57268408203125,0.0008587463526055217,0.0016345866024494171,-0.004075339529663324
1783169501426753000,0.5827529296875,-0.0021098791621625423,-0.001019253395497799,-0.0018092556856572628
1783169501436822800,0.59282275390625,-0.0009328917367383838,0.0005076774396002293,0.000009872950613498688
1783169501446892000,0.60289208984375,0.0006852449732832611,-0.00015038903802633286,0.0034208495635539293
1783169501456961000,0.6129609375,-0.00034338515251874924,0.0008573438972234726,-0.001904911594465375
1783169501467031000,0.623031005859375,-0.0004752116510644555,0.0007012826390564442,-0.00040714978240430355
1783169501477099800,0.633099853515625,0.0005130162462592125,0.0010746694169938564,-0.0005184286274015903
1783169501487169000,0.6431689453125,-0.0011908742599189281,0.0023367414250969887,-0.0021458864212036133
1783169501497238800,0.65323876953125,0.0010856278240680695,0.0008640000596642494,0.0012648797128349543
1783169501507308000,0.66330810546875,0.0022843165788799524,0.0005976841785013676,-0.0002232945989817381
1783169501517377800,0.673377685546875,-0.00024271104484796524,0.0021551186218857765,-0.0014938756357878447
1783169501527447000,0.683447021484375,0.0018398809479549527,0.0011612270027399063,0.0006054944824427366
1783169501537515500,0.693515625,-0.0014182074228301644,-0.00006454717367887497,0.0016301138093695045
1783169501547585800,0.703585693359375,0.0012409589253365993,0.0016177715733647346,0.0007842937484383583
1783169501557654500,0.713654541015625,-0.001311283209361136,-0.0000073267146944999695,0.00046775443479418755
1783169501567724800,0.723724853515625,-0.0004473538137972355,-0.00045021064579486847,0.0012022543232887983
1783169501577793800,0.733793701171875,0.00026146695017814636,-0.001263786107301712,0.0003757970407605171
1783169501587862800,0.74386279296875,-0.00012655556201934814,-0.0004275534301996231,-0.003550501074641943
1783169501597932800,0.753932861328125,-0.0020225769840180874,-0.0012179864570498466,-0.0020625644829124212
1783169501608001800,0.764001708984375,-0.0009274851763620973,0.0010265256278216839,0.0018877022666856647
1783169501618070800,0.77407080078125,-0.00021531677339226007,0.00026086997240781784,0.00046334508806467056
1783169501628140800,0.784140869140625,0.0005479451501742005,-0.0010898858308792114,-0.0012770306784659624
1783169501638209800,0.794209716796875,0.0006446570041589439,-0.0013591302558779716,-0.0030425384175032377
1783169501648279600,0.804279541015625,0.0009543825872242451,-0.0016089342534542084,0.0013780423905700445
1783169501658348800,0.814348876953125,-0.0007310351356863976,0.0018695597536861897,-0.0008997393306344748
1783169501668417800,0.824417724609375,0.00027297670021653175,-0.000026077963411808014,0.0003388968762010336
1783169501678487800,0.83448779296875,0.0001348615624010563,-0.0004290388897061348,-0.0023295783903449774
1783169501688556500,0.844556640625,0.00013805727940052748,-0.002050371840596199,-0.0010272928047925234
1783169501698625800,0.854625732421875,0.0005062114796601236,-0.00021822936832904816,-0.0021278406493365765
1783169501708695600,0.864695556640625,-0.0019457610324025154,0.0001977565698325634,-0.0004977197386324406
1783169501718764800,0.874764892578125,-0.0022492900025099516,-0.00003581307828426361,0.002092961221933365
1783169501728834600,0.88483447265625,-0.00009505904745310545,0.0001415535807609558,-0.00022159190848469734
1783169501738903800,0.89490380859375,-0.00024299428332597017,0.0020125648006796837,-0.00043125939555466175
1783169501748972500,0.90497265625,0.0014760761987417936,-0.0008937427774071693,-0.0006182135548442602
1783169501759042800,0.915042724609375,-0.0018473725067451596,-0.000042421743273735046,0.0010689380578696728
1783169501769111600,0.925111572265625,-0.0012747928267344832,0.0018172641284763813,0.002901725471019745
1783169501779180800,0.935180908203125,0.0005116176325827837,-0.000898091122508049,-0.0008961756248027086
1783169501789250600,0.94525048828125,-0.0016806964995339513,0.0018428340554237366,0.001242076512426138
1783169501799319800,0.95531982421875,-0.0005013267509639263,0.0018767858855426311,-0.001266926759853959
1783169501809389800,0.965389892578125,-0.0010017347522079945,0.0009247059933841228,0.001708090421743691
1783169501819458800,0.975458740234375,-0.0013041923521086574,-0.0007110033184289932,-0.002230656798928976
1783169501829527600,0.985527587890625,0.0010883916402235627,0.0008061998523771763,0.0006713897455483675
1783169501839597800,0.995597900390625,0.0011684171622619033,-0.00034016650170087814,0.0012411205098032951
1783169501849666800,1.005666748046875,-0.0004694269737228751,0.0005064527504146099,-0.0026590791530907154
1783169501859736600,1.015736572265625,-0.0015457408735528588,0.0005212416872382164,-0.0003491335082799196
1783169501869805800,1.025805908203125,0.0015746848657727242,-0.0007437597960233688,0.0009129384998232126
1783169501879874800,1.035874755859375,0.001062728581018746,-0.0015252698212862015,-0.0013792621903121471
1783169501889944800,1.04594482421875,-0.0009580780752003193,-0.00038037728518247604,0.0018058783607557416
1783169501900013600,1.056013671875,0.00009099335875362158,-0.002096397802233696,-0.0005416891071945429
1783169501910082800,1.066082763671875,-0.002132745925337076,0.0006913994438946247,0.0002308941911906004
1783169501920152600,1.076152587890625,0.0006804483127780259,-0.001894923858344555,0.001962768379598856
1783169501930221800,1.086221923828125,-0.0016633996274322271,0.0020902305841445923,0.0008969712071120739
1783169501940291600,1.09629150390625,-0.001945486874319613,0.0017950152978301048,-0.0018760310485959053
1783169501950360800,1.10636083984375,-0.0032293968833982944,0.002108203247189522,-0.00042966799810528755
1783169501960429600,1.1164296875,-0.0009069843217730522,-0.0005026189610362053,0.0040499563328921795
1783169501970499800,1.126499755859375,0.000012072618119418621,-0.0018003778532147408,0.0010957119520753622
1783169501980568600,1.136568603515625,-0.0021963566541671753,-0.0015621650964021683,-0.0008232835680246353
1783169501990637800,1.146637939453125,-0.00024798803497105837,0.00044798851013183594,-0.001927962526679039
1783169502000707600,1.15670751953125,-0.000028238166123628616,-0.0007933080196380615,0.00001471489667892456
1783169502010776800,1.16677685546875,0.0004143791738897562,-0.0005115456879138947,0.002295712474733591
1783169502020846800,1.176846923828125,-0.0011523072607815266,0.0026036747731268406,-0.0011919578537344933
1783169502030915800,1.186915771484375,-0.0013573707547038794,-0.001019023358821869,0.0011020891834050417
1783169502040984600,1.196984619140625,0.0018060359871014953,-0.0013064900413155556,0.00004574516788125038
1783169502051054600,1.2070546875,0.0005160007858648896,-0.001581861637532711,0.003091336227953434
1783169502061123800,1.217123779296875,-0.0012463099556043744,0.00015358207747340202,0.0005221657920628786
1783169502071192800,1.22719287109375,-0.0023238249123096466,-0.000055742450058460236,0.00043694465421140194
1783169502081262800,1.237262939453125,0.001538303797133267,-0.000891856849193573,-0.00011395872570574284
1783169502091331800,1.247331787109375,-0.00019887613598257303,0.0009534470736980438,0.0015979212475940585
1783169502101401900,1.25740185546875,0.00015039951540529728,0.00042749056592583656,0.003968113102018833
1783169502111470600,1.267470703125,-0.0013074148446321487,0.0012248409911990166,0.0009829760529100895
1783169502121539800,1.277539794921875,-0.0027514537796378136,-0.0002852482721209526,-0.00021843635477125645
1783169502131609600,1.287609619140625,-0.0033703725785017014,0.0010197008959949017,-0.0008064622525125742
1783169502141678800,1.297678955078125,-0.00014778540935367346,0.0005911877378821373,0.00021535158157348633
1783169502151747600,1.30774755859375,0.0018418622203171253,0.0019821571186184883,-0.0028997480403631926
1783169502161817900,1.31781787109375,-0.00047365855425596237,-0.00039508193731307983,0.0018456155667081475
1783169502171886600,1.327886474609375,0.0011684466153383255,-0.000323442742228508,0.0014144498854875565
1783169502181956900,1.337956787109375,-0.0021799218375235796,-0.0014010882005095482,0.0005505562294274569
1783169502192025600,1.348025634765625,0.0004257148830220103,-0.00025406479835510254,-0.0016553401947021484
1783169502202094800,1.3580947265625,0.001934707397595048,0.0005105012096464634,-0.0004185517318546772
1783169502212164600,1.36816455078125,0.0018209903500974178,-0.001017620787024498,0.0009812056086957455
1783169502222233900,1.37823388671875,-0.0025312029756605625,0.0013193334452807903,0.0021500131115317345
1783169502232302600,1.388302490234375,-0.0011863068211823702,0.002741993870586157,-0.0014913270715624094
1783169502242372900,1.398372802734375,0.0018575103022158146,-0.0006199460476636887,-0.0002336534671485424
1783169502252441600,1.408441650390625,-0.0001819385215640068,0.002230169251561165,0.0002616944257169962
1783169502262511600,1.41851171875,-0.0013084433740004897,0.001053128857165575,-0.0003484536428004503
1783169502272580600,1.42858056640625,-0.00005942094139754772,-0.0020084409043192863,0.00019429856911301613
1783169502282649900,1.43864990234375,0.0017351702554151416,0.000195968896150589,0.0006847335025668144
1783169502292719900,1.448719970703125,-0.002324818866327405,0.0009461813606321812,-0.0015872090589255095
1783169502302788600,1.45878857421875,-0.003414067905396223,-0.0017985450103878975,0.00022233277559280396
1783169502312857600,1.468857666015625,-0.0009772754274308681,-0.0015940144658088684,-0.00011908449232578278
1783169502322927600,1.478927734375,0.0005114346276968718,-0.002015097066760063,0.00038073863834142685
1783169502332996900,1.488996826171875,-0.00011627236381173134,0.00010078400373458862,0.0023498800583183765
1783169502343066600,1.499066650390625,-0.0018859617412090302,0.0007587107829749584,0.0006721063982695341
1783169502353135900,1.509135986328125,-0.0008297520689666271,-0.001581941731274128,-0.00030074617825448513
1783169502363204600,1.51920458984375,-0.002077812561765313,-0.00009391643106937408,0.0008605397306382656
1783169502373275000,1.52927490234375,-0.0022549128625541925,0.0010499111376702785,-0.0014620032161474228
1783169502383343600,1.539343505859375,0.0007632427732460201,-0.0020821737125515938,0.0009007295593619347
1783169502393414000,1.549413818359375,-0.001765694934874773,0.0006465013138949871,0.002668535802513361
1783169502403482600,1.559482666015625,-0.001209715846925974,-0.0017723208293318748,-0.0028360432479530573
1783169502413551900,1.5695517578125,0.0005564925959333777,-0.0004995958879590034,-0.0009031209629029036
1783169502423621600,1.57962158203125,0.0015493413666263223,-0.0018720710650086403,0.0001312738750129938
1783169502433691000,1.58969091796875,0.00013040914200246334,-0.00018229521811008453,0.00036270241253077984
1783169502443759600,1.599759521484375,0.0022212958429008722,-0.00017377175390720367,0.0009650115389376879
1783169502453830000,1.609829833984375,0.0018617691239342093,-0.004029230214655399,0.0007253270596265793
1783169502463898600,1.619898681640625,-0.0005165440961718559,0.0009612771682441235,-0.00008040713146328926
1783169502473968600,1.62996875,-0.001713368808850646,-0.000260314904153347,0.0008583571761846542
1783169502484037600,1.64003759765625,0.0010997091885656118,0.002542732749134302,-0.0018917128909379244
1783169502494107000,1.65010693359375,0.0006381833809427917,-0.00020751357078552246,-0.0018158128950744867
1783169502504176600,1.6601767578125,-0.0018349684542044997,-0.0008123703300952911,0.0006318036466836929
1783169502514245600,1.67024560546875,-0.0021505532786250114,0.0008806008845567703,-0.00004330766387283802
1783169502524314600,1.680314697265625,0.0014059400418773293,0.00009035877883434296,-0.001254586735740304
1783169502534384600,1.690384521484375,0.00045625679194927216,-0.0011370917782187462,0.0007286695763468742
1783169502544453600,1.70045361328125,0.00022552558220922947,0.0015489025972783566,-0.002118063159286976
1783169502554523600,1.710523681640625,-0.00020936864893883467,-0.0010823002085089684,-0.00037742103450000286
1783169502564592600,1.720592529296875,-0.0011418851790949702,-0.00008319038897752762,0.0010160470847040415
1783169502574661400,1.730661376953125,0.0021580378524959087,-0.0006243446841835976,-0.0014431159943342209
1783169502584731600,1.740731689453125,0.0006150980480015278,-0.0007021054625511169,-0.0003388416953384876
1783169502594800600,1.750800537109375,0.0003783430438488722,-0.0008363295346498489,-0.0021625743247568607
1783169502604869600,1.76086962890625,-0.0006888818461447954,0.0018753912299871445,-0.0003824634477496147
1783169502614939600,1.770939697265625,0.0009929044172167778,0.0013286443427205086,-0.004120742902159691
1783169502625008600,1.781008544921875,0.0026028379797935486,-0.0007993541657924652,-0.0003037459682673216
1783169502635078700,1.79107861328125,0.0018840509001165628,0.0008352939039468765,-0.000030505703762173653
1783169502645147600,1.801147705078125,0.00033165502827614546,0.00011630170047283173,-0.0017708272207528353
1783169502655216600,1.811216552734375,0.0006387174944393337,0.0013232463970780373,-0.003208934562280774
1783169502665286700,1.82128662109375,-0.0010659865802153945,0.0015789358876645565,0.0006875596009194851
1783169502675355600,1.831355712890625,-0.00041431107092648745,-0.0008535953238606453,-0.0002615910489112139
1783169502685424600,1.841424560546875,-0.00007422035560011864,0.003960313741117716,-0.0018098468426615
1783169502695494700,1.85149462890625,0.0008602828602306545,-0.0009023519232869148,0.000085791340097785
1783169502705563600,1.861563720703125,-0.0002841107780113816,0.0008845613338053226,0.0013558161444962025
1783169502715633700,1.871633544921875,0.0005087122553959489,0.0014297100715339184,-0.00014114659279584885
1783169502725702400,1.881702392578125,-0.0005883168196305633,-0.00046833325177431107,-0.0018902875017374754
1783169502735771600,1.891771728515625,0.00038320431485772133,0.0008049244061112404,0.0008186798077076674
1783169502745841400,1.90184130859375,-0.000670179957523942,0.0018948712386190891,-0.0023599674459546804
1783169502755910700,1.91191064453125,-0.000798011664301157,-0.001569102518260479,0.0017628723289817572
1783169502765979600,1.921979736328125,-0.001974147278815508,0.0002949838526546955,-0.0012812179047614336
1783169502776049700,1.932049560546875,0.00035345565993338823,0.0014044567942619324,-0.00035576941445469856
1783169502786118400,1.942118408203125,-0.0010833552805706859,-0.0010274751111865044,0.0009961556643247604
1783169502796188700,1.952188720703125,0.002910853596404195,0.0013640429824590683,-0.001716007711365819
1783169502806257400,1.96225732421875,0.0004511071601882577,0.0005656182765960693,-0.003101735608652234
1783169502816326700,1.97232666015625,-0.0012770179891958833,-0.0012269550934433937,-0.0007677411194890738
1783169502826396700,1.982396728515625,-0.00014642009045928717,0.0004322528839111328,-0.0020943067502230406
1783169502836465700,1.992465576171875,-0.00014029478188604116,-0.00099919643253088,0.0013036204036325216
1783169502846535700,2.00253564453125,-0.0004490076098591089,-0.001002713106572628,-0.0008919630199670792
1783169502856604700,2.012604736328125,0.0005555367679335177,0.0005006412975490093,-0.0023657563142478466
1783169502866673700,2.022673583984375,-0.0006521623581647873,-0.0035249758511781693,0.00004227110184729099
1783169502876743700,2.03274365234375,-0.00021700176876038313,-0.0004543513059616089,-0.0008128697518259287
1783169502886812700,2.042812744140625,-0.0006189355626702309,0.001692366786301136,-0.0014274222776293755
1783169502896881700,2.052881591796875,0.0010346212657168508,0.00036797672510147095,-0.002074304036796093
1783169502906951700,2.06295166015625,-0.0005195429548621178,0.0002598091959953308,-0.002546892501413822
1783169502917020700,2.073020751953125,-0.0005283313803374767,0.0002454281784594059,-0.002906419336795807
1783169502927090700,2.083090576171875,-0.0011601769365370274,-0.0008963486179709435,0.0022245352156460285
1783169502937159400,2.093159423828125,-0.0012379414401948452,0.00020753173157572746,-0.00046818703413009644
1783169502947228700,2.103228759765625,-0.0011699273018166423,0.0014758901670575142,-0.0029563370626419783
1783169502957298400,2.11329833984375,0.00016831106040626764,-0.0015334822237491608,-0.00011101574636995792
1783169502967367700,2.12336767578125,0.0017437763744965196,0.0014091506600379944,-0.00024158763699233532
1783169502977436400,2.1334365234375,-0.0009622614597901702,0.000047742389142513275,-0.0034877147991210222
1783169502987506700,2.143506591796875,0.0006266910349950194,-0.001860552467405796,-0.0006325109861791134
1783169502997575400,2.153575439453125,0.0005028540035709739,0.0006587975658476353,0.0023813885636627674
1783169503007645700,2.163645751953125,-0.001000845106318593,-0.00012535881251096725,-0.0008311963174492121
1783169503017714400,2.17371435546875,0.002320383209735155,-0.0009061973541975021,-0.0012322685215622187
1783169503027783700,2.18378369140625,0.0002199294976890087,-0.0007348190993070602,0.0007144536357372999
1783169503037853700,2.193853759765625,-0.0011465385323390365,0.0008697360754013062,0.0025938465259969234
1783169503047922700,2.203922607421875,0.00042850326281040907,0.0019217310473322868,0.0006939750164747238
1783169503057991400,2.213991455078125,-0.0008836360648274422,-0.00027431175112724304,0.0006524296477437019
1783169503068061700,2.224061767578125,-0.00017748819664120674,0.0012211850844323635,0.0009218959603458643
1783169503078130700,2.234130615234375,-0.0024835194926708937,-0.0006121350452303886,-0.00010075769387185574
1783169503088200400,2.244200439453125,-0.0023015462793409824,0.0022223168052732944,-0.0009888231288641691
1783169503098269700,2.254269775390625,0.0004686738830059767,0.0002451860345900059,0.0009382404386997223
1783169503108338700,2.264338623046875,0.000128004583530128,-0.00045215245336294174,-0.0011597038246691227
1783169503118408700,2.27440869140625,0.0007786147762089968,0.00019472884014248848,0.0013157043140381575
1783169503128477700,2.284477783203125,0.0005290284752845764,0.00033238064497709274,-0.0004470115527510643
1783169503138547700,2.294547607421875,0.0009290352463722229,0.0007435726001858711,0.0022736741229891777
1783169503148616400,2.304616455078125,0.0000026798807084560394,-0.0010334150865674019,0.00039155292324721813
1783169503158685700,2.314685791015625,0.0001560780219733715,-0.0025788480415940285,0.0023444490507245064
1783169503168755500,2.32475537109375,-0.0002431737957522273,-0.000616750679910183,-0.0023555790539830923
1783169503178824700,2.33482470703125,0.002027970040217042,0.000158761627972126,-0.0004423640202730894
1783169503188893400,2.3448935546875,-0.00220241560600698,0.0027517899870872498,0.0017187041230499744
1783169503198963700,2.354963623046875,0.000861817563418299,-0.002098625525832176,-0.0032387699466198683
1783169503209032400,2.365032470703125,-0.0011347528779879212,-0.0001326296478509903,-0.0018918344285339117
1783169503219102700,2.375102783203125,-0.0006846786709502339,0.001431445125490427,-0.0010763744357973337
1783169503229171500,2.38517138671875,-0.0011232267133891582,0.0001490497961640358,0.0007861396297812462
1783169503239240700,2.39524072265625,-0.0009921991731971502,-0.0006086193025112152,-0.0032666590996086597
1783169503249310500,2.405310546875,-0.0012917956337332726,0.0007369187660515308,-0.001660691574215889
1783169503259379700,2.415379638671875,0.0005737487226724625,0.0005552913062274456,0.0016466880915686488
1783169503269448400,2.425448486328125,0.00014800287317484617,0.001018141396343708,0.0000207400880753994
1783169503279518700,2.435518798828125,0.0016774563118815422,0.0018144268542528152,-0.0012202931102365255
1783169503289587500,2.44558740234375,-0.0001406143419444561,0.000013655051589012146,0.0027870689518749714
1783169503299657500,2.455657470703125,-0.0006695181364193559,-0.0005890186876058578,0.0024584350176155567
1783169503309726700,2.465726806640625,0.0003205197863280773,0.0010114149190485477,-0.001681850291788578
1783169503319795700,2.475795654296875,0.00030374189373105764,0.0021600360050797462,-0.0015135384164750576
1783169503329865700,2.48586572265625,0.0016941364156082273,0.0007082875818014145,-0.00029023666866123676
1783169503339934500,2.4959345703125,-0.0007301392033696175,0.0004435693845152855,0.00042642001062631607
1783169503350003700,2.506003662109375,0.00033641280606389046,0.0015985961072146893,-0.0030752047896385193
1783169503360073500,2.516073486328125,0.0007494690944440663,-0.00012446939945220947,0.002936082426458597
1783169503370142700,2.526142822265625,0.00007122836541384459,-0.00032691191881895065,0.000505201518535614
1783169503380212500,2.53621240234375,0.0009945463389158249,0.0016619367524981499,-0.0025750102940946817
1783169503390281700,2.54628173828125,0.0005815540789626539,-0.0024865316227078438,-0.002261541550979018
1783169503400350500,2.5563505859375,-0.0005561483558267355,-0.0028226226568222046,0.0009691391605883837
1783169503410420700,2.566420654296875,0.0004758702125400305,-0.00033478718250989914,-0.0009122628252953291
1783169503420489500,2.576489501953125,0.0007046357495710254,-0.00004689954221248627,0.0007961548399180174
1783169503430559700,2.586559814453125,-0.000015921657904982567,-0.00012997910380363464,0.0004784211050719023
1783169503440628500,2.59662841796875,-0.0015357877127826214,-0.0012327944859862328,0.000832088990136981
1783169503450697700,2.60669775390625,0.002591892145574093,0.0010725525207817554,0.0011642081663012505
1783169503460767500,2.616767578125,0.00008665653876960278,-0.0009096385911107063,0.002059030346572399
1783169503470836700,2.626836669921875,0.0017079896060749888,0.0007990184240043163,-0.000695639057084918
1783169503480905500,2.636905517578125,0.00025843095500022173,-0.0020372476428747177,-0.0005249304231256247
1783169503490975700,2.646975830078125,-0.003996177576482296,-0.00030893925577402115,0.003451878670603037
1783169503501044500,2.65704443359375,-0.0011801510117948055,-0.001150764524936676,-0.0009721645619720221
1783169503511114500,2.667114501953125,-0.0016650818288326263,-0.001539967954158783,0.0019238550448790193
1783169503521183500,2.67718359375,-0.0007987553253769875,-0.002046234905719757,0.00009772554039955139
1783169503531252700,2.687252685546875,-0.00009642262011766434,0.0006206398829817772,0.0003485921770334244
1783169503541322000,2.697322021484375,0.000797334301751107,0.0024491664953529835,0.0005845481064170599
1783169503551391000,2.707390869140625,0.0017500929534435272,0.0007184450514614582,0.0015919669531285763
1783169503561460000,2.7174599609375,0.0002890827599912882,-0.0016783997416496277,0.0010707862675189972
1783169503571530000,2.727530029296875,-0.0010929320706054568,0.0007502934895455837,-0.0033696095924824476
1783169503581599000,2.737598876953125,0.00018645054660737514,0.0011899815872311592,0.0021652381401509047
1783169503591669000,2.7476689453125,-0.0008276349399238825,0.0012603159993886948,0.00030622747726738453
1783169503601738000,2.757738037109375,-0.0010926194954663515,-0.00010268948972225189,-0.001262640580534935
1783169503611807000,2.767806884765625,0.000710075197275728,-0.0019202753901481628,0.002994042821228504
1783169503621877000,2.777876953125,0.0009915713453665376,0.0002794959582388401,0.00135167152620852
1783169503631946000,2.787946044921875,0.00002331275027245283,0.0003513959236443043,0.0025340719148516655
1783169503642016000,2.79801611328125,-0.0007625860162079334,-0.0024901973083615303,-0.00020152726210653782
1783169503652085000,2.8080849609375,0.00019708077888935804,0.0010663107968866825,-0.0023588798940181732
1783169503662154000,2.818154052734375,0.0005496832309290767,0.00011769309639930725,0.0009684732649475336
1783169503672224000,2.82822412109375,-0.00037798634730279446,0.00019074184820055962,-0.003365133423358202
1783169503682293000,2.83829296875,0.0007541233790107071,-0.0007999539375305176,-0.0006950479000806808
1783169503692362000,2.848362060546875,-0.0012425188906490803,0.000998594332486391,0.0005330580752342939
1783169503702432000,2.858431884765625,-0.0010326618794351816,-0.002849140204489231,-0.00011781859211623669
1783169503712501000,2.8685009765625,0.000279898289591074,0.0009601623751223087,0.0009881861042231321
1783169503722571000,2.878571044921875,0.00007856334559619427,-0.0011858129873871803,-0.00032714917324483395
1783169503732640000,2.888639892578125,-0.0007079795468598604,-0.001993461512029171,0.0014028004370629787
1783169503742709000,2.898708984375,0.00010002346243709326,0.0006228280253708363,-0.003145079594105482
1783169503752779000,2.908779052734375,0.00010046549141407013,0.0002205967903137207,-0.001841770950704813
1783169503762848000,2.918847900390625,-0.0002798339119181037,0.0010219421237707138,0.002449647057801485
1783169503772918000,2.92891796875,0.001185319502837956,-0.0015795612707734108,0.001206699525937438
1783169503782986800,2.93898681640625,0.0011160774156451225,0.0007762708701193333,-0.005046402104198933
1783169503793056000,2.949055908203125,-0.000577421160414815,0.0004626614972949028,0.0006059512961655855
1783169503803126000,2.9591259765625,-0.0003036482958123088,0.002172410488128662,-0.00042575737461447716
1783169503813195000,2.969195068359375,0.0014821976656094193,-0.000756165012717247,-0.0009352103807032108
1783169503823264000,2.979263916015625,0.001639057882130146,-0.001846463419497013,0.0014816084876656532
1783169503833334000,2.989333984375,-0.001198801794089377,0.0017693573608994484,-0.0020828244742006063
1783169503843402800,2.99940283203125,-0.001011315151117742,-0.0008525243028998375,-0.0011717567685991526
1783169503853473000,3.00947314453125,-0.0012464048340916634,0.0008156853727996349,-0.0022109586279839277
1783169503863542000,3.0195419921875,0.0009134187130257487,-0.0007862066850066185,0.0020857853814959526
1783169503873611000,3.029611083984375,-0.0009120034519582987,-0.00013012252748012543,0.001303098164498806
1783169503883681000,3.039680908203125,0.0010637957602739334,0.0008733561262488365,0.0017531723715364933
1783169503893750000,3.04975,-0.0010025708470493555,-0.0004796283319592476,0.000040039187297225
1783169503903819000,3.059819091796875,0.000006500980816781521,-0.002346237190067768,0.0014813418965786695
1783169503913889000,3.069888916015625,0.0013993242755532265,-0.0007352977991104126,0.0007726582698523998
1783169503923958000,3.0799580078125,-0.00045849697198718786,-0.0016564847901463509,0.0011287229135632515
1783169503934028000,3.090028076171875,-0.0008182732854038477,-0.0006329948082566261,-0.0006984483916312456
1783169503944097000,3.100096923828125,-0.0010960409417748451,0.00043706363067030907,-0.002797285793349147
1783169503954166000,3.110166015625,-0.0010718518169596791,-0.0008184872567653656,-0.00022543547675013542
1783169503964236000,3.120236083984375,-0.00014880008529871702,-0.000608629547059536,-0.0013154672924429178
1783169503974305000,3.130304931640625,0.001069878228008747,-0.0028704609721899033,0.0018044968601316214
1783169503984375000,3.140375,-0.0006478606956079602,-0.0021130582317709923,0.00020952965132892132
1783169503994443800,3.15044384765625,0.000545117596630007,0.0012160977348685265,-0.0016373819671571255
1783169504004513000,3.160512939453125,0.0006702861865051091,-0.001510445959866047,0.00015705591067671776
1783169504014582800,3.170582763671875,0.0015439963899552822,-0.0009981580078601837,-0.0009406483732163906
1783169504024652000,3.180652099609375,-0.0001444476656615734,-0.0018844585865736008,-0.001123074907809496
1783169504034721000,3.190720947265625,0.0018237222684547305,-0.00003613810986280441,-0.0010762924794107676
1783169504044791000,3.200791015625,0.0007078577764332294,0.0002653319388628006,-0.0019306342583149672
1783169504054859800,3.21085986328125,0.0006984886131249368,-0.001996767707169056,0.0014244220219552517
1783169504064930000,3.220929931640625,0.00038716511335223913,0.00041312724351882935,-0.0005026413127779961
1783169504074999000,3.2309990234375,-0.0011248367372900248,0.0018346086144447327,-0.0007538346108049154
1783169504085068000,3.241068115234375,0.000623528438154608,-0.0007550492882728577,-0.0014747523237019777
1783169504095138000,3.251137939453125,-0.000497159780934453,-0.001984553411602974,0.0008131624199450016
1783169504105207000,3.26120703125,0.00009432830847799778,0.0008764802478253841,-0.0009807427413761616
1783169504115276000,3.271276123046875,0.00011035660281777382,0.0017124069854617119,-0.0021686400286853313
1783169504125346000,3.281345947265625,0.000667223590426147,-0.00029561668634414673,-0.0014032474718987942
1783169504135415000,3.2914150390625,-0.0004722328158095479,-0.0026234621182084084,0.0017689298838376999
1783169504145484800,3.30148486328125,0.000014859368093311787,-0.00011929217725992203,0.001174245961010456
1783169504155554000,3.311553955078125,0.00043720920803025365,-0.0010208915919065475,0.0013099550269544125
1783169504165623000,3.321623046875,-0.0017953187925741076,-0.0017948057502508163,-0.00191699736751616
1783169504175693000,3.331693115234375,0.0004547714488580823,-0.0019364319741725922,-0.0007020025514066219
1783169504185762000,3.341761962890625,-0.0007894574664533138,0.0008292607963085175,-0.0008234423585236073
1783169504195832000,3.35183203125,-0.0015036577824503183,0.00021792855113744736,-0.0007992105092853308
1783169504205900800,3.36190087890625,0.0001909115817397833,-0.0002579782158136368,-0.0005531345959752798
1783169504215970000,3.371969970703125,0.0015012698713690042,0.002936291042715311,0.0015835827216506004
1783169504226039800,3.382039794921875,0.00020058208610862494,0.0008923150599002838,-0.0010300434660166502
1783169504236109000,3.392109130859375,-0.00005548319313675165,-0.00029218290001153946,-0.0000029846560209989548
1783169504246177800,3.402177734375,0.00077089574187994,-0.0010804785415530205,0.0007799847517162561
1783169504256248000,3.412248046875,0.001245108898729086,0.0015967972576618195,0.0022483831271529198
1783169504266316800,3.42231689453125,-0.0021333773620426655,0.0019158441573381424,0.00014368700794875622
1783169504276387000,3.432386962890625,0.0005062189884483814,-0.0005910489708185196,-0.000977101968601346
1783169504286455800,3.442455810546875,-0.0001422606874257326,-0.000884263776242733,-0.00044180662371218204
1783169504296525000,3.452525146484375,0.001346104545518756,0.00007121078670024872,-0.0008666261564940214
1783169504306595000,3.462594970703125,0.0009937682189047337,-0.0008672876283526421,0.0003568301908671856
1783169504316664000,3.4726640625,0.0008894214988686144,0.0009216256439685822,-0.002303469693288207
1783169504326732800,3.48273291015625,0.0007831613766029477,-0.0002509644255042076,0.0007607631850987673
1783169504336803000,3.492802978515625,-0.0012592751299962401,-0.000835132785141468,-0.0026535268407315016
1783169504346872000,3.5028720703125,0.0021940458100289106,-0.00006494671106338501,-0.00008490798063576221
1783169504356941800,3.51294189453125,0.0019013494020327926,0.0014287037774920464,-0.000469850143417716
1783169504367011000,3.523010986328125,0.0003804181469604373,0.0012622559443116188,0.00009154435247182846
1783169504377080000,3.533080078125,-0.0019637157674878836,-0.0004154043272137642,0.0022783158347010612
1783169504387150000,3.543150146484375,-0.000010287156328558922,0.00296547869220376,-0.000845571979880333
1783169504397218800,3.55321875,-0.00034521997440606356,-0.00012739375233650208,0.000021736137568950653
1783169504407289000,3.5632890625,0.0016127360286191106,0.00023559480905532837,-0.0005729475524276495
1783169504417357800,3.57335791015625,0.0007854077848605812,0.0008276235312223434,-0.0005599311552941799
1783169504427427000,3.583427001953125,-0.0019544523674994707,-0.0017428593710064888,-0.00107152434065938
1783169504437496800,3.593496826171875,-0.0014698535669595003,-0.0038881758227944374,-0.0019312095828354359
1783169504447566000,3.603566162109375,-0.00020245532505214214,-0.00046734511852264404,-0.0018012472428381443
1783169504457634800,3.613634765625,0.0006218551425263286,-0.0012766644358634949,-0.0011622670572251081
1783169504467705000,3.623705078125,0.0004902950022369623,0.001107929740101099,-0.00031937682069838047
1783169504477773800,3.63377392578125,-0.00043423869647085667,-0.0014356477186083794,0.0011272197589278221
1783169504487844000,3.643843994140625,0.000995878828689456,0.0013236533850431442,-0.00019717030227184296
1783169504497912800,3.653912841796875,0.0011530843330547214,0.0010559102520346642,0.0021220301277935505
1783169504507982000,3.663982177734375,0.0005474815261550248,-0.0019966047257184982,-0.0008071810007095337
1783169504518051800,3.6740517578125,0.0008012894541025162,0.0010119485668838024,-0.0015541338361799717
1783169504528121000,3.68412109375,0.0007616083603352308,0.0008076843805611134,-0.0002427934668958187
1783169504538192100,3.694192138671875,0.0010277192341163754,0.0008803312666714191,0.0028869807720184326
1783169504548261000,3.70426123046875,-0.0009118609596043825,0.0010201469995081425,0.0014707117807120085
1783169504558330000,3.714330078125,-0.00044780876487493515,0.0004628649912774563,-0.002975350944325328
1783169504568400100,3.724400146484375,0.00045819859951734543,0.0012833848595619202,0.00037091108970344067
1783169504578469000,3.73446923828125,0.0016924813389778137,0.0005477685481309891,0.0017798831686377525
1783169504588539100,3.7445390625,-0.001059096772223711,-0.0010274909436702728,0.0033948239870369434
1783169504598608100,3.754608154296875,0.0005894259084016085,-0.0006237989291548729,0.00017898553051054478
1783169504608677000,3.764677001953125,0.0012682656524702907,0.00208809832111001,0.0019182959804311395
1783169504618747000,3.774746826171875,0.0004578648949973285,0.0006611361168324947,0.001260643359273672
1783169504628816100,3.784816162109375,-0.00033549079671502113,-0.0016877716407179832,-0.0008991800714284182
1783169504638885000,3.794885009765625,0.001250570872798562,0.002800439950078726,-0.00014663138426840305
1783169504648955100,3.804955078125,0.0010281970025971532,-0.0006930949166417122,-0.00097034708596766
1783169504659024100,3.815024169921875,0.0013957115588709712,0.0016934834420681,-0.0017969314940273762
1783169504669094100,3.82509423828125,0.00006706046406179667,0.0007360773161053658,-0.0004664161242544651
1783169504679163000,3.835162841796875,-0.0029273945838212967,-0.0009236084297299385,-0.00023722508922219276
1783169504689232100,3.845232177734375,-0.0011617187410593033,0.0010178354568779469,0.0035833457950502634
1783169504699302000,3.855302001953125,-0.0019532532896846533,0.002362712286412716,-0.0009887716732919216
1783169504709371100,3.86537109375,-0.0005055589135736227,0.002042866311967373,-0.0007448261603713036
1783169504719440000,3.87543994140625,-0.000302847009152174,-0.001066514290869236,-0.000024372944608330727
1783169504729510100,3.88551025390625,0.0005874477210454643,0.0006978302262723446,0.0010885621886700392
1783169504739579000,3.895578857421875,0.0005590067012235522,-0.0007553696632385254,0.0014009920414537191
1783169504749649200,3.905649169921875,0.0025467900559306145,-0.0008728150278329849,0.0015962019097059965
1783169504759718100,3.91571826171875,-0.0024375105276703835,-0.0018843729048967361,-0.00012632599100470543
1783169504769787100,3.925787109375,0.0004650687915273011,-0.0008444078266620636,0.00008246582001447678
1783169504779857200,3.935857177734375,-0.00021636940073221922,0.0029364083893597126,-0.0011215612757951021
1783169504789926100,3.945926025390625,-0.00045205920469015837,0.0019654198549687862,-0.000067482003942132
1783169504799996200,3.95599609375,0.0006624885718338192,0.0010416870936751366,0.0009675358887761831
1783169504810065200,3.966065185546875,-0.0006041107699275017,0.0007599247619509697,0.0015773996710777283
1783169504820134100,3.976134033203125,-0.0014006757410243154,-0.0002513192594051361,-0.0002560077700763941
1783169504830204000,3.986203857421875,0.0007543542888015509,0.00006852671504020691,0.0017032799078151584
1783169504840273200,3.996273193359375,-0.000582961249165237,-0.0009472202509641647,0.00024172011762857437
1783169504850342100,4.006342041015625,0.00041359360329806805,0.0007875626906752586,0.0010151020251214504
1783169504860412200,4.016412109375,-0.0009345029247924685,-0.0005339328199625015,0.003964793868362904
1783169504870481000,4.02648095703125,-0.002313754055649042,-0.0013262229040265083,0.0008132089860737324
1783169504880551200,4.03655126953125,0.0013332314556464553,0.0018309908919036388,-0.0009348802268505096
1783169504890620000,4.046619873046875,0.00013241218402981758,0.0002474747598171234,0.0015027113258838654
1783169504900689200,4.056689208984375,0.00009314529597759247,0.0011154385283589363,-0.00047187949530780315
1783169504910759000,4.066759033203125,0.0011070107575505972,-0.0002022935077548027,0.0005427850410342216
1783169504920828200,4.076828125,0.00006855407264083624,0.0008660675957798958,0.00024723378010094166
1783169504930898000,4.08689794921875,-0.0013013760326430202,-0.00006710365414619446,0.0005766667891293764
1783169504940967200,4.09696728515625,-0.0013352622045204043,0.0008764923550188541,-0.0007165421266108751
1783169504951036000,4.107035888671875,-0.0012162189232185483,0.0004967255517840385,0.003811097936704755
1783169504961106200,4.117106201171875,-0.0017406147671863437,-0.00012394972145557404,-0.0014866087585687637
1783169504971175000,4.1271748046875,-0.0014569879276677966,-0.00038999971002340317,-0.002960668411105871
1783169504981244200,4.137244140625,-0.0011020615929737687,-0.0017979443073272705,-0.0006098505109548569
1783169504991314200,4.147314208984375,-0.00045171764213591814,0.0006809262558817863,0.0013260012492537498
1783169505001383200,4.157383056640625,0.00015975243877619505,0.00009152945131063461,-0.0010661648120731115
1783169505011453200,4.167453125,-0.0008037792285904288,0.0012896857224404812,0.0010334714315831661
1783169505021522000,4.17752197265625,-0.0022378084249794483,0.0004881666973233223,-0.0015187927056103945
1783169505031591200,4.187591064453125,-0.0007259316043928266,0.0007531512528657913,0.00012118206359446049
1783169505041661000,4.197660888671875,0.0013834290439262986,-0.0016904296353459358,0.0017411882290616632
1783169505051730200,4.207730224609375,0.0014036690117791295,0.0012302589602768421,0.0011092200875282288
1783169505061800000,4.217800048828125,-0.0002675007563084364,-0.00012506544589996338,0.0007513288874179125
1783169505071869200,4.227869140625,-0.0002643049228936434,0.0003622928634285927,0.0005710329860448837
1783169505081938000,4.23793798828125,-0.0007929053390398622,0.002191715408116579,-0.0026466338895261288
1783169505092008200,4.24800830078125,-0.00025255000218749046,0.0005956827662885189,0.0013315961696207523
1783169505102077000,4.258076904296875,-0.0009168521501123905,0.000265252310782671,0.001095489365980029
1783169505112146200,4.268146240234375,-0.0006484054028987885,0.00009454414248466492,-0.0021727420389652252
1783169505122216000,4.2782158203125,-0.002249879064038396,-0.000993942841887474,-0.00011672172695398331
1783169505132285200,4.28828515625,0.0007539003854617476,0.0015882579609751701,0.0003983336500823498
1783169505142355000,4.29835498046875,-0.0012526337523013353,-0.0036847004666924477,0.0013112162705510855
1783169505152424200,4.308424072265625,-0.0009247986599802971,-0.00004921853542327881,-0.0015301103703677654
1783169505162493000,4.318492919921875,-0.0002233810955658555,-0.0021809088066220284,0.00044255563989281654
1783169505172563200,4.328563232421875,0.0009702477254904807,0.0001158006489276886,0.0039035999216139317
1783169505182632000,4.3386318359375,0.0024798414669930935,-0.0014920150861144066,-0.0011538767721503973
1783169505192702000,4.348701904296875,0.0007666300516575575,-0.00307606253772974,0.0014461672399193048
1783169505202771000,4.35877099609375,-0.0013833879493176937,-0.00047255679965019226,0.0016410985263064504
1783169505212840200,4.368840087890625,-0.001593511551618576,0.0019780839793384075,0.0007896858733147383
1783169505222910200,4.37891015625,-0.00042382196988910437,-0.000687318854033947,-0.0007617936935275793
1783169505232979000,4.38897900390625,-0.0006869422504678369,-0.003003736026585102,-0.0012816430535167456
1783169505243048000,4.3990478515625,0.00004340766463428736,-0.0007714619860053062,0.0011973513755947351
1783169505253118000,4.409117919921875,-0.00018748838920146227,-0.00022791046649217606,-0.0012538221199065447
1783169505263187200,4.419187255859375,-0.000805588555522263,-0.001042170450091362,0.00020713801495730877
1783169505273257000,4.429257080078125,0.0006287899450398982,0.0004116492345929146,0.0017618915298953652
1783169505283326200,4.439326171875,-0.0011168476194143295,0.0014906106516718864,0.0008159112185239792
1783169505293395000,4.44939501953125,-0.0010550622828304768,-0.00022952444851398468,0.0016153922770172358
1783169505303465200,4.45946533203125,0.0004936041077598929,0.0030116145499050617,-0.0011345152743160725
1783169505313534000,4.469533935546875,-0.002249718178063631,-0.0005066879093647003,-0.00019468553364276886
1783169505323604200,4.479604248046875,-0.0013764535542577505,0.0006017154082655907,0.0022051704581826925
1783169505333673000,4.4896728515625,0.0005010750028304756,0.0019950810819864273,-0.0018918367568403482
1783169505343742200,4.4997421875,-0.00042001972906291485,-0.0018739327788352966,0.0009856780525296926
1783169505353812000,4.50981201171875,0.0003746675211004913,0.0006400914862751961,0.0007297482807189226
1783169505363881200,4.519881103515625,0.00014498154632747173,0.00047920364886522293,-0.0004032822325825691
1783169505373950000,4.529949951171875,-0.0004020316991955042,0.0007010451517999172,-0.0009969007223844528
1783169505384020000,4.54002001953125,0.000649879511911422,-0.001811658963561058,-0.0015003341250121593
1783169505394089000,4.5500888671875,-0.00031525001395493746,-0.00013892725110054016,0.002280821558088064
1783169505404159000,4.560158935546875,0.001460665138438344,0.000988938845694065,-0.001996600069105625
1783169505414228000,4.57022802734375,0.0020875732880085707,-0.0002318546175956726,-0.0023428108543157578
1783169505424297200,4.580297119140625,-0.00023020152002573013,0.0003778240643441677,-0.0011025196872651577
1783169505434367200,4.5903671875,-0.00025843107141554356,-0.0020144935697317123,-0.00024924310855567455
1783169505444436000,4.60043603515625,0.00016734085511416197,0.00024552876129746437,-0.0007096291519701481
1783169505454506200,4.61050634765625,-0.0021972800604999065,0.0008098524995148182,0.0005220826715230942
1783169505464575000,4.620574951171875,-0.0011003660038113594,0.00021586380898952484,-0.0004798064474016428
1783169505474644000,4.63064404296875,-0.0001269807107746601,0.0016984455287456512,-0.0005594349931925535
1783169505484714000,4.6407138671875,0.00024751864839345217,-0.0006030108779668808,0.00228147697634995
1783169505494783200,4.650783203125,0.0004251514910720289,0.0016958294436335564,-0.001332965213805437
1783169505504853000,4.66085302734375,0.0009749607415869832,0.0009077792055904865,-0.0013533348683267832
1783169505514922200,4.670922119140625,0.0016609909944236279,-0.0006688116118311882,-0.0013602592516690493
1783169505524991000,4.680990966796875,-0.00243800668977201,0.0020075743086636066,-0.0016353107057511806
1783169505535061200,4.691061279296875,0.0015966823557391763,-0.000005775131285190582,-0.00010559079237282276
1783169505545129700,4.701129638671875,-0.00007099355570971966,0.0001877802424132824,-0.0007667331956326962
1783169505555199000,4.711198974609375,-0.0014563699951395392,-0.00039305537939071655,-0.0006080088205635548
1783169505565268700,4.721268798828125,0.0006834696396254003,-0.0005799820646643639,-0.0021199698094278574
1783169505575338000,4.731337890625,0.00038066826527938247,0.0012370925396680832,-0.0023601872380822897
1783169505585407700,4.74140771484375,0.0002498956164345145,0.0007062703371047974,0.0003524497151374817
1783169505595477000,4.75147705078125,0.002478695008903742,0.0019587548449635506,0.0012584570795297623
1783169505605545700,4.761545654296875,-0.001894107204861939,-0.0014004837721586227,0.0015050959773361683
1783169505615615700,4.77161572265625,-0.0003239074721932411,-0.0016811806708574295,0.0004233198706060648
1783169505625684700,4.781684814453125,0.0023912687320262194,-0.0018002474680542946,-0.0004084734246134758
1783169505635754800,4.791754638671875,-0.0008298244792968035,0.00033134641125798225,-0.0024130349047482014
1783169505645823700,4.80182373046875,-0.0013911573914811015,0.0011822055093944073,-0.0018000316340476274
1783169505655892700,4.811892822265625,0.0004794468986801803,-0.0009752213954925537,0.0009848359040915966
1783169505665962800,4.821962646484375,0.000026050489395856857,0.0019244900904595852,0.0014608490746468306
1783169505676031700,4.83203173828125,0.0012734751217067242,0.000866948626935482,0.00047494680620729923
1783169505686100700,4.842100830078125,-0.0011297897435724735,0.00016675284132361412,-0.0012460346333682537
1783169505696170800,4.852170654296875,-0.0011875801719725132,-0.0003538951277732849,-0.0012159408070147038
1783169505706239700,4.86223974609375,0.0012051960220560431,-0.001930474303662777,-0.000894998200237751
1783169505716309800,4.872309814453125,-0.0004741933662444353,0.0003071138635277748,0.0016725555760785937
1783169505726379000,4.88237890625,-0.0008668756345286965,-0.0024222182109951973,0.0005736476741731167
1783169505736447700,4.89244775390625,-0.0009283946128562093,-0.0018331268802285194,0.0020634199026972055
1783169505746518000,4.90251806640625,0.0006318158120848238,-0.002062811516225338,0.0009708537254482508
1783169505756586800,4.912586669921875,0.0006536536966450512,0.0007489537820219994,0.0007197177037596703
1783169505766656800,4.92265673828125,-0.0015331888571381569,-0.0016491729766130447,0.00028049200773239136
1783169505776725800,4.932725830078125,0.00025352579541504383,-0.0009016236290335655,0.0007297671400010586
1783169505786795000,4.942794921875,-0.0004373841220512986,0.00019766809418797493,0.0005792956799268723
1783169505796864800,4.95286474609375,-0.002235816791653633,-0.001430056057870388,-0.004544625990092754
1783169505806933800,4.962933837890625,-0.0008178668795153499,-0.00023477524518966675,-0.0011642691679298878
1783169505817002800,4.973002685546875,-0.0008168014464899898,-0.0001508854329586029,0.0014144699089229107
1783169505827072800,4.98307275390625,0.001666387775912881,0.0013355626724660397,-0.0011604244355112314
1783169505837141800,4.993141845703125,-0.0012468441855162382,0.0013725804165005684,-0.0024326166603714228
1783169505847211800,5.003211669921875,0.0017241353634744883,0.0009158286266028881,0.0019373618997633457
1783169505857280800,5.01328076171875,0.0003560694167390466,0.00016375165432691574,0.0011509305331856012
1783169505867349800,5.023349853515625,-0.0004386879736557603,-0.0007108012214303017,0.0009550533723086119
1783169505877419800,5.033419677734375,-0.000020039035007357597,0.00035419734194874763,-0.0021243600640445948
1783169505887488800,5.04348876953125,-0.00009787420276552439,-0.0004092026501893997,-0.0009508135262876749
1783169505897559000,5.05355908203125,0.0005234412383288145,0.0002680392935872078,0.0034039875026792288
1783169505907627800,5.063627685546875,0.0009193529840558767,0.0004118778742849827,-0.0005408378783613443
1783169505917696800,5.07369677734375,-0.0007027783431112766,-0.00005177874118089676,0.0006874122191220522
1783169505927766800,5.083766845703125,0.0006776525406166911,0.0002647838555276394,-0.0007170969620347023
1783169505937836000,5.0938359375,0.000023313798010349274,0.0003116554580628872,0.002487750956788659
1783169505947905800,5.10390576171875,0.00022645096760243177,0.0008552065119147301,-0.0027512970846146345
1783169505957974800,5.113974853515625,-0.0019080726196989417,0.0008661253377795219,0.001100699184462428
1783169505968043800,5.124043701171875,-0.001098473323509097,-0.00015304237604141235,0.00031390273943543434
1783169505978113800,5.13411376953125,0.0007388414232991636,-0.0015189778059720993,0.0027086171321570873
1783169505988182800,5.144182861328125,-0.00041337485890835524,-0.0002555530518293381,-0.000588937196880579
1783169505998252000,5.154251953125,-0.0002527862088754773,-0.0008960431441664696,0.00032399455085396767
1783169506008321800,5.16432177734375,-0.00041514344047755003,0.0021157748997211456,-0.0009707361459732056
1783169506018390800,5.174390869140625,0.0010621119290590286,0.0018497253768146038,-0.001117742620408535
1783169506028460800,5.184460693359375,-0.0006851023063063622,-0.001134997233748436,0.0000029264483600854874
1783169506038529800,5.19452978515625,-0.001487512607127428,-0.00020741764456033707,0.0012018815614283085
1783169506048598800,5.204598876953125,-0.0012188336113467813,-0.0008521312847733498,-0.0009454858954995871
1783169506058668800,5.214668701171875,-0.000599115970544517,-0.0017426926642656326,0.0003863610327243805
1783169506068737800,5.22473779296875,-0.0021624439395964146,-0.0015835091471672058,0.0023430613800883293
1783169506078807800,5.234807861328125,0.000606178306043148,-0.0004186425358057022,0.0006767213344573975
1783169506088876800,5.244876708984375,0.0013825338101014495,-0.0006743539124727249,-0.00005810079164803028
1783169506098945800,5.25494580078125,0.0011388546554371715,-0.0012021921575069427,0.00003803917206823826
1783169506109015800,5.265015869140625,0.00014789961278438568,0.0009688669815659523,0.0022608907893300056
1783169506119084800,5.275084716796875,0.0012573725543916225,0.003171833697706461,-0.0015370429027825594
1783169506129153800,5.28515380859375,0.0006042373715899885,-0.0006373468786478043,-0.0007734291721135378
1783169506139223800,5.295223876953125,-0.0008897959487512708,-0.001262390986084938,0.0007661443669348955
1783169506149292800,5.305292724609375,0.0007697315304540098,0.0008443049155175686,0.0011528667528182268
1783169506159362800,5.31536279296875,0.0007534862379543483,0.0006046202033758163,-0.00024955393746495247
1783169506169431800,5.325431884765625,0.0012305493000894785,0.0030466136522591114,-0.0007486867252737284
1783169506179500800,5.335500732421875,0.0012657031184062362,0.00017599202692508698,0.00026917317882180214
1783169506189570800,5.34557080078125,-0.002312036696821451,-0.000649518333375454,-0.0005413945764303207
1783169506199639800,5.355639892578125,-0.0033400170505046844,-0.00007427576929330826,-0.001049526035785675
1783169506209709800,5.365709716796875,0.002333279000595212,-0.00019510742276906967,0.0010530357249081135
1783169506219778800,5.37577880859375,0.0013068967964500189,0.0006389948539435863,-0.0002047752495855093
1783169506229847800,5.385847900390625,-0.001207212102599442,-0.001277182251214981,0.0006114677526056767
1783169506239917800,5.395917724609375,0.0009273113682866096,0.0014637433923780918,0.002132399007678032
1783169506249986800,5.40598681640625,0.00022214441560208797,0.0008923150599002838,-0.0009201059583574533
1783169506260056800,5.416056884765625,0.00022134545724838972,-0.001019568182528019,-0.00010278192348778248
1783169506270125800,5.426125732421875,0.000934637850150466,0.00008141202852129936,0.0013385501224547625
1783169506280194800,5.43619482421875,-0.000025698100216686726,0.0004686359316110611,0.00024186051450669765
1783169506290264800,5.446264892578125,-0.00015762646216899157,-0.0028238315135240555,0.002126881154254079
1783169506300333800,5.456333740234375,-0.0004593625199049711,0.00019459566101431847,0.0009798577520996332
1783169506310402800,5.46640283203125,0.001357662957161665,0.003340456634759903,-0.0018062463495880365
1783169506320472800,5.476472900390625,0.0002010521711781621,0.0003249594010412693,0.002960811834782362
1783169506330541800,5.486541748046875,-0.0023699968587607145,0.0010520024225115776,0.002903442597016692
1783169506340611600,5.496611572265625,0.0011565610766410828,0.00026130955666303635,0.0010714540258049965
1783169506350680800,5.506680908203125,0.0006742352270521224,-0.0016900794580578804,-0.00020601460710167885
1783169506360749800,5.516749755859375,-0.00013403419870883226,-0.0007289443165063858,-0.0006446370389312506
1783169506370819800,5.52681982421875,0.001068692421540618,-0.0005396492779254913,0.0003929678350687027
1783169506380888600,5.536888671875,0.0006359288236126304,0.0019607925787568092,-0.0017713834531605244
1783169506390958800,5.546958740234375,-0.0005421745590865612,-0.001160651445388794,-0.0006082681939005852
1783169506401027800,5.55702783203125,0.00026875792536884546,0.00008277874439954758,0.0008761778008192778
1783169506411096800,5.567096923828125,-0.0008193638641387224,0.0034051835536956787,-0.0010946777183562517
1783169506421166800,5.577166748046875,-0.0012068536598235369,0.001719136256724596,-0.0009125175420194864
1783169506431235800,5.58723583984375,-0.0009046281920745969,0.00031134020537137985,0.0010859158355742693
1783169506441304800,5.597304931640625,0.001612325431779027,-0.0011981390416622162,-0.0023037553764879704
1783169506451374800,5.607374755859375,0.00026389164850115776,0.0008717193268239498,-0.004154386464506388
1783169506461443800,5.61744384765625,-0.0002021616091951728,0.000855474267154932,0.00044169696047902107
1783169506471513900,5.627513916015625,-0.0013675268273800611,0.0004650088958442211,0.00025101169012486935
1783169506481582800,5.637582763671875,-0.001302545890212059,-0.000037795864045619965,0.001282454002648592
1783169506491651800,5.64765185546875,-0.0002642163308337331,0.0008809403516352177,0.0019159481162205338
1783169506501721900,5.657721923828125,-0.00008525187149643898,0.0009214202873408794,0.00048583047464489937
1783169506511790800,5.667790771484375,0.00034349586348980665,-0.0008352147415280342,-0.0007121881935745478
1783169506521860900,5.67786083984375,-0.0014272399712353945,0.0004039537161588669,0.0012625455856323242
1783169506531929900,5.687929931640625,-0.00002154556568711996,-0.002073371782898903,0.0003701462410390377
1783169506541999000,5.6979990234375,-0.001051389961503446,-0.000996123068034649,0.002142213750630617
1783169506552068900,5.70806884765625,0.0004602839471772313,0.00011507095769047737,0.0017661831807345152
1783169506562138000,5.71813818359375,0.0004349839291535318,0.00023704394698143005,-0.0017441294621676207
1783169506572208000,5.7282080078125,-0.00040366477333009243,-0.0017595943063497543,0.0018519156146794558
1783169506582277000,5.738277099609375,-0.0013442933559417725,-0.00013107061386108398,-0.00011163298040628433
1783169506592345900,5.748345947265625,0.0005875267670489848,-0.00005313660949468613,-0.0010894935112446547
1783169506602416000,5.758416015625,0.0013870077673345804,0.0013540778309106827,0.0011116093955934048
1783169506612485000,5.768485107421875,-0.00022511591669172049,-0.0006140484474599361,-0.0013330113142728806
1783169506622554000,5.77855419921875,-0.0006030185613781214,-0.0009996737353503704,0.002562394365668297
1783169506632624000,5.7886240234375,-0.001074273488484323,0.0018947632052004337,0.0006722193211317062
1783169506642693000,5.798693115234375,-0.0009360554395243526,-0.0016059624031186104,-0.0024186456575989723
1783169506652763100,5.80876318359375,-0.0012972239637747407,-0.0015681581571698189,-0.00022234045900404453
1783169506662832000,5.81883203125,0.001135307247750461,0.0025655999779701233,0.0007973839528858662
1783169506672901000,5.828901123046875,-0.002358405850827694,-0.002028570044785738,-0.0010833167470991611
1783169506682971000,5.838970947265625,0.0037383688613772392,-0.0007129688747227192,-0.0018130228854715824
1783169506693040000,5.8490400390625,-0.0000875962432473898,0.002965318039059639,-0.0005306210368871689
1783169506703110000,5.85910986328125,-0.00227724714204669,0.001639596652239561,-0.0008621844463050365
1783169506713179100,5.86917919921875,-0.0008184385951608419,-0.0017728330567479134,-0.0007582739926874638
1783169506723248000,5.879248046875,-0.0010072567965835333,-0.0005680182948708534,-0.0003060691524296999
1783169506733318100,5.889318115234375,0.0012999891769140959,-0.000021869782358407974,0.0020846843253821135
1783169506743387000,5.899386962890625,-0.00005635875277221203,0.001338206697255373,0.0031978855840861797
1783169506753457200,5.90945703125,-0.0017921600956469774,-0.00018696347251534462,0.00012591597624123096
1783169506763526000,5.91952587890625,0.000896034762263298,0.001504942774772644,-0.0009340220130980015
1783169506773595100,5.92959521484375,0.0010365524794906378,-0.0011910959146916866,0.000057501718401908875
1783169506783665200,5.9396650390625,0.0023217941634356976,0.0005330340936779976,0.0008178341668099165
1783169506793734100,5.949734130859375,0.00020502880215644836,-0.000806750264018774,-0.0005924105644226074
1783169506803803000,5.959802978515625,-0.0024972809478640556,-0.0011436394415795803,0.000917868223041296
1783169506813873200,5.969873046875,0.000040617771446704865,0.00047934195026755333,0.00007255771197378635
1783169506823942000,5.97994189453125,0.00030533596873283386,0.0012378101237118244,-0.0020081698894500732
1783169506834012000,5.990011962890625,-0.0004100422374904156,0.00010619824752211571,-0.0025419529993087053
1783169506844081200,6.0000810546875,0.0006075516575947404,0.0004915581084787846,-0.0035542205441743135
1783169506854150100,6.010150146484375,-0.00006014760583639145,0.0029380526393651962,-0.00343828066252172
1783169506864220200,6.02022021484375,0.0017547965981066227,0.0019737216643989086,0.00037643127143383026
1783169506874289200,6.0302890625,-0.0021312925964593887,-0.0017612394876778126,0.0010697136167436838
1783169506884359200,6.040359130859375,-0.0007171538891270757,0.0019972799345850945,-0.001390248304232955
1783169506894428000,6.050427978515625,0.0003008464118465781,0.0010511907748878002,-0.001029785955324769
1783169506904497200,6.0604970703125,0.0004108349676243961,-0.000011942815035581589,0.00006477348506450653
1783169506914567000,6.07056689453125,0.0016476798336952925,-0.002913935109972954,-0.0014370942953974009
1783169506924636200,6.08063623046875,-0.0022663678973913193,0.0001937076449394226,-0.0013414870481938124
1783169506934706000,6.090705810546875,-0.000666795764118433,-0.0003033536486327648,0.0021479162387549877
1783169506944775200,6.100775146484375,-0.0007187274750322104,-0.00022425735369324684,0.00048157619312405586
1783169506954844000,6.110843994140625,0.00031693384516984224,0.00027985917404294014,0.001362342620268464
1783169506964914200,6.1209140625,0.0002114727394655347,-0.0006146961823105812,0.0015221323119476438
1783169506974983000,6.13098291015625,0.0007365918718278408,-0.0022176019847393036,0.0009519315790385008
1783169506985052200,6.14105224609375,-0.0005470517789945006,-0.00030997954308986664,-0.0004752562381327152
1783169506995122000,6.151121826171875,0.00043567788088694215,-0.0015924987383186817,-0.0017054236959666014
1783169507005191200,6.161191162109375,0.00008254277054220438,-0.0024098227731883526,0.0027220817282795906
1783169507015261200,6.17126123046875,-0.0013187346048653126,-0.0004472867585718632,-0.001128252362832427
1783169507025330200,6.181330078125,-0.0007900972850620747,-0.0008070799522101879,0.001215329160913825
1783169507035399000,6.19139892578125,0.0001129009760916233,-0.002283560112118721,-0.0021700768265873194
1783169507045469000,6.201468994140625,-0.0015763420378789306,-0.0003354577347636223,0.0001785650383681059
1783169507055538200,6.2115380859375,0.0028396002016961575,0.0008348622359335423,0.00006651179865002632
1783169507065608000,6.22160791015625,-0.0033410638570785522,-0.0010802168399095535,-0.003443002002313733
1783169507075677200,6.23167724609375,0.0005578587297350168,0.0013250596821308136,0.0016459780745208263
1783169507085746200,6.24174609375,0.0006630535935983062,-0.001138630323112011,0.00010081194341182709
1783169507095816200,6.251816162109375,0.0013048870023339987,-0.0005112839862704277,-0.0013311710208654404
1783169507105885000,6.261885009765625,0.0007000831537880003,0.0002543749287724495,0.00011785491369664669
1783169507115954200,6.2719541015625,-0.00048046105075627565,-0.0005058944225311279,-0.00016084522940218449
1783169507126024000,6.28202392578125,0.0001512407325208187,0.0000645550899207592,-0.00010545155964791775
1783169507136093200,6.29209326171875,0.0013621172402054071,-0.0004047485999763012,0.0016750221839174628
1783169507146163000,6.302162841796875,-0.00041740701999515295,0.0005241618491709232,-0.0033596837893128395
1783169507156232200,6.312232177734375,0.0007744909962639213,-0.0013898848555982113,-0.002019816543906927
1783169507166301000,6.322301025390625,0.00045038427924737334,-0.0011691083200275898,0.0019831806421279907
1783169507176371200,6.33237109375,-0.00042489601764827967,-0.0010048439726233482,0.001046156045049429
1783169507186440000,6.34243994140625,0.000621193612460047,-0.00005436176434159279,-0.0024977123830467463
1783169507196510000,6.352510009765625,0.00008766748942434788,0.000066347885876894,0.000026883790269494057
1783169507206579000,6.362578857421875,0.0012141845654696226,0.00031934818252921104,0.0021110735833644867
1783169507216648200,6.372648193359375,0.0011839792132377625,-0.00067128986120224,0.0013511213473975658
1783169507226718000,6.382718017578125,0.001592774409800768,0.00005974806845188141,0.0010664293076843023
1783169507236787200,6.392787109375,0.00041462836088612676,-0.00025033485144376755,-0.0035562063567340374
1783169507246857200,6.402857177734375,-0.0008575638057664037,0.0012173326686024666,0.0006838124245405197
1783169507256926000,6.412926025390625,-0.0027650867123156786,-0.0006771194748580456,0.002093167509883642
1783169507266995000,6.422994873046875,0.0006722555262967944,0.0003410065546631813,0.000399396987631917
1783169507277065000,6.43306494140625,0.0001447172835469246,-0.003119400702416897,-0.0009653626475483179
1783169507287134200,6.44313427734375,0.0021050700452178717,-0.000202973373234272,-0.0005672199185937643
1783169507297203000,6.453202880859375,0.0017583563458174467,-0.002187666017562151,-0.002378036268055439
1783169507307273200,6.463273193359375,-0.00031065347138792276,0.0009934795089066029,-0.0011258181184530258
1783169507317342000,6.473342041015625,-0.0016686645103618503,-0.0012412150390446186,0.0011776997707784176
1783169507327412200,6.483412109375,-0.0006918170256540179,0.002755125053226948,0.000268496572971344
1783169507337481000,6.49348095703125,-0.00033973914105445147,-0.0017544054426252842,-0.0022882770281285048
1783169507347550200,6.50355029296875,-0.0005519930273294449,0.0007034256123006344,0.0017101927660405636
1783169507357620000,6.513619873046875,-0.0021312839817255735,0.0006072479300200939,0.0005289081018418074
1783169507367689200,6.523689208984375,-0.00032805767841637135,-0.0007613501511514187,-0.0011472855694592
1783169507377759000,6.533759033203125,-0.00015850551426410675,-0.001322003547102213,-0.001443617744371295
1783169507387828200,6.543828125,-0.0018064695177599788,-0.000756348017603159,-0.00020684581249952316
1783169507397897000,6.55389697265625,0.0016075923340395093,0.0027795881032943726,0.0007549135480076075
1783169507407967000,6.563967041015625,0.0009335462236776948,0.000052244868129491806,-0.0016725577879697084
1783169507418036000,6.574035888671875,0.0005139136919751763,-0.00222483417019248,0.002645420143380761
1783169507428106000,6.58410595703125,0.0009812985081225634,-0.0006269379518926144,-0.0007056354079395533
1783169507438175000,6.594175048828125,-0.0028676455840468407,-0.00005239294841885567,0.0003299773670732975
1783169507448244000,6.604243896484375,0.0013369533699005842,-0.0013232533819973469,-0.0006537942681461573
1783169507458314200,6.614314208984375,-0.0007050090935081244,0.00021250871941447258,0.00042776158079504967
1783169507468383000,6.624383056640625,0.000020169652998447418,0.0007182429544627666,-0.0003227170091122389
1783169507478453200,6.634453369140625,0.0011239963350817561,-0.002378665842115879,-0.0008085700683295727
1783169507488522000,6.64452197265625,0.0013572892639786005,-0.0013168631121516228,0.00044018635526299477
1783169507498591000,6.654591064453125,-0.0007065726676955819,-0.002117060124874115,-0.002951855305582285
1783169507508661000,6.664660888671875,0.000801042711827904,-0.0006177006289362907,0.0015022812876850367
1783169507518730200,6.674730224609375,0.0017071712063625455,0.00039609987288713455,0.0005519778933376074
1783169507528799000,6.684799072265625,0.00039423280395567417,-0.0008973977528512478,-0.00029757036827504635
1783169507538869200,6.694869140625,0.0005079525872133672,0.0013686572201550007,-0.0005647214129567146
1783169507548938800,6.704938720703125,0.0002413701731711626,-0.0002726493403315544,0.00003848457708954811
1783169507559008800,6.7150087890625,0.00006166624370962381,0.0004879022017121315,0.00012415251694619656
1783169507569077800,6.725077880859375,-0.0012685827678069472,-0.000478559173643589,-0.003083358518779278
1783169507579146800,6.735146728515625,-0.002117580035701394,0.0011237775906920433,0.003104129573330283
1783169507589216800,6.745216796875,0.0011831418378278613,-0.0022065057419240475,-0.0013145874254405499
1783169507599285800,6.75528564453125,-0.0009214208694174886,-0.0006154682487249374,0.0022417507134377956
1783169507609356000,6.76535595703125,-0.00226471945643425,-0.0018599629402160645,0.0014611782971769571
1783169507619424800,6.7754248046875,0.0007360560703091323,-0.0014825579710304737,0.0008048934396356344
1783169507629493800,6.78549365234375,0.0003632134757936001,0.001716430764645338,-0.0006159029435366392
1783169507639563800,6.795563720703125,0.00019783747848123312,0.0008317446336150169,0.0004459293559193611
1783169507649633000,6.805633056640625,-0.0022735761012881994,0.0014248304069042206,-0.0011647504288703203
1783169507659701800,6.81570166015625,-0.00018512282986193895,-0.0019848449155688286,0.0007286528125405312
1783169507669772000,6.82577197265625,-0.00019311229698359966,-0.0007075928151607513,0.0015150842955335975
1783169507679840800,6.8358408203125,0.0005084411823190749,0.0025736987590789795,-0.001763680251315236
1783169507689910800,6.845910888671875,-0.0031350296922028065,-0.00027242163196206093,0.00046458677388727665
1783169507699979800,6.855979736328125,0.0007501118234358728,0.001702172216027975,-0.0016724439337849617
1783169507710049000,6.866049072265625,-0.0010824092896655202,-0.00230082543566823,0.001033061183989048
1783169507720118800,6.876118896484375,-0.00021164014469832182,0.0013099112547934055,-0.002351902425289154
1783169507730187800,6.886187744140625,0.00039928907062858343,-0.0009066378697752953,-0.0019913106225430965
1783169507740257800,6.8962578125,-0.000368294189684093,0.0016445545479655266,-0.0029003419913351536
1783169507750326800,6.906326904296875,-0.0006404693704098463,-0.00120849022641778,-0.0011897934600710869
1783169507760395800,6.916395751953125,-0.0015215352177619934,-0.0013525397516787052,-0.0015276279300451279
1783169507770465800,6.9264658203125,0.0008337643812410533,0.000225916039198637,-0.00006235670298337936
1783169507780534800,6.93653466796875,-0.0007361418101936579,0.0006453106179833412,0.0028123450465500355
1783169507790604800,6.946604736328125,0.0010369907831773162,-0.0007160976529121399,0.00007514795288443565
1783169507800673800,6.956673828125,-0.0015316040953621268,-0.0024014385417103767,-0.0006130516994744539
1783169507810742800,6.96674267578125,0.0003653655294328928,-0.0017995638772845268,-0.0018088112119585276
1783169507820812800,6.976812744140625,-0.0017295046709477901,-0.0013188645243644714,-0.0009426698088645935
1783169507830881800,6.9868818359375,-0.002445628633722663,0.00045160530135035515,-0.0001336017157882452
1783169507840950800,6.99695068359375,0.0014814164023846388,-0.0009064236655831337,0.0038555357605218887
1783169507851020800,7.007020751953125,-0.0011444604024291039,-0.002140798605978489,-0.0027938445564359426
1783169507861089800,7.01708984375,0.0022812432143837214,-0.0007410850375890732,-0.0009374639485031366
1783169507871159800,7.027159912109375,0.0017709815874695778,0.0003372291103005409,-0.0012948599178344011
1783169507881228800,7.037228759765625,-0.0022123416420072317,-0.002754777669906616,0.001762678730301559
1783169507891297800,7.0472978515625,0.0009704020922072232,0.0004332922399044037,0.0003136526793241501
1783169507901367800,7.057367919921875,0.0015927491476759315,0.0016785524785518646,0.0017369388369843364
1783169507911436800,7.067436767578125,0.0006081784958951175,0.0007254071533679962,-0.0009022539015859365
1783169507921506800,7.0775068359375,-0.0008224701741710305,-0.000052274204790592194,-0.0024189166724681854
1783169507931575800,7.087575927734375,-0.0006970352260395885,0.000013772398233413696,0.0006868615746498108
1783169507941644800,7.097644775390625,-0.001896872534416616,0.0025863167829811573,0.00031982059590518475
1783169507951714800,7.10771484375,-0.001599663752131164,-0.0012491680681705475,0.0015272977761924267
1783169507961783800,7.11778369140625,-0.0011052223853766918,-0.000629850197583437,-0.003046413417905569
1783169507971853800,7.127853759765625,0.0018615390872582793,0.0016317060217261314,-0.0007632854394614697
1783169507981922800,7.1379228515625,-0.000045509194023907185,-0.0026643164455890656,-0.0012130225077271461
1783169507991991800,7.14799169921875,-0.0009131671395152807,-0.001837938092648983,-0.0005070185288786888
1783169508002061800,7.158061767578125,0.00027404946740716696,-0.0011155460961163044,-0.0008763282094150782
1783169508012130800,7.168130859375,0.0012524948688223958,0.0004290873184800148,0.0011426140554249287
1783169508022200800,7.178200927734375,-0.001194434822537005,0.0008364045061171055,-0.0011659690644592047
1783169508032269800,7.188269775390625,0.001135564874857664,0.0011642393656075,-0.0010698291007429361
1783169508042338800,7.1983388671875,0.00004264793824404478,-0.0004304335452616215,0.0008218723814934492
1783169508052408600,7.20840869140625,0.0009220237261615694,-0.00024001812562346458,-0.0010122463572770357
1783169508062477800,7.218477783203125,0.0013132104650139809,-0.001451246440410614,-0.001373377861455083
1783169508072547800,7.2285478515625,-0.0006972098490223289,-0.000939653255045414,0.00004155957140028477
1783169508082616800,7.238616943359375,0.001098410808481276,-0.00008430471643805504,-0.003917792811989784
1783169508092685800,7.248685791015625,-0.000017986400052905083,-0.003109654877334833,0.00026017450727522373
1783169508102755800,7.258755859375,0.0006646460387855768,-0.00014459248632192612,-0.0010517106857150793
1783169508112824800,7.268824951171875,-0.0011649455409497023,-0.0023006880655884743,-0.0023510667961090803
1783169508122893800,7.278893798828125,0.0016465820372104645,-0.0016650077886879444,-0.0005917726084589958
1783169508132963800,7.2889638671875,-0.0020440267398953438,-0.00009853625670075417,-0.0010032309219241142
1783169508143032800,7.29903271484375,0.0016206485452130437,-0.002375076524913311,-0.001478319987654686
1783169508153102800,7.309102783203125,0.00034925551153719425,0.0008340328931808472,0.00015686103142797947
1783169508163171800,7.319171875,-0.0018502941820770502,-0.0022254707291722298,-0.0006450514774769545
1783169508173240800,7.32924072265625,0.0010677312966436148,-0.00009361095726490021,-0.0007670240011066198
1783169508183310800,7.339310791015625,-0.001157979597337544,0.0007644323632121086,-0.0008905690629035234
1783169508193379800,7.3493798828125,-0.0005252126138657331,0.0013833511620759964,0.00023435009643435478
1783169508203449600,7.35944970703125,-0.0009887248743325472,0.0013290196657180786,-0.002579745603725314
1783169508213518800,7.369518798828125,0.00014658074360340834,0.0009559108875691891,0.0002639777958393097
1783169508223587800,7.379587890625,0.0003839092096313834,-0.0016146926209330559,-0.00018881564028561115
1783169508233657900,7.389657958984375,-0.00009812286589294672,-0.0007270602509379387,0.0012290512677282095
1783169508243726800,7.399726806640625,0.0008859216468408704,-0.0011007501743733883,0.0012847494799643755
1783169508253796900,7.409796875,0.0010262702126055956,0.0010963575914502144,-0.0007435139268636703
1783169508263865600,7.419865478515625,-0.0006749643944203854,-0.0017555593512952328,0.0025763260200619698
1783169508273934800,7.429934814453125,-0.0027282615192234516,0.0021251984871923923,-0.0012293308973312378
1783169508284004900,7.4400048828125,0.0003925270866602659,-0.0020875916816294193,0.0005060981493443251
1783169508294073900,7.450073974609375,0.00044259452261030674,0.0003665117546916008,0.00010209670290350914
1783169508304142600,7.460142578125,0.000788712059147656,0.0018846578896045685,0.0012547941878437996
1783169508314212900,7.470212890625,-0.0011727061355486512,0.0005160593427717686,0.00008779694326221943
1783169508324281900,7.48028173828125,-0.0004934469470754266,-0.0009425445459783077,0.00008206628262996674
1783169508334352000,7.490351806640625,-0.0011619004653766751,0.0003549475222826004,-0.0018159684259444475
1783169508344420900,7.5004208984375,-0.00030311010777950287,-0.0014331205748021603,0.003007388673722744
1783169508354489900,7.51048974609375,-0.002189160790294409,-0.0009825131855905056,0.0006318488158285618
1783169508364560000,7.520559814453125,0.0028082828503102064,-0.00024067191407084465,-0.0024336702190339565
1783169508374628900,7.53062890625,-0.0011478429660201073,0.001705832313746214,0.0008007388096302748
1783169508384699000,7.540698974609375,0.002659390214830637,-0.002007297705858946,-0.0018488855566829443
1783169508394768000,7.550767822265625,0.001380540314130485,0.0012990166433155537,0.0014784678351134062
1783169508404836900,7.5608369140625,0.000059166690334677696,0.000784760806709528,0.0029457123018801212
1783169508414906600,7.57090673828125,0.001401399844326079,-0.0006355033256113529,0.0018490225775167346
1783169508424976000,7.580975830078125,0.0017127564642578363,-0.0006358465179800987,0.0032378830946981907
1783169508435045600,7.591045654296875,-0.0010124563705176115,-0.0031043309718370438,0.0009664730168879032
1783169508445115000,7.601114990234375,0.001713761710561812,0.00034189922735095024,-0.0013941088691353798
1783169508455184000,7.611183837890625,0.0007949711289256811,-0.002269862685352564,0.0027359211817383766
1783169508465254000,7.62125390625,0.002396584488451481,0.0000656438060104847,0.0003955054562538862
1783169508475322600,7.631322509765625,0.0021675527095794678,-0.0009167967364192009,0.000031717587262392044
1783169508485392000,7.641391845703125,0.0013209342723712325,-0.00025615468621253967,0.0004738285206258297
1783169508495461600,7.651461669921875,0.0010391718242317438,0.00008526304736733437,-0.00117972819134593
1783169508505531000,7.66153076171875,-0.0010408142115920782,-0.001357194036245346,0.00024351920001208782
1783169508515601000,7.671600830078125,-0.0006477315910160542,-0.0009795576333999634,0.00016761897131800652
1783169508525670000,7.681669921875,0.0017114426009356976,0.00011580763384699821,-0.002563600428402424
1783169508535738600,7.691738525390625,0.0005726749659515917,-0.00016302522271871567,-0.005199863109737635
1783169508545807600,7.7018076171875,-0.0020812174770981073,-0.0012953951954841614,-0.0012050012592226267
1783169508555876600,7.711876708984375,-0.0004423082573339343,-0.0019401460886001587,-0.0012414862867444754
1783169508565946600,7.721946533203125,0.001116886269301176,0.0004525464028120041,0.0002493984065949917
1783169508576015400,7.732015380859375,0.0003264599945396185,0.0011311196722090244,-0.003711787285283208
1783169508586084600,7.742084716796875,-0.0021633312571793795,-0.0031908932141959667,0.0004932074807584286
1783169508596154400,7.752154296875,-0.0003193584270775318,0.0037003024481236935,-0.001444508321583271
1783169508606223600,7.7622236328125,0.0007985287229530513,0.0018757539801299572,0.0015072713140398264
1783169508616293600,7.772293701171875,0.0006736264331266284,-1.7695128917694092e-7,0.0016875674482434988
1783169508626362600,7.782362548828125,0.0021470088977366686,-0.0004234686493873596,-0.0004214588552713394
1783169508636431400,7.792431396484375,0.0019784308969974518,0.0013099825009703636,-0.0014406507834792137
1783169508646501600,7.802501708984375,0.0010292360093444586,0.0017904979176819324,0.00052248639985919
1783169508656570600,7.812570556640625,0.0012553384294733405,-0.0005751880817115307,-0.0032506801653653383
1783169508666639600,7.8226396484375,-0.000969330663792789,-0.00015374412760138512,-0.0020030117593705654
1783169508676709600,7.832709716796875,-0.001489179558120668,-0.0011798604391515255,0.00028677424415946007
1783169508686778600,7.842778564453125,0.00028213695622980595,0.0030977344140410423,0.0016766597982496023
1783169508696848600,7.8528486328125,0.0007162321708165109,0.0006188643164932728,0.0017669409280642867
1783169508706917600,7.862917724609375,0.00040363683365285397,-0.0010448265820741653,0.001978803426027298
1783169508716986600,7.872986572265625,0.0013999254442751408,-0.0007255133241415024,-0.0003655774053186178
1783169508727056400,7.883056396484375,0.0002842044923454523,0.0006380700506269932,0.002145640552043915
1783169508737125600,7.893125732421875,0.0003260161029174924,-0.00034197280183434486,0.000030824216082692146
1783169508747195400,7.9031953125,0.0005969224730506539,0.0007251077331602573,0.001714210258796811
1783169508757264600,7.9132646484375,0.0003529769601300359,0.0019357805140316486,0.0006209826096892357
1783169508767333600,7.923333740234375,0.0017880700761452317,-0.000375634990632534,0.001097224187105894
1783169508777403600,7.933403564453125,0.001547852880321443,0.0013716649264097214,0.003354785731062293
1783169508787472400,7.943472412109375,-0.00015569140668958426,-0.0010079024359583855,-0.0010507556144148111
1783169508797542700,7.953542724609375,-0.0012899315916001797,-0.00008804630488157272,-0.0011559503618627787
1783169508807611400,7.963611328125,0.0005055823130533099,0.0005464255809783936,-0.0030669744592159986
1783169508817680600,7.9736806640625,0.0019386291969567537,-0.001346016302704811,0.0012489445507526398
1783169508827750400,7.98375048828125,0.000534640159457922,-0.00047037703916430473,-0.00025435187853872776
1783169508837819600,7.993819580078125,0.000031569041311740875,0.00119809340685606,0.0009997307788580656
1783169508847889700,8.0038896484375,0.0002435052301734686,-0.00044193118810653687,-0.002077110344544053
1783169508857958700,8.013958740234376,-0.0012792902998626232,-0.00037055835127830505,0.001219616737216711
1783169508868027400,8.02402734375,-0.000007822643965482712,-0.00020611193031072617,0.00044102873653173447
1783169508878097400,8.034097412109375,-0.001156710321083665,0.0013627558946609497,-0.0011731130070984364
1783169508888166700,8.044166748046875,0.0007978659123182297,-0.00021994346752762794,0.0011771786957979202
1783169508898235600,8.054235595703124,0.000736346875783056,-0.00014351075515151024,-0.0008995542302727699
1783169508908305700,8.0643056640625,0.0006219960632734001,-0.00033950991928577423,-0.002142377197742462
1783169508918374700,8.074374755859376,-0.0013894893927499652,-0.0014484496787190437,0.0006893619429320097
1783169508928444700,8.084444580078125,0.0014706646325066686,0.00038579851388931274,-0.002850231947377324
1783169508938513400,8.094513427734375,0.0019428431987762451,0.0007565105333924294,0.0004132057074457407
1783169508948582700,8.104582763671875,0.0005101382848806679,0.0002156863920390606,0.00014457432553172112
1783169508958652400,8.11465234375,-0.0020371752325445414,0.00036775320768356323,-0.0011358736082911491
1783169508968721700,8.1247216796875,-0.001629832317121327,-0.0004645190201699734,-0.00008658389560878277
1783169508978791400,8.13479150390625,-0.00007561140228062868,0.0006569386459887028,0.0024213148280978203
1783169508988860700,8.144860595703125,-0.002014576457440853,0.0006104125641286373,0.0018996966537088156
1783169508998929400,8.154929443359375,-0.0020366807002574205,-0.00035951053723692894,-0.0003354945220053196
1783169509008999700,8.164999755859375,-0.0011688040103763342,-0.0007508210837841034,0.0009613235015422106
1783169509019068400,8.175068359375,-0.0012833198998123407,0.0014534774236381054,0.00022655725479125977
1783169509029138700,8.185138671875,-0.0007316287374123931,-0.0005569346249103546,0.0018575695576146245
1783169509039207400,8.19520751953125,-0.0011465492425486445,0.0022705430164933205,0.0005150700453668833
1783169509049276700,8.205276611328125,-0.001130824675783515,-0.000056111253798007965,0.0001548202708363533
1783169509059346700,8.2153466796875,0.0004372444818727672,0.0011835903860628605,0.0012869301717728376
1783169509069415700,8.225415771484375,0.0003412434598430991,-0.0005100532434880733,0.000880843959748745
1783169509079484400,8.235484375,0.00015934952534735203,0.0008265869691967964,0.0011895042844116688
1783169509089554400,8.245554443359374,-0.00031768425833433867,-0.0015966244973242283,-0.000285332091152668
1783169509099623700,8.255623779296876,-0.0017307574162259698,0.0016811937093734741,0.002681962214410305
1783169509109693400,8.265693359375,0.00001705298200249672,-0.002743944525718689,-0.0017725329380482435
1783169509119762700,8.2757626953125,0.001020265743136406,-0.0015447232872247696,-0.00037250923924148083
1783169509129831700,8.285831787109375,-0.0006838188273832202,-0.0011148713529109955,-0.0009302273392677307
1783169509139901700,8.295901611328125,-0.0016311052022501826,0.00040179910138249397,-0.000568037386983633
1783169509149970400,8.305970458984374,0.0003628237172961235,-0.0014553540386259556,-0.0012160944752395153
1783169509160040700,8.316040771484374,0.002946622669696808,-0.0006135297007858753,0.001474230783060193
1783169509170109400,8.326109375,-0.0012947277864441276,0.00041195331141352654,-0.0015101979952305555
1783169509180178700,8.3361787109375,-0.001287270919419825,-0.0015001962892711163,-0.00006703101098537445
1783169509190248400,8.34624853515625,-0.000280525884591043,-0.0013849763199687004,-0.0006989496760070324
1783169509200317700,8.356317626953125,0.00022414315026253462,-0.00010000169277191162,-0.0030755549669265747
1783169509210387500,8.366387451171875,0.0006649678689427674,-0.0011108373291790485,-0.0012431566137820482
1783169509220456700,8.376456787109374,0.00015337462536990643,-0.001625893171876669,0.0002609968651086092
1783169509230525400,8.386525390625,-0.00003376742824912071,-0.0006885468028485775,0.0014230289962142706
1783169509240595500,8.396595458984375,-0.00226283329539001,-0.000049653928726911545,0.0021002707071602345
1783169509250664400,8.40666455078125,-0.002499477006494999,0.0005305465310811996,-0.0011341762728989124
1783169509260733700,8.416733642578125,-0.00005549425259232521,-0.00046014972031116486,-0.0004231119528412819
1783169509270803500,8.426803466796875,0.00046648160787299275,-0.004221559036523104,0.00006886757910251617
1783169509280872700,8.436872802734374,-0.0012635078746825457,-0.0005911379121243954,0.0018651696154847741
1783169509290942700,8.446942626953126,0.0034566072281450033,0.0002049701288342476,-0.001050539780408144
1783169509301011500,8.457011474609375,-0.000024676905013620853,-0.00047866348177194595,-0.00034133996814489365
1783169509311080400,8.46708056640625,-0.0024923132732510567,-0.0018753851763904095,-0.0007508667185902596
1783169509321150500,8.477150390625,-0.00041824334766715765,-0.0016703219152987003,0.0022672938648611307
1783169509331219700,8.4872197265625,-0.0008390251314267516,-0.0009139543399214745,0.0018023959128186107
1783169509341289500,8.49728955078125,-0.0007354283006861806,0.0018362915143370628,-0.0010160275269299746
1783169509351358700,8.507358642578126,0.0008374221506528556,0.0010777427814900875,-0.0013987633865326643
1783169509361427500,8.517427490234375,0.001493358751758933,-0.0011388063430786133,0.0008414876647293568
1783169509371497700,8.527497802734375,0.0014522059354931116,0.0007950402796268463,0.00048471870832145214
1783169509381566500,8.53756640625,-0.00118192657828331,-0.0007309508509933949,-0.0008812167216092348
1783169509391636700,8.54763671875,0.0015394461806863546,0.0009965626522898674,-0.0011797095648944378
1783169509401705500,8.55770556640625,-0.0007695143576711416,-0.00038561830297112465,0.0014464333653450012
1783169509411774700,8.567774658203126,0.001681861700490117,-0.000935596413910389,-0.0011924135033041239
1783169509421844500,8.577844482421876,0.0013803918845951557,0.0012444672174751759,-0.0005271558184176683
1783169509431913700,8.587913818359375,-0.003426917362958193,-0.0013269656337797642,0.0006185986567288637
1783169509441983500,8.5979833984375,-0.0003272644244134426,0.0017383331432938576,0.0005136700347065926
1783169509452052500,8.608052490234375,-0.0004055689787492156,0.001007378101348877,-0.0013024122454226017
1783169509462121500,8.61812158203125,-0.0004114279290661216,-0.000009150244295597076,0.0006872352678328753
1783169509472191500,8.62819140625,0.00020259013399481773,0.00029602600261569023,-0.0011229643132537603
1783169509482260500,8.638260498046876,-0.00011299445759505033,0.0007540900260210037,0.00020914897322654724
1783169509492329500,8.64832958984375,-0.001469530281610787,-0.00004957662895321846,-0.0008863310795277357
1783169509502399500,8.6583994140625,0.0013009562389925122,0.000584255438297987,-0.002735364018008113
1783169509512468500,8.668468505859375,-0.0012311069294810295,-0.001203410793095827,0.0027693831361830235
1783169509522538800,8.678538818359375,-0.0006963443011045456,-0.0009269746951758862,0.00018132315017282963
1783169509532607500,8.688607421875,-0.0011685576755553484,0.00016928184777498245,-0.001133013516664505
1783169509542676000,8.698676025390625,-0.0012202230282127857,0.00038499804213643074,0.0017985943704843521
1783169509552746000,8.70874609375,-0.0012943223118782043,-0.0015456276014447212,0.00007389509119093418
1783169509562815000,8.71881494140625,0.0011738953180611134,0.00038676243275403976,-0.0018752727191895247
1783169509572885000,8.728885009765625,0.0016366527415812016,-0.0010771495290100574,0.0013570897281169891
1783169509582954200,8.738954345703124,-0.0007434142753481865,0.00023339176550507545,0.002891603158786893
1783169509593023000,8.74902294921875,0.0009560971520841122,-0.00023329490795731544,0.0022568576969206333
1783169509603093200,8.75909326171875,0.0015161599731072783,-0.0022919182665646076,-0.00024278531782329082
1783169509613162000,8.769161865234375,-0.001138758030720055,0.0016964757815003395,0.0010865423828363419
1783169509623232000,8.77923193359375,-0.00041890551801770926,0.002034164499491453,-0.0020155077800154686
1783169509633301000,8.789301025390625,-0.0020833867602050304,-0.0007643825374543667,-0.000371705275028944
1783169509643370200,8.799370361328124,0.0015526269562542439,-0.0010477430187165737,0.00016385642811655998
1783169509653440000,8.80943994140625,0.0011075849179178476,-0.000320283230394125,-0.0009670162107795477
1783169509663509200,8.81950927734375,-0.0011531724594533443,-0.0018529328517615795,-0.0001164022833108902
1783169509673578000,8.829577880859375,-0.00029710237868130207,0.0008398531936109066,0.0018311621388420463
1783169509683648000,8.83964794921875,-0.000794048304669559,-0.0009543183259665966,0.000235662329941988
1783169509693717000,8.849717041015625,-0.0007740006549283862,-0.0014359820634126663,-0.00011395220644772053
1783169509703787000,8.859787109375,0.0022758515551686287,0.002457825932651758,-0.0042160190641880035
1783169509713856000,8.86985595703125,-0.00006118544843047857,-0.0018763337284326553,0.0012179533950984478
1783169509723925000,8.879925048828126,-0.00031924573704600334,-0.0010875053703784943,0.0006999685429036617
1783169509733995000,8.8899951171875,-0.0004239111440256238,0.0002827094867825508,0.0007864874787628651
1783169509744064000,8.90006396484375,0.0009966189973056316,-0.0017341026104986668,-0.00009102420881390572
1783169509754134300,8.91013427734375,0.0013662681449204683,-0.00008970685303211212,-0.0004967693239450455
1783169509764203000,8.920203125,-0.0009829062037169933,0.00022960593923926353,0.0014649152290076017
1783169509774272000,8.93027197265625,0.0018263813108205795,-0.0012288191355764866,-0.00010855845175683498
1783169509784342000,8.940342041015626,-0.0008863144321367145,0.0013581751845777035,-0.0034257916267961264
1783169509794411000,8.950410888671875,0.0005604803445748985,-0.0023564263246953487,0.0012596470769494772
1783169509804481000,8.96048095703125,0.0001434293808415532,-0.0022006318904459476,0.0002513742074370384
1783169509814550300,8.97055029296875,-0.0012450391659513116,-0.0011198963038623333,0.0003620111383497715
1783169509824619000,8.980618896484375,0.0013347648782655597,0.0023296959698200226,-0.00044972007162868977
1783169509834689000,8.99068896484375,-0.00021979992743581533,0.007981752045452595,0.0053253453224897385
1783169509844758000,9.000758056640626,-0.0001646724995225668,-0.012344026006758213,-0.0018502757884562016
1783169509854827300,9.0108271484375,-0.002386969979852438,0.0013363719917833805,-0.00020046555437147617
1783169509864897000,9.02089697265625,0.0000056138960644602776,0.004110586829483509,0.002813966479152441
1783169509874966300,9.03096630859375,0.00034131400752812624,0.0033936556428670883,-0.0021605133078992367
1783169509885036000,9.0410361328125,0.0006180164637044072,-0.0032549258321523666,0.0002126297913491726
1783169509895105000,9.05110498046875,0.0002244854113087058,-0.008156601339578629,-0.000028713839128613472
1783169509905174000,9.061174072265626,0.0019363653846085072,0.00615842267870903,-0.00026919739320874214
1783169509915244000,9.071244140625,0.0018106731586158276,0.0036999275907874107,0.0035864266101270914
1783169509925313000,9.08131298828125,0.0008511361666023731,-0.00006418442353606224,-0.0003963308408856392
1783169509935383000,9.091383056640625,0.001229219837114215,-0.005352961830794811,-0.0022192515898495913
1783169509945452000,9.1014521484375,-0.0010967851849272847,-0.00018855929374694824,-0.0010322809685021639
1783169509955521000,9.11152099609375,-0.0020046448335051537,0.005294757895171642,0.0011324132792651653
1783169509965591000,9.121591064453124,0.0004558494547381997,0.00023475196212530136,0.0008972561918199062
1783169509975660000,9.131659912109376,-0.0011823800159618258,-0.0010576704517006874,-0.003186215413734317
1783169509985730000,9.14172998046875,0.0008706509252078831,-0.0015961620956659317,-0.00046766060404479504
1783169509995799000,9.151799072265625,-0.0018753050826489925,0.002144499681890011,0.0027161857578903437
1783169510005868000,9.161867919921875,0.0018528541550040245,0.0017226552590727806,-0.0005997160915285349
1783169510015938000,9.17193798828125,-0.0020937486551702023,0.000728110782802105,-0.0018455430399626493
1783169510026007300,9.18200732421875,-0.00045590451918542385,-0.0011265147477388382,-0.001690813573077321
1783169510036076000,9.192075927734376,-0.0015640925848856568,-0.0006687194108963013,0.0016162451356649399
1783169510046146000,9.20214599609375,-0.0027025938034057617,0.0024280045181512833,-0.0005110877100378275
1783169510056215000,9.212215087890625,0.0006012405501678586,0.0017574150115251541,-0.0021487341728061438
1783169510066285000,9.22228515625,0.0001684768358245492,-0.0004708515480160713,-0.0012366014998406172
1783169510076354000,9.23235400390625,0.00024214433506131172,-0.0009471634402871132,0.0012476348783820868
1783169510086423000,9.242423095703124,-0.001089436118490994,0.0013780421577394009,-0.0004187047015875578
1783169510096493000,9.2524931640625,-0.001504302490502596,-0.00017043203115463257,-0.00013292068615555763
1783169510106562000,9.26256201171875,0.000039265723899006844,-0.001159530133008957,-0.0020104493014514446
1783169510116632000,9.272632080078125,-0.0010280197020620108,-0.00015100091695785522,-0.0009741454850882292
1783169510126701000,9.282701171875,-0.0004242811119183898,0.0018871165812015533,-0.00036374921910464764
1783169510136770000,9.29277001953125,-0.004403791390359402,0.001654209103435278,-0.00024967663921415806
1783169510146840000,9.302840087890624,-0.001084161107428372,-0.0016537029296159744,0.00020838715136051178
1783169510156909000,9.312908935546876,0.0012478334829211235,-0.0019379872828722,-0.0009002659935504198
1783169510166979000,9.32297900390625,-0.0006613866426050663,-0.0012466302141547203,0.0009820563718676567
1783169510177048000,9.333048095703125,0.00026236078701913357,0.0027085402980446815,0.000762884272262454
1783169510187117000,9.343116943359375,-0.0005046295700594783,-0.0004933783784508705,0.00159645383246243
1783169510197187000,9.35318701171875,0.0017710443353280425,-0.0007849773392081261,0.0005221690516918898
1783169510207256000,9.363256103515624,-0.001479876460507512,-0.0012371819466352463,0.0007874199654906988
1783169510217326000,9.373326171875,0.0007340635638684034,0.0003112996928393841,-0.002948842942714691
1783169510227395000,9.38339501953125,0.0010192880872637033,0.0014721713960170746,0.0007257869001477957
1783169510237464000,9.393464111328125,-0.0009161233901977539,0.0005066529847681522,-0.0018109632655978203
1783169510247534000,9.4035341796875,-0.00011104985605925322,0.00022169481962919235,0.0018839063122868538
1783169510257603000,9.41360302734375,0.001541248755529523,-0.0016965921968221664,0.0015682254452258348
1783169510267672000,9.423672119140624,-0.0009623889345675707,0.030385442078113556,0.02337685041129589
1783169510277742000,9.4337421875,-0.0014872386818751693,-0.0012261411175131798,0.0026525161229074
1783169510287811000,9.44381103515625,-0.001998299267143011,-0.0008295970037579536,0.000025041401386260986
1783169510297881000,9.453881103515625,-0.0006470440421253443,0.005252278409898281,0.0000936856959015131
1783169510307950000,9.4639501953125,0.0030062803998589516,0.0032248138450086117,-0.002313279313966632
1783169510318019000,9.47401904296875,-0.00003843707963824272,-0.006474963389337063,-0.004191373474895954
1783169510328089000,9.484089111328124,0.0006041837041266263,-0.0002085454761981964,0.0001354641281068325
1783169510338158000,9.494157958984376,-0.00029227440245449543,-0.0034890295937657356,-0.0006506023928523064
1783169510348228000,9.50422802734375,0.0013016274897381663,0.002512936946004629,0.0018453120719641447
