time,seconds_elapsed,z,y,x
1783169567224711700,0.072711669921875,-0.008602993172407149,0.022900371194677426,0.0036644681911449876
1783169567234780700,0.08278076171875,0.15525135198831558,0.02003064727752935,0.015414849161321763
1783169567244850700,0.0928505859375,0.043024318212270735,0.018199061635928226,0.020156340033409652
1783169567254919700,0.102919677734375,-0.16631927396953106,0.008350662379153072,0.015519631559913977
1783169567264988700,0.11298876953125,-0.06860533419251441,0.010716889186995104,-0.006252571288472972
1783169567275058700,0.12305859375,0.073102645611763,-0.018150902512110767,-0.008957707769545959
1783169567285127700,0.133127685546875,0.08986205723285674,-0.006350314308214001,0.007700713995372643
1783169567295196700,0.14319677734375,-0.09763444480001926,0.010538336016004905,0.01972852937566349
1783169567305265700,0.153265625,-0.11274842730164528,0.03237316947155632,0.0113405820348009
1783169567315335700,0.163335693359375,0.055444823846220966,0.020290133897354824,0.011407840868021595
1783169567325404700,0.17340478515625,0.09883972893655299,0.013875147721939719,0.0076529201977362385
1783169567335473700,0.1834736328125,-0.041370705786347384,0.00268361306078732,0.016080419805919517
1783169567345543700,0.193543701171875,-0.0844651666253805,0.012765944371023215,0.008001017824420704
1783169567355612700,0.20361279296875,0.0062158057749271385,0.02248610957167111,0.005962629023235058
1783169567365681700,0.213681640625,0.06637012248635292,0.014361821560608222,0.00417268371640821
1783169567375751700,0.223751708984375,-0.002762450450658798,0.009374982191901653,-0.0032853075642720795
1783169567385820700,0.233820556640625,-0.06112111591696739,0.03364807107846718,-0.009045367786689894
1783169567395889700,0.2438896484375,-0.03268997120261192,0.02568964115360286,0.001493266198481433
1783169567405959700,0.253959716796875,0.018186814075708387,0.01257940425639972,-0.02012823503364343
1783169567416028700,0.264028564453125,-0.006204699859023094,-0.0024123127055820075,0.0014591367416607682
1783169567426097700,0.27409765625,-0.04151917434632778,0.006130634542391635,0.0119124990295968
1783169567436167700,0.284167724609375,-0.035083588340878484,0.006029704051720909,0.012690759101317962
1783169567446236700,0.294236572265625,0.028812837508320806,0.022959453571308405,0.017167294877307723
1783169567456305700,0.3043056640625,0.03075812635719776,0.011813575549633241,0.02879598227164242
1783169567466376000,0.3143759765625,-0.02894727754294872,-0.002741302631353028,0.03678016312569379
1783169567476444700,0.324444580078125,-0.04436111977398395,0.005971197063825093,0.018510558145848333
1783169567486513700,0.334513671875,-0.013235913670063017,0.012799106855108402,0.00551115436211112
1783169567496582700,0.344582763671875,0.00651683454811573,0.009589867051597685,0.0069207072078483175
1783169567506653000,0.35465283203125,-0.012038812839984894,0.01637531680748798,-0.0024870527340041006
1783169567516721700,0.3647216796875,-0.035681554234027864,0.012751943245134316,-0.0081952343554236
1783169567526790700,0.374790771484375,-0.0069505497902631755,0.013184092151280491,0.0026723553061892744
1783169567536860700,0.384860595703125,-0.0014116203635931015,0.020047534480248576,0.017743760183057747
1783169567546930000,0.394929931640625,-0.009192775759100914,0.03244630777300335,-0.008802762661362066
1783169567556998700,0.40499853515625,-0.026701544442772864,0.01470633328249678,0.007722995467483997
1783169567567069000,0.41506884765625,-0.022661329141259193,0.01050570782145951,0.012785254142980556
1783169567577137700,0.4251376953125,0.003226560831069946,0.012690486248326487,0.005650374461489264
1783169567587206700,0.43520654296875,-0.009791910696029662,0.009780681482539511,0.0015845520779723301
1783169567597276700,0.445276611328125,-0.038971243429183955,0.021178725900687277,0.006006721609999658
1783169567607345700,0.455345703125,-0.0067991586208343505,0.02464002250281628,0.01378657667263178
1783169567617414400,0.465414306640625,-0.004704816690087319,0.021442212842195295,0.0009157825460017193
1783169567627484700,0.475484619140625,0.00008417115211486816,0.01958690839828923,-0.006898912076215492
1783169567637553700,0.4855537109375,-0.023109657430648804,0.00853933508535847,-0.022133734203735364
1783169567647622700,0.49562255859375,-0.01802197890281677,-0.0035373894790653136,-0.010239751503296429
1783169567657691400,0.50569140625,-0.004704232168197631,0.009102640657080337,-0.0007758032531535718
1783169567667761700,0.51576171875,-0.017273790884017943,0.013178251498960888,0.01186000279902364
1783169567677830700,0.52583056640625,-0.012334580916166306,0.007204871611203998,0.014333984847256214
1783169567687899600,0.535899658203125,-0.011435586249828338,0.018996586955478414,0.010697201530769234
1783169567697969700,0.5459697265625,-0.012633271601796149,-0.008022293507889845,0.012882758559059584
1783169567708038700,0.55603857421875,0.004424830704927444,0.017992241351678966,0.00420294642393128
1783169567718107600,0.566107666015625,-0.006048047992587089,0.006718617897643707,-0.007272750357288168
1783169567728177700,0.576177734375,-0.023555647632479665,0.002878647009120323,-0.015877836163726167
1783169567738246700,0.58624658203125,0.007269698742032051,0.02095842964693438,-0.0026886842448380775
1783169567748315600,0.596315673828125,-0.015474632507562636,0.029826097070937974,-0.00665998076229589
1783169567758385700,0.6063857421875,-0.021310499054193497,0.01581279668705538,0.0032741936568578237
1783169567768454700,0.61645458984375,-0.015175357300043105,0.019971026044781317,0.01556159269674099
1783169567778523600,0.626523681640625,-0.03073766809105873,0.019814876501844263,0.010885085360752418
1783169567788593400,0.636593505859375,-0.025051439148187638,0.012219009978789835,0.0017326724364364052
1783169567798662700,0.64666259765625,-0.01741992135643959,0.01718495268994011,0.013606803083867998
1783169567808731600,0.656731689453125,-0.022954759129881857,0.0028975663387216626,0.011389437561650992
1783169567818800600,0.666800537109375,-0.01457388427555561,0.020400170143088325,0.0061997416977596
1783169567828870700,0.67687060546875,-0.015472878941893576,0.0111554221681552,0.006908997362101217
1783169567838939600,0.686939697265625,-0.003801730370521545,-0.0031830870155245064,0.021716591070475987
1783169567849008600,0.697008544921875,-0.025648820519447325,0.006230930278822779,-0.0071908145447436254
1783169567859078700,0.70707861328125,-0.015772738671302796,0.021423608606425112,0.010144379678799305
1783169567869147600,0.717147705078125,-0.001855272477865219,0.0016869530065217987,0.014435888018883996
1783169567879216600,0.727216552734375,-0.015770985105633736,0.019341765397647395,-0.007505375228007324
1783169567889286400,0.737286376953125,-0.0015559972703456878,0.023484559724223798,-0.018929191124939824
1783169567899355600,0.747355712890625,-0.014575053319334983,0.024861670463439074,0.00901783703401452
1783169567909424600,0.757424560546875,0.0018844985723495483,0.008919146449491381,-0.0015403989840589928
1783169567919494700,0.76749462890625,-0.007093173131346702,0.019790801506512797,-0.011346374738059238
1783169567929563600,0.777563720703125,-0.009037877458333968,0.00476888120251242,0.018102330113050992
1783169567939632600,0.787632568359375,-0.019811200407147407,0.014868200180167332,-0.0034122789617860687
1783169567949702400,0.797702392578125,-0.016220482438802718,0.028392968128435312,0.006708637643035035
1783169567959771600,0.807771728515625,-0.01861468409895897,0.01780511214858852,-0.0060680849919735914
1783169567969840600,0.817840576171875,-0.003353402081131935,0.01864349920148961,0.006697151559573831
1783169567979910700,0.82791064453125,-0.012481880432367323,0.0342448907607235,-0.006452417267597047
1783169567989979400,0.8379794921875,-0.013829203388094902,0.015796777134016154,-0.009095309017284307
1783169568000048600,0.848048583984375,-0.0234060100287199,0.013081549658835864,0.004844162370340199
1783169568010117600,0.85811767578125,-0.013230652973055838,0.025713597417925484,0.011729839364002691
1783169568020187600,0.868187744140625,0.00502455016374588,0.012618553523276932,0.016483441940636837
1783169568030256400,0.87825634765625,-0.0054500820994377135,0.005661546592763625,0.01247045371441054
1783169568040325600,0.88832568359375,0.0003857844471931457,0.020061535606137475,0.01369980827969848
1783169568050395400,0.8983955078125,-0.017570143482089042,0.006756114063551649,0.018393732541368807
1783169568060464600,0.908464599609375,-0.012783493727445602,-0.01037550100395456,0.01911186334862141
1783169568070533600,0.91853369140625,-0.007397124513983726,0.013292639692826196,0.0022662941143033093
1783169568080603600,0.928603759765625,0.0006833060890436172,0.01989326636714395,0.0017062776198552454
1783169568090672400,0.93867236328125,-0.01173661502301693,0.014351231667934916,0.0004899081170151475
1783169568100741600,0.94874169921875,-0.007547346639633178,0.019407414512382818,0.024628583226772024
1783169568110811600,0.958811767578125,-0.009940963777899742,0.009254529583430848,0.0038590409151744096
1783169568120880600,0.968880615234375,-0.016973931154608726,0.01117812262373045,-0.008025680766574806
1783169568130949400,0.978949462890625,-0.022510522493720053,0.017705378101160747,0.0012551328939385711
1783169568141019600,0.98901953125,-0.029394436788558957,0.011770092600933275,0.00045850947339786215
1783169568151088400,0.99908837890625,-0.014580898538231848,-0.00014028068694751708,0.0112281460527156
1783169568161157600,1.00915771484375,-0.00724924047589302,0.005607953242002986,-0.0067949881941487544
1783169568171226600,1.0192265625,-0.015029811349511146,0.0058654899333370845,0.0034332349848467856
1783169568181296600,1.029296630859375,-0.012636194211244582,0.023733442751644178,0.0016123374173301272
1783169568191365400,1.039365478515625,-0.016975684720277787,0.009522190376557408,0.011559097323421155
1783169568201434600,1.0494345703125,-0.008595978909730911,0.0237478503029095,0.01431977594210184
1783169568211504600,1.059504638671875,-0.004704816690087319,0.013366129620722493,0.01179940660202992
1783169568221573600,1.06957373046875,-0.011887421670556068,0.0037901084313867613,0.00785377424879116
1783169568231642400,1.079642333984375,-0.007847790890932082,0.005366769463848322,0.0003585779215034563
1783169568241712600,1.089712646484375,-0.002909749966859817,0.02133214006384369,-0.006201699617761187
1783169568251781600,1.09978173828125,-0.02356032380759716,0.007132445695810019,0.006938548825215548
1783169568261850600,1.1098505859375,-0.006651859104633331,0.018895039976877158,0.023511650943837593
1783169568271920600,1.119920654296875,-0.015329671078920363,0.016542462668474762,0.017063984058238564
1783169568281989600,1.12998974609375,0.00008417115211486816,0.009087077761767431,0.013002610662620281
1783169568292058600,1.14005859375,0.001281271982192993,0.013426280576433055,0.00025056010292028074
1783169568302128600,1.150128662109375,-0.00590074847638607,0.027026753242569975,-0.00961876549416338
1783169568312197600,1.16019775390625,-0.006648936495184898,0.014574930021748877,-0.011090875881828832
1783169568322266600,1.1702666015625,-0.005750526350736617,0.008544216756452805,-0.005709033288079081
1783169568332335600,1.180335693359375,-0.016674071425199506,0.003006798866856843,0.002992859389760997
1783169568342405600,1.190405517578125,-0.007845452803373336,0.005651148496335372,0.00420935789840878
1783169568352474600,1.200474609375,-0.01682370902895927,0.009813780034543014,-0.004383610495261382
1783169568362543600,1.210543701171875,-0.02864507972598076,0.008445144862728193,-0.0010534385926672257
1783169568372613600,1.220613525390625,-0.005451835665106773,0.009263174114190042,0.004818858965724939
1783169568382682600,1.2306826171875,-0.0030582185268402096,0.01968978425087407,0.002840534355281852
1783169568392751600,1.240751708984375,-0.019368717336654663,0.02250315660459455,0.005640802915545646
1783169568402821600,1.250821533203125,-0.011588146463036537,0.013505492425640113,0.0027001737532322293
1783169568412890600,1.260890625,0.0042740240573883054,0.015116941643692552,0.010644357098679755
1783169568422959600,1.270959716796875,-0.007846621847152709,0.004480186754511669,0.01708517411838402
1783169568433029600,1.281029541015625,-0.018470891714096067,0.007387233307631686,-0.004801279926550341
1783169568443098600,1.2910986328125,-0.010390461111068726,0.006220395185076631,0.014221724678395548
1783169568453167600,1.301167724609375,-0.012036474752426148,0.005908315294911154,-0.0007731717630056664
1783169568463236600,1.311236572265625,-0.010541267758607864,0.00937530641888734,-0.007350640182377537
1783169568473306600,1.321306640625,-0.016825462594628332,0.004940726071503013,-0.005682283420115709
1783169568483375600,1.331375732421875,-0.012935469418764113,0.013263783491100184,-0.0003864865584473591
1783169568493444600,1.341444580078125,-0.0014133739292621612,0.017513362660398706,-0.008587243047426455
1783169568503514600,1.3515146484375,-0.008894669595360755,0.0013045706593897194,-0.004763066808012081
1783169568513583600,1.36158349609375,-0.017124153280258177,0.004947534838202409,0.021350319607928395
1783169568523652600,1.371652587890625,-0.007099018350243568,0.012712122691399418,0.004701567570364568
1783169568533722600,1.38172265625,-0.012934884896874428,0.006970081041217781,-0.007099599447200307
1783169568543791600,1.39179150390625,-0.0003653261810541153,0.014021821617055683,0.003993437567318324
1783169568553860600,1.401860595703125,-0.004405541482567787,0.02109344963687472,0.010644845722446917
1783169568563930600,1.4119306640625,-0.011287702211737633,0.004018551458977162,0.008008572084858315
1783169568573999600,1.42199951171875,-0.015028642305731773,0.018817718690657056,-0.0023557156886265147
1783169568584068600,1.432068603515625,-0.024455226820707318,0.022333942084107546,-0.0021628794056014157
1783169568594138600,1.442138671875,-0.015327917513251304,0.022446202252968214,-0.0013750808956217951
1783169568604207600,1.45220751953125,-0.0084440032184124,0.022335882879444397,0.006292035649181343
1783169568614276600,1.462276611328125,-0.010538929671049118,0.020698253473942167,0.0006200361610623076
1783169568624345600,1.472345703125,-0.010390461111068726,0.007791781820799224,0.02041984524122672
1783169568634415600,1.48241552734375,0.003824526724219322,0.006074296678695828,0.027530451281275597
1783169568644484600,1.492484619140625,0.0038239422023296356,-0.009686970750521868,0.016562564741587266
1783169568654553600,1.5025537109375,-0.01533025560081005,0.014413496948918327,0.013470214474637759
1783169568664623600,1.51262353515625,-0.007848959934711457,0.014019684458896517,0.010153606448159552
1783169568674692600,1.522692626953125,0.005468202278017998,0.009032146403868683,0.0037910662709677123
1783169568684761600,1.53276171875,-0.007850713500380515,0.02364334874881897,0.01121672390133608
1783169568694831600,1.54283154296875,-0.0014174655824899672,0.008650270946812815,0.006406316528480965
1783169568704900600,1.552900634765625,-0.009648118311166763,0.008952605761098674,-0.0069297969798906706
1783169568714969600,1.562969482421875,-0.00037000235617160797,0.012008216772321612,-0.0070189925086393485
1783169568725039400,1.573039306640625,-0.016231588354706762,0.009928876047884113,0.00837189810507116
1783169568735108600,1.583108642578125,-0.01712941397726536,0.03819821779665071,-0.0036727576705219687
1783169568745177600,1.593177490234375,-0.00021978023052215574,0.015488829996273852,0.002031207858439302
1783169568755247600,1.60324755859375,-0.003063479223847389,0.02533404178211931,0.023006151390401644
1783169568765316600,1.613316650390625,-0.012640285864472389,0.014377384455921127,0.0202450709129218
1783169568775385600,1.623385498046875,-0.016830138769745824,0.0030986144693102686,0.011676861359528265
1783169568785454600,1.63345458984375,-0.030597967359423637,0.009990095582674257,0.006711425538454204
1783169568795524600,1.643524658203125,-0.013539280530810355,0.010633270590729079,0.015416050171141978
1783169568805593600,1.653593505859375,-0.029100422278046607,0.019983739395882,0.002622833059058757
1783169568815662600,1.66366259765625,-0.04077273989319801,0.010759111760370433,0.0064560728126962195
1783169568825732600,1.673732666015625,-0.029697803649306295,0.012145410453039221,0.005380018246133113
1783169568835801600,1.683801513671875,-0.010393968242406845,0.013458593677147291,0.010285653596301562
1783169568845870600,1.69387060546875,-0.010692074406147003,0.009176331514376215,0.012490777266520307
1783169568855940600,1.703940673828125,-0.009793664261698722,0.014340144018339924,0.0047208408097038045
1783169568866009600,1.714009521484375,-0.0006657704323530197,0.015225219757179729,-0.008871698570082662
1783169568876078600,1.72407861328125,-0.0066512745827436446,0.013241576225869358,-0.0073257523362932255
1783169568886148600,1.734148681640625,-0.020867431461811064,0.01404996543272864,0.00885962568144314
1783169568896217600,1.744217529296875,-0.02655482944846153,0.005039980628318153,0.010435399656271329
1783169568906286600,1.75428662109375,-0.024459902995824814,-0.0011071255582617596,-0.005606735107518033
1783169568916355600,1.76435546875,-0.008747954601049423,0.0044344844492617995,-0.008347770594101167
1783169568926425600,1.774425537109375,0.004271101447939872,0.0071407888324698425,-0.002782783135923091
1783169568936494600,1.78449462890625,-0.006502806022763252,0.015824144631554373,0.01360874616249348
1783169568946563600,1.7945634765625,-0.01817453911602497,0.01300934293915052,-0.003292827575380215
1783169568956633600,1.804633544921875,-0.023709961411356926,-0.001795121522154659,-0.007978271703072823
1783169568966702600,1.81470263671875,-0.022362638455629347,0.011805821501440368,-0.001169292657834012
1783169568976771600,1.824771484375,-0.013383213186264037,0.02318538954798132,0.01395706526817521
1783169568986841600,1.834841552734375,-0.0271487036883831,0.028034035155549645,0.018248773396015164
1783169568996910600,1.84491064453125,-0.014130232161283493,0.002988422959949821,0.005385652260831557
1783169569006979600,1.8549794921875,-0.011287702211737633,0.004094621503027156,0.006422108894301345
1783169569017049600,1.865049560546875,0.0009819967746734618,0.004876405830751173,-0.006205947676260257
1783169569027118600,1.87511865234375,-0.014879589223861693,0.008512648007832467,-0.0006595107965695206
1783169569037187600,1.8851875,-0.005603226834535599,0.0012668187651550397,0.01631123745368677
1783169569047257600,1.895257568359375,-0.0018622867405414581,0.009832201607222668,0.0050332620515197045
1783169569057326600,1.90532666015625,-0.01009177042543888,0.012999095539771952,0.0012193046703760045
1783169569067395600,1.9153955078125,-0.0027589433193206787,0.01609823059889022,0.009671416988363489
1783169569077464600,1.925464599609375,-0.007846037325263023,0.018914826956158502,0.0034187977508292533
1783169569087534600,1.93553466796875,-0.029692542952299117,0.02591366830097977,-0.002111077294772258
1783169569097603600,1.945603515625,-0.026698037311434743,-0.0009003829058259725,-0.0031012608008342793
1783169569107672600,1.955672607421875,-0.011284195080399512,0.02020789440742228,0.000048672863759566094
1783169569117742600,1.96574267578125,-0.006195932030677795,0.0032110938338795673,-0.0004828264973242767
1783169569127811600,1.9758115234375,-0.003951367974281311,0.0012747326435521243,-0.010215146785002434
1783169569137880600,1.985880615234375,-0.008441080608963966,0.02417600802052766,0.008736832702124957
1783169569147950600,1.99595068359375,-0.008441665130853652,0.026565921664633788,0.0033770809258858205
1783169569158019600,2.00601953125,-0.013529343658685683,0.013708810145128517,-0.003058239076437894
1783169569168088600,2.016088623046875,0.00682137045264244,0.013007141848909668,0.00870652547047357
1783169569178158600,2.02615869140625,-0.009938041168451308,0.021615829543164,0.0011463296240661293
1783169569188227600,2.0362275390625,-0.014575637841224669,0.01636286831786856,0.008608352050825488
1783169569198296600,2.046296630859375,-0.02220832467675209,0.005522708944231272,0.00577364693142008
1783169569208365600,2.056365478515625,-0.018168693897128104,0.0004918158046668395,-0.0025951185016485395
1783169569218435600,2.066435546875,-0.006496960803866386,0.014263772580190561,0.0033562550502771044
1783169569228504600,2.076504638671875,-0.005898410388827323,0.0018838638181099667,0.014072541449073469
1783169569238573600,2.086573486328125,-0.012483049476146698,0.00790384106026031,0.00433816391833825
1783169569248643600,2.0966435546875,-0.011136311042308807,0.02193560868259519,0.013088643836614209
1783169569258712600,2.106712646484375,-0.018767244312167166,0.03188619880536571,-0.01813968357341946
1783169569268781600,2.116781494140625,-0.009189853149652481,0.003419685950106941,0.0006370135536824819
1783169569278851600,2.1268515625,-0.013529343658685683,0.013603719502571039,0.0018013720247836316
1783169569288920600,2.136920654296875,-0.02355506311058998,0.017781799771660008,-0.007582174782775109
1783169569298989600,2.146989501953125,-0.02235854680240154,0.013374221595632842,0.005105883188091684
1783169569309059600,2.1570595703125,-0.013978840991854667,0.0034511633671820163,-0.0025496102759323546
1783169569319128600,2.167128662109375,-0.005299275451898574,0.013375806197943166,-0.0022116493091278245
1783169569329197600,2.177197509765625,-0.007543839508295059,0.008743269292777404,0.0024841084333136676
1783169569339267600,2.187267578125,-0.009039631024003028,0.01687831615987234,-0.00844122331450344
1783169569349336600,2.197336669921875,-0.007542670464515686,0.01178295208250638,0.00988472752054804
1783169569359405600,2.207405517578125,-0.004699555993080139,0.010909630713541991,-0.007330812103900825
1783169569369474600,2.217474609375,-0.014725275444984436,0.017465833724243564,-0.009656864448270061
1783169569379544600,2.227544677734375,-0.030287001714110372,0.0013596572809154166,0.004911554775945842
1783169569389613600,2.237613525390625,-0.005146715238690376,0.0037618824173230674,0.00396269536918262
1783169569399682600,2.2476826171875,-0.004548164823651313,0.013343301300983875,0.019450598350272047
1783169569409752600,2.257752685546875,-0.013076923716068268,0.008891157897445373,-0.002651085330941714
1783169569419821600,2.267821533203125,-0.02055821938216686,0.014997461716178804,-0.0021452341510565017
1783169569429890600,2.277890625,-0.00978372738957405,0.0060322248023701825,0.01304382630570908
1783169569439960600,2.287960693359375,-0.00978372738957405,0.02285330804940313,0.001820617864659289
1783169569450029600,2.298029541015625,-0.03193067726790905,0.027543922684201968,0.000634184559067944
1783169569460098600,2.3080986328125,-0.006195347508788108,0.008988919183495455,-0.0013825095751846673
1783169569470168600,2.31816845703125,-0.019813538494706153,-0.0015322510685771703,0.0005675776047515683
1783169569480237600,2.328237548828125,-0.011883330017328261,0.002341663188743405,0.00993815761617152
1783169569490306600,2.338306640625,-0.007843699237704277,0.017202661876566706,-0.011525058056501438
1783169569500375600,2.34837548828125,-0.020413842475414275,0.026843843556870705,-0.007821897256205556
1783169569510445600,2.358445556640625,-0.021909633991122245,0.021859196145250462,0.0007965549218817613
1783169569520514600,2.3685146484375,-0.007841945672035217,0.02042411270767916,-0.0026553961798781527
1783169569530583600,2.37858349609375,-0.0055979661375284194,0.011111665224819444,0.011507267813128419
1783169569540653800,2.38865380859375,-0.007993336841464043,0.015946917061274872,-0.004234531155572039
1783169569550722600,2.39872265625,-0.01562485463321209,0.010835802858928217,-0.003774466762616066
1783169569560791600,2.40879150390625,-0.02011339822411537,0.010180896313884295,-0.00515710762689705
1783169569570861600,2.418861572265625,-0.010984919872879981,0.012037232804251834,0.002419192254228983
1783169569580930800,2.428930908203125,-0.012929039677977561,0.015191326620732434,0.008096038022468565
1783169569590999600,2.43899951171875,-0.020410335344076155,0.02460820715902373,0.013872754835453815
1783169569601069600,2.449069580078125,-0.014722937357425688,0.02149456408394035,0.001109090328129241
1783169569611138000,2.459137939453125,-0.0029021511822938917,0.019631733920704574,0.0028965297256829214
1783169569621207000,2.46920703125,0.003829787421226501,0.01356624160297215,0.007917301046743522
1783169569631275800,2.47927587890625,-0.004400280785560607,0.020163251548097467,0.0023867067652230617
1783169569641346000,2.489345947265625,-0.015922960796952247,0.023396995605202392,-0.01018173085587914
1783169569651415000,2.4994150390625,-0.01502396613061428,0.016241292331391013,0.005612132801843108
1783169569661484000,2.509484130859375,-0.0026034604966640473,0.014373393267393111,0.013258506811072584
1783169569671554000,2.519553955078125,-0.021158523362874982,0.02355496264589019,0.011012428934313357
1783169569681623000,2.529623046875,-0.011432079118490219,0.006203571914439089,0.0091923990164767
1783169569691692000,2.539692138671875,-0.007093757653236389,-0.014642305302689783,0.006338505139411426
1783169569701762000,2.549761962890625,-0.00784311471581459,0.005874102498055435,0.007846867300680606
1783169569711831000,2.5598310546875,-0.006048047992587089,0.03491765718944371,0.007520124130923068
1783169569721900000,2.569900146484375,-0.029840426990389822,0.003932603908306919,0.008225136303342878
1783169569731970000,2.579969970703125,-0.013229483929276465,0.032861642541666514,-0.0108443743244512
1783169569742039000,2.5900390625,-0.01741816779077053,0.016444103160803206,0.004128739543404663
1783169569752108000,2.60010791015625,-0.016219897916913032,-0.0001577387118246406,0.00789451725113322
1783169569762178000,2.610177978515625,-0.013974164816737173,-0.003339990043709986,-0.0027094279220560564
1783169569772247000,2.6202470703125,-0.001703296786546707,0.008569264432741329,0.0010914793229138012
1783169569782316000,2.63031591796875,-0.006342647024989128,0.01476261634726543,-0.0060655813659890555
1783169569792385000,2.640385009765625,-0.0018541034340858458,0.01792922258544713,0.013491426226025213
1783169569802455000,2.650455078125,-0.012777648508548735,0.012268265081150457,0.012234938200283796
1783169569812524000,2.66052392578125,-0.012029460489749908,0.017219060455518773,0.0007053957649099175
1783169569822593000,2.670593017578125,-0.010983750829100608,0.0069564406749326735,0.019508755995007232
1783169569832663000,2.6806630859375,-0.02205576446354389,0.011622532789828255,0.001863301662338199
1783169569842732000,2.69073193359375,-0.00978548095524311,0.008043258664105086,0.009897318715706933
1783169569852801000,2.700801025390625,0.009518938973546028,0.005521845861128531,0.006253771156648872
1783169569862871000,2.71087109375,-0.019210896426439285,0.010371943640266544,0.008041973172605504
1783169569872940000,2.72093994140625,-0.012326397609710693,0.012083158871787599,0.008863534671580419
1783169569883009000,2.731009033203125,0.0030868600994348526,0.0055332897037500516,-0.005241028758906759
1783169569893079000,2.7410791015625,-0.011427987465262412,0.011289716072310692,0.015157870734058087
1783169569903148000,2.75114794921875,0.00009469254612922667,0.027849403870222156,0.00559793074655463
1783169569913217000,2.761217041015625,-0.004544073170423508,0.003125666873017326,-0.005668704702623654
1783169569923286000,2.7712861328125,-0.014569792622327804,0.009026666511152871,0.003614224424806889
1783169569933356000,2.78135595703125,-0.01067863040268421,0.009244688609428703,-0.0006417000035988167
1783169569943425000,2.791425048828125,-0.007684709283709526,0.009099937243340536,-0.0026874581188429145
1783169569953494000,2.801493896484375,-0.029681437036395072,0.021206212129234334,0.003910363535390934
1783169569963564000,2.81156396484375,-0.018758476483821868,0.004500635887496173,0.006969840154267148
1783169569973633000,2.821633056640625,-0.0009516016364097595,0.007711012768745422,-0.0031194814441143533
1783169569983702000,2.831701904296875,0.005931728136539459,0.004648871552036144,-0.005319182303833076
1783169569993772000,2.84177197265625,-0.013820435559749603,0.013015448452951385,0.0008774141638365108
1783169570003841000,2.851841064453125,-0.019805939710140226,0.019329111412051132,0.0015030523735564201
1783169570013910000,2.861909912109375,-0.0024479776740074155,0.023615908186044542,0.0029641333354869857
1783169570023979800,2.871979736328125,-0.009031447717547415,0.006197795194201171,0.01668269997293828
1783169570034049000,2.882049072265625,-0.0094809450507164,0.015434999183495527,0.019003643458994336
1783169570044118000,2.892117919921875,-0.00813420661687851,0.00015450100854504852,0.005568475181562825
1783169570054187000,2.90218701171875,-0.010378770673274994,0.009721973565244115,0.002567280646652216
1783169570064257000,2.912257080078125,-0.012474281647801398,0.021805059371795502,0.0066229777867323715
1783169570074326000,2.922325927734375,-0.01636369030177593,0.023415074684587305,-0.011134907961444696
1783169570084395000,2.93239501953125,-0.01187339314520359,0.019308182788453997,0.004422155832295539
1783169570094465000,2.942465087890625,-0.016512158861756325,0.021893865599832495,-0.014669977619260316
1783169570104534000,2.952533935546875,-0.03027881840765476,0.003452528773783706,0.0192006261941744
1783169570114603000,2.96260302734375,-0.015316227075457572,0.010329419672791846,0.020958689941838384
1783169570124672800,2.9726728515625,0.0068301382809877395,0.01662980759178754,0.004753672216937411
1783169570134742000,2.982741943359375,-0.01845861675441265,0.014390874125156551,-0.0016069362980721052
1783169570144811000,2.99281103515625,-0.01666355003118515,0.018009101154934613,0.015386176764330593
1783169570154881000,3.002881103515625,-0.009331891968846321,0.003906967143551447,0.0014624098359141498
1783169570164950000,3.012949951171875,-0.012772972333431243,0.0169471847115783,0.019121590158191974
1783169570175019000,3.02301904296875,-0.005291092145442962,0.012011673671309836,0.011215670163632603
1783169570185088000,3.033087890625,-0.020404490125179288,0.02058998906018678,0.010295603026513708
1783169570195158000,3.043157958984375,-0.017711597779393195,0.004354126389161684,0.00436670045965584
1783169570205227000,3.05322705078125,-0.023846739533543587,-0.0011009150131838395,0.019465850718331058
1783169570215296000,3.0632958984375,0.0027881694138050077,0.010539098634407855,0.007657858951046364
1783169570225366000,3.073365966796875,-0.005292261189222335,0.01830881475387141,0.004389615544362459
1783169570235435000,3.08343505859375,-0.02145195335149765,0.008523278999701142,-0.01979636816419661
1783169570245504000,3.09350390625,-0.011276596295833587,0.0004980537492083385,-0.011882434968184679
1783169570255574000,3.103573974609375,-0.009182254365086556,0.011287460183142684,-0.008839600098499795
1783169570265643000,3.11364306640625,-0.014868483307957649,0.018906013462040572,0.01444150605056202
1783169570275712000,3.1237119140625,-0.007087912434339523,0.02316343344449997,-0.00064395475112251
1783169570285782000,3.133781982421875,-0.00274842192530632,0.01535228020295035,0.013254162854450987
1783169570295851000,3.14385107421875,-0.002749006447196007,0.014113746817363425,0.01968004830814898
1783169570305920000,3.153919921875,-0.006190086811780929,0.025230923900939523,0.0066108306912123225
1783169570315989000,3.163989013671875,-0.014867898786067962,0.012101959470380097,-0.00025693618642399086
1783169570326059000,3.17405908203125,-0.012173837396502494,0.005169310662988573,0.009251813611603574
1783169570336128000,3.1841279296875,-0.01965630210638046,0.010336036643246189,-0.015089526197093072
1783169570346197000,3.194197021484375,0.0018903437912464142,0.001719060611259192,-0.0009169915473321452
1783169570356267000,3.20426708984375,-0.012176760005950927,0.015100538498163223,0.0036608879945706574
1783169570366336000,3.2143359375,-0.02489654084742069,0.02645767095061019,0.010302474583650472
1783169570376405000,3.224405029296875,-0.01113046582341194,0.014806231726706027,-0.0041193164112220985
1783169570386475000,3.23447509765625,-0.02295125199854374,0.01428950524306856,0.005895784606900997
1783169570396544000,3.2445439453125,-0.02175298212468624,-0.003595193214062601,-0.0058390528759162405
1783169570406613000,3.254613037109375,-0.0012537994533777237,0.0005753065367694943,-0.008794241428188979
1783169570416683000,3.26468310546875,-0.007088496956229209,0.02944307083641179,0.0074813230655621735
1783169570426752000,3.274751953125,-0.00005377601385116577,0.027475985714257693,-0.005333712011040188
1783169570436821000,3.284821044921875,-0.018608838880062102,0.0026216765733668578,-0.004144874402519781
1783169570446890200,3.29489013671875,-0.014869067829847335,0.01986914113946259,0.002755482995399507
1783169570456960000,3.3049599609375,-0.029832828205823895,0.0002332607666030526,0.021031855642748995
1783169570467029000,3.315029052734375,-0.015617255848646164,0.008132704212958924,-0.005935670234361896
1783169570477098000,3.325097900390625,-0.001402268013358116,0.005028591584623791,0.002760682043613633
1783169570487168000,3.33516796875,-0.020706687942147254,0.022841845940472557,0.01952335990909487
1783169570497237000,3.345237060546875,-0.02040799725651741,0.001783088591066189,-0.018352591105160534
1783169570507306000,3.355305908203125,-0.009185761496424675,0.008696466442407109,-0.0036376817905635103
1783169570517376000,3.3653759765625,-0.006043371817469597,0.006409497149544767,0.000552684854652034
1783169570527445000,3.375445068359375,-0.01576981606185436,0.017836712863249702,0.001371372834884096
1783169570537514000,3.385513916015625,-0.00933539910018444,0.026237817654851822,-0.002121758518990828
1783169570547584000,3.395583984375,-0.018313655325770378,0.022314556963625363,0.006447096063441131
1783169570557653000,3.405653076171875,-0.010832359659671782,0.01957345982824918,-0.013853677958936895
1783169570567722000,3.415721923828125,-0.004399111741781234,0.028853379581263286,-0.015192481964780017
1783169570577792000,3.4257919921875,-0.02429974399805069,0.01655317129215691,-0.009493017939355922
1783169570587861000,3.435861083984375,-0.026394670450687406,0.021960199701157396,0.002797981846699258
1783169570597930000,3.445929931640625,-0.01217968261539936,0.019207946417527273,-0.009241939529916272
1783169570607999200,3.455999267578125,-0.013375614401698111,0.014308333241124637,-0.008510851059679407
1783169570618069500,3.466069580078125,-0.006491700106859207,0.011208636493002995,-0.0009664749785559251
1783169570628138200,3.47613818359375,-0.024298574954271315,0.028605514900572598,-0.002175154365284834
1783169570638207500,3.48620751953125,-0.02669160757064819,0.03268639557261485,-0.009472141831397312
1783169570648277200,3.49627734375,-0.004245967006683349,0.015015056738373823,0.009673573554476024
1783169570658346500,3.506346435546875,-0.014870236873626708,0.00826786576679442,0.00503969635888352
1783169570668415200,3.516415283203125,-0.01726385401189327,0.009676353458384983,-0.0017148776264861226
1783169570678485500,3.526485595703125,-0.01591711557805538,-0.0011083402678137644,0.0010623833758814725
1783169570688554200,3.53655419921875,0.00203822782933712,0.005864165625930763,-0.0007447334030992351
1783169570698623500,3.54662353515625,-0.006641337710618972,0.01346772226509638,-0.0044913383361883455
1783169570708692200,3.556692138671875,-0.006193009421229362,0.008612793047213926,0.027832425335957665
1783169570718762500,3.566762451171875,-0.0129272861123085,0.017785891424887814,0.007574404751561814
1783169570728831200,3.576831298828125,-0.01711713901758194,0.007013226063200272,0.010942443854466546
1783169570738900500,3.586900390625,-0.009185176974534987,0.011317942086374386,0.010775899640034186
1783169570748970200,3.59697021484375,-0.008587211081385613,0.00963037259192206,0.003308228357200278
1783169570759039500,3.60703955078125,-0.018313655325770378,0.016337601445871406,-0.005025004538183566
1783169570769108200,3.617108154296875,-0.013376783445477484,0.007031419307016767,-0.007960877610277384
1783169570779178500,3.627178466796875,-0.011582885766029357,0.023454205685155466,0.008286100109806283
1783169570789247200,3.637247314453125,-0.0006593406915664673,0.0010276397144189104,-0.00674711562305456
1783169570799316500,3.64731640625,-0.00828968943953514,0.0072623739521019155,-0.005412592783395666
1783169570809386200,3.65738623046875,-0.012479542344808577,0.01070592940156348,0.013767270325607386
1783169570819455500,3.66745556640625,-0.011132803910970688,0.019007368644396772,0.006519017372047528
1783169570829524200,3.677524169921875,-0.02100830123722553,0.004826625572005286,0.0015913494282285682
1783169570839594200,3.68759423828125,-0.022654314878582955,0.017506389496917834,-0.004373192990879761
1783169570849663200,3.697663330078125,-0.021606851652264593,0.01679163339026272,-0.016856613501429092
1783169570859732500,3.707732421875,-0.016967501413822174,0.011212645947840064,0.006340674263611436
1783169570869801200,3.71780126953125,-0.009486205747723579,0.0034593558067921547,-0.0012289355818240436
1783169570879871500,3.72787158203125,-0.013527005571126937,0.020788552972744217,-0.0011443328881578054
1783169570889940200,3.737940185546875,-0.018914543828368185,0.01884935137135908,0.000544717318972107
1783169570900009500,3.748009521484375,-0.009338906231522559,0.01811168474657461,-0.00034626528755761683
1783169570910079200,3.758079345703125,-0.009040800067782401,0.022750614859908817,0.021980644267564638
1783169570920148500,3.7681484375,-0.007842530193924904,0.01794995027964469,0.002134559776703827
1783169570930217200,3.77821728515625,-0.0020066636472940444,0.0203762138787657,0.00032125528553151526
1783169570940287200,3.788287353515625,-0.00694470457136631,0.003862525213626213,-0.0004062198804458603
1783169570950356200,3.798356201171875,-0.008143558967113494,0.008744794529583304,0.007460981247143354
1783169570960425500,3.808425537109375,-0.00919160671532154,0.017475090176356026,0.006536957170825917
1783169570970495200,3.8184951171875,-0.018319500544667244,0.01151670236175414,-0.004106362173170782
1783169570980564500,3.828564453125,-0.005900163954496383,0.03432585617559962,-0.01016522724565002
1783169570990633200,3.83863330078125,-0.019366379249095917,0.013038747130148113,-0.008695276849030051
1783169571000702500,3.848702392578125,-0.01846738458275795,0.000781985257123597,-0.006116402804350946
1783169571010772200,3.858772216796875,-0.007243979778885841,0.015131221330794505,0.004420636303711216
1783169571020841500,3.868841552734375,-0.012930208721756934,0.0034739734206115824,0.017402892589825206
1783169571030910200,3.87891015625,-0.0005102876096963882,0.027550790816405785,0.004407958343584323
1783169571040980200,3.888980224609375,-0.009638765960931777,0.02598081981963478,0.003931464547279756
1783169571051049200,3.89904931640625,-0.013230068451166152,0.01639706741499249,0.007634723528986797
1783169571061118500,3.909118408203125,-0.024752748462557792,0.01268049914385192,0.008212267688615247
1783169571071188500,3.9191884765625,-0.02101180836856365,0.01835855847999919,-0.0005004603354260325
1783169571081257200,3.92925732421875,-0.011883914539217949,0.010632608437025919,-0.0012990028600615914
1783169571091326200,3.939326171875,-0.016222236004471778,0.0156614740162855,0.0041916521367151285
1783169571101396200,3.949396240234375,-0.010984919872879981,0.015519065304333344,-0.010457224470656364
1783169571111465500,3.959465576171875,-0.012032383099198341,0.01415211063295137,0.00488367582175415
1783169571121534500,3.969534423828125,-0.01113572652041912,0.019288573905685915,0.002963970080349827
1783169571131603200,3.979603271484375,-0.028494857600331304,0.016404227808141148,0.009373365623550489
1783169571141673200,3.989673095703125,-0.02131342166364193,-0.0017630413168808444,0.009775807802955387
1783169571151742500,3.999742431640625,-0.0073953709483146664,0.020628471606783567,0.010390635782649042
1783169571161811500,4.0098115234375,-0.004402618873119354,0.01466626613358967,-0.0018194008718186523
1783169571171881500,4.019881591796875,-0.004403203395009041,0.0057517319271340964,0.012788546645187306
1783169571181950200,4.0299501953125,-0.020264789393544196,0.015047689499496482,0.019297921689343637
1783169571192019200,4.040019287109375,-0.020115736311674116,0.011264577064476906,0.013749288285989314
1783169571202089200,4.050089111328125,-0.007546177595853805,0.005145176302152685,-0.01598217674596817
1783169571212158500,4.060158447265625,-0.028944939455389975,-0.001825639958004467,0.012219072769227204
1783169571222227500,4.0702275390625,-0.019517185896635054,0.005767345054796896,0.003834292349696625
1783169571232297500,4.08029736328125,-0.016674655947089195,0.022372223701304754,-0.0008627075017604511
1783169571242366200,4.0903662109375,-0.0187701669216156,0.02362267585354857,-0.0006810193754790816
1783169571252435500,4.100435546875,-0.017722119173407554,0.01679581180845853,0.003357299654826056
1783169571262504400,4.11050439453125,-0.01592588340640068,0.023755234458344057,-0.02033260763247963
1783169571272574500,4.120574462890625,-0.01936754829287529,0.0030886821637628598,-0.006870510248927166
1783169571282643200,4.130643310546875,-0.022061609682440756,0.00634141404912807,0.010706837008794537
1783169571292712400,4.14071240234375,-0.005602057790756225,0.0026426325964275747,-0.0029914483173866754
1783169571302782200,4.1507822265625,0.009659224227070808,0.014999544075410811,-0.0034560747210285623
1783169571312851500,4.1608515625,0.0006815525233745574,0.01593663769585546,0.016923085741716203
1783169571322920400,4.17092041015625,-0.0029091654449701306,0.014405907297506928,0.007509433773549972
1783169571332990500,4.180990478515625,-0.01353343531191349,0.010822039195057004,0.012994363424082984
1783169571343059200,4.19105908203125,-0.006202946293354034,0.01539536585942842,0.007167102592304581
1783169571353128400,4.20112841796875,-0.008148819664120673,0.003006917597865686,0.004660494632815243
1783169571363198200,4.2111982421875,-0.0032107787400484085,0.023858082911465316,-0.004030158556735841
1783169571373267500,4.221267333984375,-0.018772505009174347,-0.009278901406284422,0.024900940744613763
1783169571383336200,4.231336181640625,-0.012188450443744659,0.016905583192710762,-0.006576002548070391
1783169571393405400,4.241405517578125,-0.007849544456601142,0.015746129225590266,0.003157614647550508
1783169571403475200,4.25147509765625,-0.01099193413555622,0.01948627016856335,-0.004799597142828861
1783169571413544400,4.26154443359375,-0.012487141129374503,0.014446887761866672,-0.0011996375637478194
1783169571423613200,4.27161328125,0.005469371321797371,0.011763525862828828,0.00973243102717679
1783169571433683500,4.281683349609375,-0.012637363255023955,0.02392376399224158,0.013105032140767433
1783169571443752200,4.291752197265625,-0.01787467938661575,0.015771775123500264,0.006580223207105882
1783169571453821400,4.301821533203125,-0.011439677903056144,0.02357506015242543,0.012354010560776806
1783169571463891200,4.31189111328125,-0.006502806022763252,0.013828413370228372,-0.001196534574497491
1783169571473960400,4.32196044921875,-0.019970774883031842,0.005254308365588076,-0.0011706283816834912
1783169571484029200,4.332029296875,-0.010841712009906768,0.02008027227264829,-0.014967723023396683
1783169571494099500,4.342099365234375,-0.013086276066303252,0.016917730288230813,0.009417210473498562
1783169571504168200,4.352168212890625,-0.016978022807836533,0.010924166128970682,0.0037337819841341113
1783169571514237400,4.362237548828125,-0.018474983367323873,0.010081162266456521,-0.008446811663429253
1783169571524306200,4.37230615234375,-0.0068026657521724695,-0.0012901357086608186,0.012594243349216412
1783169571534376400,4.38237646484375,-0.014583821147680281,0.020419952555792403,0.0003106208687298931
1783169571544445200,4.392445068359375,-0.024310265392065048,0.013827742083370684,-0.0033772909884399265
1783169571554514400,4.402514404296875,-0.003810498198866844,0.01522811040058732,0.0007980641756672412
1783169571564584200,4.412584228515625,-0.009946224474906921,0.013851657248497939,0.015535346293920883
1783169571574653400,4.4226533203125,-0.0032119477838277815,0.02123819186980836,0.005979505951155442
1783169571584722200,4.43272216796875,-0.012039981883764267,-0.004237651269487105,0.019168687552795743
1783169571594792400,4.44279248046875,-0.013686580047011374,0.002856471709930338,0.00335572418567026
1783169571604861200,4.452861083984375,-0.009346505016088484,0.0026927325155818834,-0.003280569740361534
1783169571614930000,4.462929931640625,-0.0017149872243404387,-0.005416956147970631,-0.009324165320117025
1783169571625000000,4.473,-0.012637947776913643,0.022123897796310483,0.0031692993771226608
1783169571635069000,4.48306884765625,-0.009644611179828642,0.008334574327454903,0.010796361331106162
1783169571645138000,4.493137939453125,-0.006651859104633331,0.01907869858124759,-0.003926283765374683
1783169571655208000,4.5032080078125,-0.01203939736187458,0.007230028885346837,-0.008435454585775732
1783169571665277000,4.51327685546875,-0.004706570255756378,0.029656284328829496,0.004774480967881391
1783169571675346000,4.523345947265625,-0.010693827971816063,0.02300820178359281,0.011336386491940357
1783169571685415000,4.533414794921875,-0.02685468917787075,0.008062493087537587,0.019431934748997445
1783169571695485000,4.54348486328125,-0.012189619487524032,0.024882968979794532,0.008805999222997343
1783169571705554000,4.553553955078125,-0.008148819664120673,0.010120772757637314,-0.027330553928157312
1783169571715623000,4.563622802734375,-0.012936638462543486,0.017536738969408907,0.005170098397566471
1783169571725693000,4.57369287109375,-0.01742693561911583,0.009641496774135156,0.008312438985815969
1783169571735762000,4.583761962890625,-0.002762450450658798,0.01725013601379469,0.013245688428694847
1783169571745831000,4.593830810546875,-0.014283961418271063,-0.011718814504845068,0.010866998289857292
1783169571755901000,4.60390087890625,-0.015181787040829658,0.005228242342569865,0.01083364743446
1783169571765970000,4.613969970703125,-0.012637363255023955,0.009349628554936498,0.00015015705192345194
1783169571776039000,4.624038818359375,-0.01503098039329052,0.012370081487810238,0.004102672378742136
1783169571786109000,4.63410888671875,-0.02819967404603958,0.013969995531695895,0.007855724177282536
1783169571796178000,4.644177978515625,-0.008297872745990753,0.01666642697486095,0.005159882964228746
1783169571806247000,4.654246826171875,-0.024158874222636222,0.012542679842049256,0.002055039683531504
1783169571816316000,4.66431591796875,-0.016975684720277787,0.021060899074142797,0.005666084628918907
1783169571826386000,4.674385986328125,-0.012785831815004348,0.014869688884355126,0.0066763405253412195
1783169571836455000,4.684454833984375,-0.019370470902323723,0.004293934334255754,0.007856717407837277
1783169571846524000,4.69452392578125,-0.016228081223368645,-0.005914461907907388,-0.012184202385245589
1783169571856594200,4.70459423828125,-0.007250409519672393,0.006747154438961297,0.018777028203953522
1783169571866663000,4.714662841796875,-0.01922200234234333,0.02805536107136868,0.03052039947803132
1783169571876732000,4.72473193359375,-0.010243746116757392,0.018082399286585858,0.0017991732178314122
1783169571886802000,4.734802001953125,-0.0026110592812299727,0.0034180374157149343,0.025372579127643256
1783169571896871000,4.744870849609375,-0.015629530808329583,-0.0030196492152754217,0.005721626766526606
1783169571906940000,4.75493994140625,-0.018622282883524893,0.008498208490526304,-0.005851124622911447
1783169571917010200,4.76501025390625,-0.0036596915513277053,0.0003681757252663374,0.005215258421766338
1783169571927079000,4.775078857421875,-0.007998597538471222,0.01139935959239956,-0.0010152037828869652
1783169571937148000,4.78514794921875,-0.019520693027973175,0.005704518084810115,-0.0005624892960360739
1783169571947217000,4.795216796875,-0.010992518657445906,0.017883109288243576,0.008676029867510078
1783169571957287200,4.805287109375,-0.022514029625058173,0.014076757541531697,-0.0018716858981933909
1783169571967356000,4.81535595703125,-0.0214671509206295,0.005173785908706486,-0.015046447390480897
1783169571977425000,4.8254248046875,-0.030744682353734967,0.002622434625192545,0.0011564251847506965
1783169571987495000,4.835494873046875,-0.020718962901830673,0.017102498570876194,0.011820984821242745
1783169571997564200,4.845564208984375,-0.000218026664853096,0.01829965876645874,0.0035797205086506435
1783169572007633000,4.8556328125,-0.00006897358298301697,0.023442802941729315,0.01583529849651968
1783169572017703200,4.865703125,-0.009195698368549346,0.008637087238254026,0.0015866721114667598
1783169572027772000,4.87577197265625,-0.030891981869935987,0.01878915931645315,0.005871033758134581
1783169572037841200,4.885841064453125,-0.012038228318095206,0.017266950151277705,-0.0035004173278983214
1783169572047911000,4.895910888671875,-0.010989596047997475,0.006526611590036191,0.018241608436289244
1783169572057980200,4.905980224609375,-0.024755671072006224,0.003415909390710294,0.010979695708490908
1783169572068049000,4.916048828125,-0.016675824990868567,0.017557051105075515,0.005098704528633971
1783169572078118100,4.9261181640625,-0.026252631631493568,0.012446430093073285,0.0014319016748631837
1783169572088188000,4.93618798828125,-0.018471476235985756,0.005910516385152004,0.0055185727668751496
1783169572098257200,4.946257080078125,-0.007099018350243568,0.00896578033650294,-0.01443963832046138
1783169572108326000,4.956325927734375,-0.020716040292382238,0.007449037364311516,0.006800215783470775
1783169572118396200,4.966396240234375,-0.017275544449687003,0.011308498404594138,-0.002946986979508074
1783169572128465000,4.97646484375,-0.01144026242494583,0.017232289829850197,0.012708709174895192
1783169572138534100,4.9865341796875,-0.01637888787090778,0.018805324999964793,0.013352644518064335
1783169572148604000,4.99660400390625,-0.008299041789770126,0.0068720959928818045,0.005755869246134534
1783169572158673200,5.006673095703125,-0.0032107787400484085,0.023108538619219323,0.008337983277381862
1783169572168742000,5.016741943359375,-0.01518120251893997,0.028402087583229877,0.009364112596370978
1783169572178812000,5.02681201171875,-0.004407879570126534,0.01898838538271375,0.009879700860625599
1783169572188881000,5.036880859375,-0.0032107787400484085,0.014378991891117765,0.01401745482754777
1783169572198950100,5.0469501953125,-0.014134323814511298,0.004067021110048518,0.01759920403814758
1783169572209019000,5.057018798828125,-0.022664251750707624,0.017288230401324108,0.00886954657054739
1783169572219089200,5.067089111328125,-0.011741291198134421,0.009434110234305262,0.0031788937559525947
1783169572229158000,5.077157958984375,-0.02505903793275356,0.02172221709366422,0.024961071150726637
1783169572239227100,5.08722705078125,-0.027154548907279967,0.027957394289341752,0.008398952792066847
1783169572249297000,5.097296875,-0.0252098445802927,0.0031682091068010775,-0.016191655919828917
1783169572259366100,5.1073662109375,-0.010394552764296532,0.025599839411722496,-0.0007489974446187261
1783169572269435000,5.117434814453125,-0.014434768065810203,0.011399766017775982,-0.0078287962128059
1783169572279505000,5.1275048828125,-0.03059562927186489,0.011122337315883487,-0.008792173910333077
1783169572289574000,5.137573974609375,-0.006503975066542625,0.011491832781978881,0.00991215095865773
1783169572299643100,5.14764306640625,-0.020121581530570982,0.018592038442310877,-0.0032640695550653614
1783169572309713000,5.157712890625,-0.0174281046628952,0.012166877932753414,0.001767707217199495
1783169572319782100,5.1677822265625,0.0030716625303030013,0.008793990266439504,0.007934684864740119
1783169572329851000,5.177850830078125,0.00831014770567417,0.005965073283715173,0.02529808455274906
1783169572339920100,5.187920166015625,-0.017875848430395126,0.003680935268756002,0.009131205739505821
1783169572349990000,5.197989990234375,-0.019672084197402,0.01815881182393059,0.008209710405347868
1783169572360059100,5.20805908203125,-0.0148836808770895,0.021170629359199663,0.0028347770429973025
1783169572370128000,5.2181279296875,-0.01787643295228481,-0.0023719624288845807,-0.0007703324935922864
1783169572380198000,5.228197998046875,-0.010842881053686141,0.01017423367765732,0.009001734140940243
1783169572390267000,5.238266845703125,-0.010544774889945983,0.01797102960029151,0.0095819748644426
1783169572400336100,5.248336181640625,-0.02086976954936981,0.01299515458359383,0.010114817940886131
1783169572410406000,5.258406005859375,-0.013088614153861998,0.005314253825321793,-0.00917142815203988
1783169572420475000,5.268474853515625,-0.016082535272836686,0.011786573378276079,0.0027003358667250722
1783169572430544000,5.2785439453125,0.003967734587192536,-0.0027473533462267366,-0.010948939810623413
1783169572440614000,5.28861376953125,-0.0048608840346336364,0.008481481118011287,0.014942899109394055
1783169572450683000,5.298682861328125,-0.012492401826381682,0.00712797501666937,0.012450624494289513
1783169572460752100,5.308752197265625,-0.01907645639181137,0.01411950527129229,-0.002654096988646779
1783169572470820900,5.31882080078125,-0.010845803663134574,0.014618787429784424,0.003323430492909392
1783169572480891000,5.328890869140625,-0.007404138776659965,0.022273197473352775,0.002490095216105692
1783169572490960000,5.3389599609375,0.0035188217759132383,0.012514399029058404,0.019857916492549702
1783169572501029000,5.349029052734375,-0.019525953724980352,0.001961354067688808,0.004407957201940007
1783169572511099000,5.359098876953125,-0.012194295662641524,0.005325985362310893,0.013312999777554069
1783169572521168000,5.36916796875,0.0038163434177637097,0.017107530939020215,0.0004174422440701164
1783169572531236900,5.37923681640625,-0.017281974190473556,0.021375011091190388,0.02140462534474209
1783169572541307000,5.389306884765625,0.004565700480341911,0.015080262895114719,0.017162454305408754
1783169572551376000,5.3993759765625,-0.008304302486777305,0.014479593588225542,-0.002903408132685581
1783169572561445000,5.409445068359375,-0.015037994655966757,0.008973598316777498,-0.005985904867545468
1783169572571513900,5.419513916015625,-0.006357844594120979,0.016410086726769805,0.011363186592253624
1783169572581584000,5.429583984375,0.0033685996502637863,0.030358710676874033,0.0026093262651585973
1783169572591652900,5.43965283203125,-0.008303133442997932,0.011045262624835595,-0.0043240200869098765
1783169572601722000,5.44972216796875,-0.024164719441533086,0.004073697446007282,0.004189508128690067
1783169572611792600,5.459792724609375,-0.013090952241420746,0.0214656256838236,-0.0007614756169903557
1783169572621861400,5.469861328125,-0.023415946900844573,-0.0008070329334121197,-0.0055891492184775415
1783169572631930400,5.479930419921875,-0.00336450799703598,0.0035600123028270898,-0.01411463045006385
1783169572642000400,5.49000048828125,-0.02581073308289051,-0.00014346815787721423,-0.00009284422398195601
1783169572652069600,5.500069580078125,-0.02027414174377918,0.004793568119197152,-0.003869762096944032
1783169572662138400,5.510138427734375,-0.03134849346578121,0.016320508747175336,-0.0007479037493641953
1783169572672208600,5.520208740234375,-0.009053659549355506,-0.0013137951454613357,0.011405224219249794
1783169572682277400,5.53027734375,-0.02940437366068363,0.002081094290106557,0.007416250481206225
1783169572692346600,5.5403466796875,-0.001273088675737381,0.012668388580949977,0.0013979674392205197
1783169572702415400,5.550415283203125,-0.01653670878112316,0.019653671757876873,-0.007704118378722341
1783169572712485600,5.560485595703125,-0.0012742577195167541,0.00854153617559932,0.019181147458858322
1783169572722554400,5.570554443359375,-0.02087678381204605,0.023967616833699867,0.003401177612459287
1783169572732623600,5.58062353515625,-0.017434534403681753,0.013998678203485906,0.0012864093816140666
1783169572742693400,5.590693359375,-0.0011228665500879287,0.03044147075661458,0.005022950720059452
1783169572752762600,5.6007626953125,-0.010400982505083084,0.01860703964862041,-0.010043204876244998
1783169572762831400,5.610831298828125,-0.0320984350502491,0.02125127511366736,-0.0022390202315989882
1783169572772901600,5.620901611328125,-0.024766192466020583,0.01432290062259417,-0.011084514639701228
1783169572782970400,5.630970458984375,-0.02371756019592285,0.011578068027016705,0.00044775290065445005
1783169572793039600,5.64103955078125,-0.016236264529824258,0.008011685348907486,0.018284299083834048
1783169572803109400,5.651109375,0.005759878700971603,0.01018229825310409,-0.012414345321222207
1783169572813178600,5.6611787109375,-0.012945990812778472,0.005696974099171348,0.0027120068965654355
1783169572823247400,5.671247314453125,-0.0012742577195167541,0.009999146538809872,0.012415009758214
1783169572833316600,5.681316650390625,-0.014890110617876052,0.01211825301805511,0.013862234583083772
1783169572843386400,5.691386474609375,-0.012346271353960037,0.0016562884401995688,0.007014385973825119
1783169572853455600,5.70145556640625,-0.004116203147172927,0.004448659105086699,0.01472962510982761
1783169572863524400,5.7115244140625,-0.0003758475750684738,0.01665812950397376,-0.0015301036356191616
1783169572873594600,5.7215947265625,-0.013394903624057769,0.02270842425257433,-0.001644459863443626
1783169572883663400,5.731663330078125,-0.012945406290888785,0.011938891562889329,-0.0015219043461431282
1783169572893732600,5.741732666015625,-0.02880757681131363,0.008704855244839563,0.009616167111700633
1783169572903802400,5.75180224609375,-0.005914192479848862,0.015286978148086926,0.0001273880976892542
1783169572913871600,5.76187158203125,-0.01414426068663597,0.015089642644813283,0.007770466179779032
1783169572923940400,5.7719404296875,-0.0009755670338869094,0.025350960950879377,0.0009347235668450593
1783169572934010600,5.7820107421875,-0.016388824743032455,0.021135453014541415,0.014462726935104
1783169572944079400,5.792079345703125,-0.01414426068663597,0.018397369820158927,0.0067656342355010566
1783169572954148600,5.802148681640625,-0.02372106732726097,0.007220347741548903,0.004063063029205659
1783169572964217300,5.81221728515625,-0.020429040044546126,0.0002800864498596638,0.029901491261553018
1783169572974287600,5.82228759765625,-0.016987959679961202,0.023458055309788322,0.0018824527457356453
1783169572984356400,5.8323564453125,-0.009357026410102843,0.02039399613062851,0.008562448816176038
1783169572994425600,5.842425537109375,-0.009207973328232765,0.019898869557445867,0.001937038185406709
1783169573004495400,5.852495361328125,-0.0002297171026468277,0.009864185914373956,0.012741001726011746
1783169573014564600,5.862564697265625,-0.008011457020044327,-0.00576578328537289,0.02706258717435412
1783169573024633300,5.87263330078125,-0.021178981629014014,-0.004661151078296825,0.004262132690194994
1783169573034703600,5.88270361328125,-0.00801087249815464,0.013620519940322264,-0.002551128662872361
1783169573044772400,5.8927724609375,-0.02088029094338417,0.02119464498902671,0.017674019415094517
1783169573054841600,5.902841552734375,-0.009656886139512062,0.016754945508530364,0.0037441264232795216
1783169573064911400,5.912911376953125,-0.013847323566675186,0.005668930748198181,0.01244363306449959
1783169573074980600,5.922980712890625,-0.0036719665110111236,0.014158595172665081,0.0004928158850874752
1783169573085049300,5.93304931640625,-0.0042705169260501856,0.007805225824262015,0.00941277861026465
1783169573095118600,5.94311865234375,-0.001129296290874481,0.015134102841047568,0.008809558869973989
1783169573105188400,5.953188232421875,-0.021181904238462446,0.016391747352480886,0.020225804523448458
1783169573115257600,5.963257568359375,-0.012951836031675337,0.011944426254532299,0.007119339619064703
1783169573125326300,5.973326416015625,-0.015196984609961509,0.025992688353941775,-0.008496807692950824
1783169573135396600,5.983396728515625,-0.00741524469256401,0.026623451404995283,0.004865064736118074
1783169573145465300,5.99346533203125,-0.020285247659683227,0.014777941780560648,0.013434880583063932
1783169573155534600,6.00353466796875,-0.017591770792007445,0.01538024135553278,0.02006352891711285
1783169573165604400,6.013604248046875,-0.008612930044531822,0.012555932049266994,-0.0025336044226249212
1783169573175673600,6.023673583984375,-0.018937340182065963,0.0008231027188012376,0.002784941985324258
1783169573185742300,6.033742431640625,-0.0008306056052446365,-0.005829961962229572,0.0037634019459073897
1783169573195811600,6.0438115234375,-0.01399871473610401,0.012082880310574546,0.02482783212591894
1783169573205881300,6.05388134765625,-0.006665887629985809,0.01692783612371422,0.012685965336835943
1783169573215950600,6.06395068359375,-0.020582184779644012,0.02288505489453673,0.0002976141150400508
1783169573226019300,6.074019287109375,-0.025670447829365728,0.020851621971325947,0.0010588499867240897
1783169573236089300,6.08408935546875,-0.01414776781797409,0.01927260915157385,-0.005911711686750641
1783169573246158300,6.094158447265625,-0.008012041541934013,0.01306249333191663,0.01589756377750309
1783169573256227600,6.1042275390625,-0.0018774843096733091,-0.00040681810206733644,0.0140038532771694
1783169573266297600,6.114297607421875,-0.010406243202090262,0.004320091688819229,-0.008896433435828657
1783169573276366600,6.12436669921875,-0.0032242227435111998,0.01409932099978905,0.0005503125177638139
1783169573286435300,6.134435302734375,0.00530512067079544,0.0013477430808357894,0.010069114493991947
1783169573296505300,6.14450537109375,-0.005918284133076667,0.0021552829043241218,0.020271212284464855
1783169573306574600,6.15457470703125,-0.006966331881284714,0.0001733883721055463,0.014806832231616135
1783169573316643600,6.1646435546875,-0.010109890604019164,0.010263912121951579,0.013623416291951435
1783169573326712300,6.17471240234375,-0.027019524350762367,0.008820576879265718,-0.0014486142060020938
1783169573336782300,6.1847822265625,-0.009511924710869788,0.019406528596393764,0.001598951637727441
1783169573346851300,6.194851318359375,0.0006628478229045867,0.016988612700509838,0.010224004803248681
1783169573356920600,6.204920654296875,-0.01938917560279369,0.0024581109089544043,0.014745441450178622
1783169573366990600,6.214990478515625,-0.02118482684791088,0.013825495327357202,0.01212387447466608
1783169573377059600,6.2250595703125,-0.016096563798189162,0.0173588936178945,0.010887688309792429
1783169573387128300,6.23512841796875,0.008293781092762947,0.029543836930301038,0.007030690937943291
1783169573397198300,6.2451982421875,0.008442834174633025,0.022322078116377816,0.008238085974816931
1783169573407267600,6.255267578125,0.004850947162508964,0.015224443439044989,0.008200142284337198
1783169573417336600,6.265336669921875,-0.0060725979119539255,0.016846952907228843,0.015681882050074637
1783169573427406600,6.275406494140625,-0.011758242332935332,0.012250304732774383,0.021646571741299702
1783169573437475300,6.285475341796875,0.0012584756284952164,0.007223466713819652,0.0060677265156584325
1783169573447544600,6.295544677734375,-0.0062216509938240044,0.010957584341382607,-0.013531447709159691
1783169573457613600,6.305613525390625,-0.0014350012391805649,-0.006581748443911783,-0.004390791438007727
1783169573467683600,6.31568359375,-0.01101063883602619,0.010417143622017466,0.01618067330151098
1783169573477752300,6.32575244140625,-0.010413257464766502,0.010776706782565452,-0.0009236416254716459
1783169573487821600,6.335821533203125,-0.018044775256514548,0.019260060197254642,0.007814671789330896
1783169573497891300,6.345891357421875,-0.003230652484297752,0.02083852959431242,0.003914285083615686
1783169573507960600,6.355960693359375,-0.010412672942876814,-0.004801418065512553,0.002824265923781786
1783169573518029600,6.366029541015625,-0.008467384093999861,0.014796495783980936,0.013190778762038098
1783169573528099600,6.376099609375,-0.024926351463794707,0.02485401231336873,-0.007280184745072619
1783169573538168300,6.386168212890625,-0.014900047490000724,0.012153210167004725,0.00041032865833840333
1783169573548237600,6.396237548828125,-0.0035281741261482236,-0.0021370576944667844,0.004969506924704182
1783169573558306600,6.406306640625,-0.01894143183529377,0.009572230930207296,0.006739508846978424
1783169573568376600,6.41637646484375,-0.009663315880298614,0.01175888622032944,0.02220366676794365
1783169573578445300,6.4264453125,-0.011608604729175567,0.014498850844544357,0.00767541401569033
1783169573588514600,6.4365146484375,-0.0030786767929792402,0.008944290023902431,-0.00458424535060767
1783169573598584300,6.446584228515625,-0.007417582780122756,-0.008980580613412894,0.016131362258578884
1783169573608653000,6.456653076171875,-0.01938800655901432,0.00909742562584579,0.024676641885889694
1783169573618722300,6.466722412109375,-0.00846446148455143,0.012515705070155671,0.018790004133246836
1783169573628792000,6.4767919921875,0.00635083033144474,0.01956930424293969,0.002562034791021142
1783169573638861000,6.486861083984375,-0.013102642679214477,0.012478501165192574,0.01163517535898136
1783169573648930000,6.496929931640625,-0.014449381113052367,0.006963655867008492,0.012770038307539653
1783169573659000000,6.507,-0.01938800655901432,0.00597475899409037,-0.005414322374534095
1783169573669069000,6.517069091796875,-0.028814591073989867,0.014015661304327659,-0.01922595699825324
1783169573679138300,6.52713818359375,-0.01759060174822807,-0.0007684864547336474,-0.004055546443030471
1783169573689207000,6.53720703125,-0.010557049849629402,0.0015423934366786852,0.009876823916949797
1783169573699277000,6.547277099609375,-0.012801613906025886,0.019971765830297954,0.013640611738635925
1783169573709346000,6.557345947265625,-0.003524666994810104,0.0019062994122039526,-0.007999701508524594
1783169573719415300,6.567415283203125,-0.002776478976011276,0.004740262462804094,-0.008007747817662312
1783169573729485000,6.577485107421875,-0.011304653346538542,0.013567547644069417,0.008318431476829573
1783169573739554000,6.587553955078125,-0.012351532050967215,0.01563359962867107,0.007124795537249883
1783169573749623000,6.597623046875,0.0009662146836519241,0.0067919845279539,0.0034537514748459214
1783169573759693000,6.607693115234375,-0.01070610293149948,0.006011314445082098,0.013417515031376387
1783169573769762000,6.617761962890625,-0.0035217443853616712,0.020851489540585317,0.009461857899400638
1783169573779831300,6.627831298828125,-0.02551788761615753,0.013931668248726055,-0.00111880001303507
1783169573789901000,6.637901123046875,-0.01803600742816925,0.007841826941026375,0.018197148240054955
1783169573799970000,6.647969970703125,-0.014444704937934875,-0.00104375516558066,-0.004093889709020732
1783169573810039000,6.6580390625,-0.01414601425230503,0.012937675075582227,0.008897051065403502
1783169573820108300,6.6681083984375,-0.004420154529809952,0.008932398656709119,0.00839094986541313
1783169573830178000,6.678177978515625,-0.011304068824648857,0.011822137882001697,0.011699947690882253
1783169573840247000,6.6882470703125,-0.0026239187628030775,0.013811197373946196,0.00993694404826383
1783169573850316000,6.69831591796875,-0.004867313775420189,0.014258009559684433,0.003669191173679428
1783169573860386000,6.708385986328125,-0.019381576818227768,0.01937778655909933,0.015424185528536326
1783169573870455000,6.718455078125,-0.021027590459585188,0.014598630557744763,0.011250352176302112
1783169573880524000,6.72852392578125,-0.021924831560254095,0.015380862410040571,-0.0037871298813668543
1783169573890594000,6.738593994140625,-0.0044172319203615185,0.007161790521303191,0.0012255711560253985
1783169573900663000,6.7486630859375,-0.00561316370666027,-0.002540418897545896,0.005381363103137119
1783169573910732000,6.75873193359375,-0.005014028769731521,0.023242768591293133,0.01914357251949259
1783169573920801300,6.76880126953125,-0.015339607951045036,0.014928816926758735,-0.001495717308827443
1783169573930871000,6.77887109375,-0.006959317618608474,0.003849163408554159,-0.016069763697875897
1783169573940940000,6.78893994140625,-0.017135259196162222,0.0077429559767013415,-0.00019147430135635658
1783169573951009000,6.799009033203125,-0.014590835410356521,0.011501714855176396,0.01378830055554863
1783169573961079000,6.8090791015625,-0.003218377524614334,0.003069351842207834,-0.0035391419030900576
1783169573971148000,6.81914794921875,-0.011897358542680739,0.0053759574173018335,0.00976709363189293
1783169573981217000,6.829217041015625,-0.02880582324564457,0.019072191208647563,0.005041197621158789
1783169573991287000,6.839287109375,-0.016684592819213865,0.005678333330783061,0.0025223626510472966
1783169574001356000,6.84935595703125,-0.02536532740294933,0.014123829819960519,0.00965253533302457
1783169574011425000,6.859425048828125,-0.011001286485791205,-0.0008803264984861015,0.014884161509346449
1783169574021495000,6.8694951171875,-0.014742226579785345,0.014671618162142111,-0.0006705756132781971
1783169574031564000,6.87956396484375,-0.011600421422719954,0.018248645531851796,0.0063823203066072885
1783169574041633000,6.889633056640625,-0.014592004454135894,0.00398545290697366,0.013628920159197878
1783169574051702000,6.899701904296875,-0.00516483541727066,0.009420154774188994,-0.0026979555383266412
1783169574061772000,6.90977197265625,-0.003070493486523628,0.01854556895208079,0.012317354645085288
1783169574071841000,6.919841064453125,-0.01803425386250019,0.015428569442708975,0.018622241784329526
1783169574081910000,6.929909912109375,-0.005164250895380974,0.007039470182731747,0.018085468026506714
1783169574091980000,6.93997998046875,-0.009803016611933708,-0.00456437617293559,0.009273050479165976
1783169574102049000,6.950049072265625,-0.014292144724726676,0.016660440192068925,-0.0015556650518497917
1783169574112118000,6.960117919921875,-0.005464695146679878,0.006798176806722767,0.011784941968548809
1783169574122188000,6.97018798828125,-0.026713234880566594,0.01418635539584793,0.02732971596122952
1783169574132257000,6.980257080078125,-0.010402151548862457,0.00774910715627484,-0.006091307179001159
1783169574142326000,6.990325927734375,-0.017134674674272536,0.01155832214693073,-0.0048422740906418765
1783169574152396300,7.000396240234375,-0.002471358549594879,0.0022960293821524826,0.003359989368834067
1783169574162465000,7.010465087890625,-0.025514965006709096,0.011172259138524532,0.004091305026289774
1783169574172534000,7.020533935546875,-0.012646131083369254,0.022926578781590795,0.008333334501727949
1783169574182603000,7.03060302734375,-0.0012736731976270674,0.020434885263442993,-0.002039590952650178
1783169574192673300,7.04067333984375,-0.00561316370666027,0.017156283717881887,0.026596029108529907
1783169574202742000,7.050741943359375,-0.01324409697651863,0.013490157859190366,0.005682927307509817
1783169574212811000,7.06081103515625,-0.014740473014116287,0.014384608781151473,-0.0003814473404374439
1783169574222881000,7.070881103515625,-0.0029191023170948025,-0.00045726508109364655,-0.010732220328511902
1783169574232950300,7.0809501953125,-0.021923077994585035,0.015319263849337584,0.004844163511984516
1783169574243019000,7.09101904296875,-0.008754968863725662,0.012577847053552978,0.0004156886784010566
1783169574253089300,7.10108935546875,-0.02267185053527355,0.019009336839197203,0.009584831258520716
1783169574263158000,7.111157958984375,-0.007409399473667144,0.017554964179266244,0.0006396621684951241
1783169574273227000,7.12122705078125,-0.017137012761831282,0.022036762935551815,0.010354228745418368
1783169574283296000,7.1312958984375,-0.013545710271596907,0.025306263292627407,0.00343534017696511
1783169574293366300,7.1413662109375,-0.0047165071278810495,-0.012001380606158636,0.0011424765745003242
1783169574303435000,7.15143505859375,-0.014143091642856598,0.02067796873773914,0.014161427592212566
1783169574313504000,7.16150390625,-0.015938742887973784,0.0027710264827590435,0.013974092893145279
1783169574323574000,7.171573974609375,-0.005913607957959175,0.009264639985491522,0.005757860273821279
1783169574333643300,7.181643310546875,0.0005208090037107468,0.012282458003284409,0.017487971349171127
1783169574343712000,7.1917119140625,-0.016088965013623238,0.010005658477987163,0.021794939836580304
1783169574353782300,7.2017822265625,-0.01638824022114277,0.0038820518980035557,0.0064129140909819395
1783169574363851000,7.21185107421875,-0.013396657189726829,0.0050021282693836835,0.004189816372655332
1783169574373920300,7.221920166015625,-0.016838322076201437,0.008604975066939368,-0.009067693782929563
1783169574383990000,7.231989990234375,-0.013397826233506202,0.0026115981373470275,-0.0034515880588674914
1783169574394059300,7.242059326171875,0.0014162965387105942,0.005427404476748779,-0.016358991293772124
1783169574404128000,7.2521279296875,-0.0029226094484329224,0.021515419642301276,0.015708841980592116
1783169574414197200,7.262197265625,-0.020279986962676046,0.014204959631618112,0.0033710416274552696
1783169574424267000,7.27226708984375,-0.012948328900337218,0.0018257860884768888,-0.003493665643414715
1783169574434336300,7.282336181640625,-0.005317395630478858,-0.0008162893855245784,0.009152912964526331
1783169574444405000,7.292405029296875,-0.004720014259219169,0.013008233260875567,0.010518181427253876
1783169574454475300,7.302475341796875,-0.006814940711855888,0.00611983002058696,0.013771841469447826
1783169574464544000,7.3125439453125,-0.02282616431415081,0.00913941987035796,0.002741380263166502
1783169574474613200,7.32261328125,-0.0005289923101663589,0.013782012378657236,-0.009750342284847283
1783169574484683000,7.33268310546875,-0.0011275427252054214,0.014272316646249963,-0.00023098318619304336
1783169574494752300,7.342752197265625,-0.008160510101914405,0.011315311737870797,0.008173825099569512
1783169574504821000,7.352821044921875,-0.018185645031929015,0.013916890804702415,0.015291206798632629
1783169574514890200,7.36289013671875,-0.005316226586699485,0.005241261654347181,0.005606109486432979
1783169574524960000,7.3729599609375,-0.009655717095732689,0.01677000608034432,-0.011565815900219604
1783169574535029200,7.383029296875,-0.0108534024477005,0.012169311918434686,0.0018221602261299266
1783169574545098000,7.393097900390625,-0.012051087799668311,0.01251511141511146,0.006170770189957693
1783169574555168300,7.403168212890625,-0.01444528945982456,0.01643833100714255,-0.011847048560972325
1783169574565237000,7.413237060546875,-0.005316226586699485,0.014644561191857792,0.0018901417202025184
1783169574575306200,7.42330615234375,-0.02357084520161152,0.019616349121904932,0.003255359950580168
1783169574585376000,7.4333759765625,-0.013394319102168083,0.01604107988444157,-0.004756018296006369
1783169574595445200,7.4434453125,-0.006361936247348785,-0.0057274194697849445,0.008178614297474268
1783169574605514000,7.453513916015625,-0.019529460856318473,-0.0031528243080014362,0.003400211781368125
1783169574615584300,7.463584228515625,0.005011106160283088,0.011051190042123198,-0.0029565048681688493
1783169574625653000,7.473653076171875,-0.019081717088818548,-0.0010790685075568035,0.005792649601056473
1783169574635722200,7.48372216796875,-0.0066617959767580025,-0.0058956932753557335,-0.008386819396278588
1783169574645791000,7.493791015625,-0.010402736070752143,0.01599896234234329,0.004288397359324153
1783169574655861200,7.503861328125,-0.018033669340610504,0.00018542586977127938,0.01096208926985273
1783169574665930000,7.513929931640625,-0.021027590459585188,-0.009294245105888693,0.0027599981986684724
1783169574675999200,7.523999267578125,-0.015640636724233627,0.002191778989811428,0.0031397627553844355
1783169574686069000,7.534069091796875,-0.00935585736632347,0.0027796710135182365,0.013925912078085821
1783169574696138200,7.54413818359375,-0.022525135540962218,0.02027914214588236,0.0006365626041777431
1783169574706207000,7.55420703125,-0.011752981635928153,0.0058533474043942985,-0.004143499862763565
1783169574716277200,7.56427734375,-0.016691607081890106,0.01243840205024462,0.006946131626761052
1783169574726346000,7.574345947265625,-0.01983458128273487,0.014809601860726251,0.009576106812659418
1783169574736415200,7.584415283203125,-0.014597265151143074,0.008175383444060571,-0.000281016889977036
1783169574746484000,7.59448388671875,-0.023576690420508382,0.01336839464304503,-0.009402490111690712
1783169574756554200,7.60455419921875,-0.011456044515967368,0.015192354100616649,0.024637442386662586
1783169574766623000,7.614623046875,0.002162146469950676,0.007845914027676917,0.009640992167347576
1783169574776692200,7.624692138671875,-0.004722352346777915,0.0080010680567706,0.009566580932488432
1783169574786762000,7.634761962890625,-0.014300328031182289,0.01181374451299198,0.00006862880639964714
1783169574796831200,7.644831298828125,-0.012803367471694945,0.010109968235832639,0.0019380656652909236
1783169574806900000,7.65489990234375,-0.011457213559746741,0.004892233587545342,-0.012638704687095013
1783169574816970000,7.664969970703125,-0.000384030881524086,0.010995820292807183,0.010516061393759445
1783169574827039000,7.6750390625,-0.009661562314629554,0.002679754302999936,0.01009901758355554
1783169574837108200,7.685108154296875,-0.008314823880791664,0.0075652202230412505,-0.004930937613139394
1783169574847178000,7.695177978515625,0.001561257967352867,0.004910180236189626,-0.00018853799217613413
1783169574857247200,7.705247314453125,-0.014899462968111038,0.005992746741930023,-0.0015255393416446167
1783169574867316000,7.71531591796875,-0.01055880341529846,0.010095195358386263,0.0020178700278978795
1783169574877385200,7.72538525390625,-0.0027776480197906493,0.0189450987968361,0.009879335534444544
1783169574887455000,7.735455078125,-0.019537644162774086,0.01049880772321485,-0.0029666335365385746
1783169574897524200,7.745524169921875,-0.013851415219902992,0.011512336713890544,0.013639254323544446
1783169574907593000,7.755593017578125,-0.004125555497407913,0.004980295463488437,-0.007585967325192177
1783169574917663000,7.7656630859375,0.0026081366717815397,0.00800871707368642,0.006214913009072188
1783169574927732000,7.77573193359375,-0.016843582773208618,0.0063221248267684126,-0.005220798821630887
1783169574937801200,7.78580126953125,-0.018041268125176427,0.012030350972316228,-0.004058382287510903
1783169574947871200,7.795871337890625,-0.01504793152809143,0.015084299749415367,0.010388905049866297
1783169574957940200,7.805940185546875,-0.025972061124444005,0.009103330210247076,-0.008659557081677484
1783169574968009000,7.816009033203125,-0.015647650986909865,0.01774760067453608,0.0016822174658998846
1783169574978078200,7.826078125,-0.0014314941078424452,0.018108223281009122,0.006664392075932119
1783169574988148000,7.83614794921875,-0.014748656320571898,0.022062486465275286,0.0005745119523257017
1783169574998217200,7.84621728515625,-0.006966331881284714,0.008602787676430306,0.011886218377447222
1783169575008286000,7.856285888671875,-0.018188567641377447,-0.014120153725263661,0.015447573253989684
1783169575018356000,7.86635595703125,-0.005619593447446823,0.011305420531518756,0.013284955284936586
1783169575028425000,7.876425048828125,-0.009061842855811119,0.01794309584717266,0.0033609472084150183
1783169575038494200,7.886494140625,-0.0038251112461090086,0.005770477726799435,0.015211133007967146
1783169575048564200,7.896564208984375,-0.013851415219902992,0.012554954801732673,-0.0059715863645367784
1783169575058633200,7.90663330078125,-0.014449381113052367,0.005994011683831922,-0.009767998955835355
1783169575068702000,7.916701904296875,-0.007117138528823852,0.0037621655451133846,0.005109792178228963
1783169575078771200,7.926771240234375,-0.0005336684852838516,0.006794240417121909,0.012018609160528285
1783169575088841200,7.93684130859375,-0.01325111123919487,0.006859012749022804,0.0059098313985625275
1783169575098910200,7.94691015625,-0.010557049849629402,0.018299078811146317,0.0028821644152572843
1783169575108979000,7.95697900390625,-0.020283494094014167,0.02732370406226255,0.0007363343258679378
1783169575119049000,7.967049072265625,-0.018038345515727996,0.003945938313915394,0.002256116355228005
1783169575129118200,7.9771181640625,-0.013249942195415495,0.005298859893367625,-0.0027963321706629355
1783169575139187200,7.987187255859375,-0.0023269816428422925,0.006224642101931385,0.013629042315139667
1783169575149257200,7.99725732421875,-0.012052841365337371,0.003909707089909352,0.002054712031612871
1783169575159326000,8.007325927734374,-0.019085808742046354,0.0027594547759741545,-0.006045042043103604
1783169575169395200,8.017395263671874,-0.011004793617129326,0.014509819763130507,0.008257794180640484
1783169575179464200,8.027464111328126,-0.014745733711123466,0.020951214454858563,0.005109327528992434
1783169575189534200,8.0375341796875,-0.02088029094338417,0.009775448184995912,0.005864809513324872
1783169575199603200,8.047603271484375,-0.024022680622339247,0.0023096377823967483,0.0013011480097309687
1783169575209672000,8.057671875,-0.02327449260354042,0.00908657087169122,0.020355470201547723
1783169575219742000,8.067741943359374,-0.024769699597358703,0.013184914135187863,0.009769380345457466
1783169575229811200,8.077811279296874,-0.0063636898130178445,0.016718673185328953,-0.01074039107688004
1783169575239880200,8.087880126953126,0.0024649288088083266,0.01144036288964562,0.005692828788660699
1783169575249950200,8.0979501953125,-0.01803600742816925,0.022758688568510113,0.006210159202141221
1783169575260019000,8.10801904296875,-0.012349193963408469,0.015578978798026218,0.010295228567178127
1783169575270088200,8.118088134765625,-0.01115267765522003,0.011661928651877679,0.008130472298321546
1783169575280158000,8.128157958984374,-0.015641221246123313,0.01401135045539122,0.0018978284113807602
1783169575290227200,8.138227294921874,-0.0101040453851223,0.00991724040901754,0.004421092961437534
1783169575300296200,8.148296142578126,-0.00800911893248558,0.009299181575910188,0.010445676738402108
1783169575310365200,8.158365234375,-0.01818506051003933,0.007796576726925559,0.007300330200669123
1783169575320435000,8.16843505859375,-0.01474339562356472,-0.01442494535811711,0.01626790291874786
1783169575330504200,8.178504150390625,-0.006812602624297142,0.009226317269098944,-0.003021272633492481
1783169575340573200,8.1885732421875,-0.007262099957466125,0.010594943307759239,0.0017901428112934807
1783169575350643200,8.198643310546874,-0.01788695434629917,0.002009663888555951,0.007015452269616071
1783169575360712000,8.2087119140625,-0.004120294800400734,0.0171736686775228,0.00684399784298148
1783169575370781200,8.21878125,-0.008608838391304016,0.014903755550738423,-0.0006729353920789435
1783169575380851000,8.228850830078125,-0.02925882771015167,0.003904135865648277,0.01434218870330951
1783169575390920200,8.238920166015625,-0.0009779051214456557,0.01045550743760541,0.003807059566187672
1783169575400989000,8.248989013671874,-0.014594927063584328,-0.0001907915980555117,-0.004090024101367453
1783169575411058200,8.25905810546875,-0.01803600742816925,0.00809336314983666,-0.006710898098780308
1783169575421128000,8.2691279296875,-0.015492168164253233,0.009050280282180755,0.003728173085610615
1783169575431197200,8.279197265625,-0.01968202106952667,0.011304959307215175,0.004930812032264657
1783169575441266200,8.28926611328125,-0.024170564660429952,0.007478331957454793,-0.009522498620522674
1783169575451336200,8.299336181640625,-0.01668926899433136,0.015804526615631767,-0.0031921094305522274
1783169575461405000,8.309405029296874,-0.00696340927183628,0.009425694032409228,0.00784992804909125
1783169575471474200,8.31947412109375,-0.007561959686875343,0.006342404996394179,-0.012619972587161464
1783169575481544000,8.3295439453125,-0.016089549535512924,0.0031090216988930476,0.0009187428297125733
1783169575491613200,8.33961328125,-0.0174368724912405,0.009202429503435269,-0.002549281482369406
1783169575501682000,8.349681884765625,-0.013546294793486595,0.01180838335128501,-0.003590108330280054
1783169575511751200,8.359751220703124,0.001118190374970436,0.006966920969751663,-0.0002346741222660057
1783169575521821000,8.369821044921874,-0.016537877824902535,0.0012841260929824783,0.01792914152870071
1783169575531890200,8.37989013671875,-0.01788403173685074,0.008797182303946464,0.015849545075936475
1783169575541959200,8.389959228515625,-0.009952654215693474,0.013361403213255107,-0.014892260334122692
1783169575552029200,8.400029296875,-0.012197802793979645,0.01928363286908716,-0.002778233683324652
1783169575562098000,8.410097900390625,-0.007259761869907379,0.005790086609567515,0.0005337803664267995
1783169575572167200,8.420167236328124,-0.019081717088818548,0.01234333047820255,0.004030969124200055
1783169575582237000,8.43023681640625,-0.014293313768506049,-0.002811728385905735,0.01034691537193139
1783169575592306200,8.44030615234375,-0.02521685884296894,0.01256620684810914,0.007412677134497789
1783169575602375000,8.450375,-0.014292729246616363,0.01423740516307298,0.012247981486591742
1783169575612444400,8.4604443359375,0.003363338953256607,0.001830297866812907,0.02670491457679309
1783169575622514200,8.47051416015625,-0.011301146215200423,0.020688462732289917,0.010452669309836345
1783169575632583400,8.48058349609375,-0.005166004461050033,0.002968882575840689,0.006175513722089817
1783169575642652200,8.490652099609376,-0.007260930913686752,-0.008062086662161164,0.010122804884519427
1783169575652722400,8.500722412109376,-0.02072773073017597,0.01982020569751039,-0.0005300471895141527
1783169575662791200,8.510791259765625,-0.03135141607522964,0.025172585876402444,0.0023183884860773106
1783169575672860400,8.5208603515625,-0.01399345403909683,0.006610714243492111,0.004467431162571301
1783169575682930200,8.53093017578125,-0.018033084818720818,0.017730503409262747,0.012830311419192003
1783169575692999400,8.54099951171875,-0.00995323873758316,0.018672734429128465,0.009703331655211513
1783169575703068200,8.551068115234376,-0.02312193239033222,-0.003605285349814221,0.007023078453645575
1783169575713138400,8.561138427734376,-0.028808745855093,0.012493790065869688,0.0003315928748110309
1783169575723207200,8.571207275390625,-0.01788520078063011,0.004597853750851936,-0.00022937460935208945
1783169575733276400,8.5812763671875,-0.019082301610708237,-0.002601853061467409,0.004538785073952749
1783169575743345200,8.59134521484375,-0.019979542711377144,0.006516464655357413,-0.002050498222443275
1783169575753415400,8.60141552734375,-0.0038180969834327697,0.021551098310458473,0.0109390577374259
1783169575763484200,8.611484130859376,-0.01579085884988308,-0.002750499717961065,0.003901142474252265
1783169575773553400,8.621553466796875,-0.006064999127388,0.0040260863114614034,0.0009979261378117372
1783169575783623400,8.63162353515625,-0.021177228063344954,0.011711444049142301,-0.00840963629957405
1783169575793692400,8.6416923828125,-0.021477087792754174,0.013600216937810182,-0.00653342492331285
1783169575803761200,8.65176123046875,-0.005315057542920112,0.015538459557970053,-0.010791388328466564
1783169575813831400,8.66183154296875,-0.004866729253530502,0.008592796005378477,0.003161293025535997
1783169575823900400,8.671900390625,0.003961304846405982,0.013460493373288772,0.016424358422361545
1783169575833969400,8.681969482421875,-0.020130933880805967,0.011797099338867701,-0.01267568140483927
1783169575844038100,8.6920380859375,-0.019681436547636984,0.008871407450782135,-0.0019386010964750312
1783169575854108400,8.7021083984375,0.008749708166718483,0.006157006526086479,0.007710029812989523
1783169575864177200,8.71217724609375,0.0011170213311910628,-0.003287876263982616,0.026950434320059138
1783169575874246400,8.722246337890626,-0.017737316742539404,0.006336587176960892,-0.011341015859640901
1783169575884316400,8.73231640625,-0.019083470654487608,0.012531998617830685,0.0017329863886232488
1783169575894385400,8.742385498046875,-0.014294482812285422,-0.001705781004577875,0.012593075447081355
1783169575904454100,8.7524541015625,-0.014144845208525656,0.013561990119540132,0.010895336185063933
1783169575914524400,8.7625244140625,-0.02087853737771511,0.01832414018716663,0.005858400322136003
1783169575924593400,8.772593505859374,-0.0012760112851858138,-0.00853644444195088,0.017521180640673265
1783169575934662400,8.782662353515626,-0.01414426068663597,0.0041116594027960675,0.014669346289953682
1783169575944731100,8.792731201171875,-0.011299392649531365,0.014520966778229921,-0.006003930289647541
1783169575954801400,8.802801513671875,-0.013987608820199966,0.013252271149819717,0.0036070743064570703
1783169575964870400,8.812870361328125,-0.031770518270134926,0.024437535900389773,-0.008582082815119066
1783169575974939400,8.822939453125,-0.08860767325758934,0.02209012339087203,-0.0252910976895364
1783169575985009400,8.833009521484374,-0.014379823008179663,0.001271668470208533,0.02025264229802415
1783169575995078400,8.843078369140626,0.059683776590228076,-0.013057118470477871,0.05275777215275448
1783169576005147400,8.8531474609375,0.04665361462533474,0.004178098535398021,0.04436519772747997
1783169576015217400,8.863217529296875,-0.023836218139529228,0.0048209219170035796,0.0010906402143416925
1783169576025286400,8.873286376953125,0.026733693146705626,0.009468460028478875,-0.006469073858164484
1783169576035355400,8.88335546875,-0.029535306563973424,0.03218961133188568,-0.006950843192852335
1783169576045424000,8.893424072265624,-0.038818098694086076,0.021405282931867987,-0.01859584582610405
1783169576055494400,8.903494384765626,-0.02849719568789005,0.023151870870869607,-0.005289023485942743
1783169576065563400,8.9135634765625,-0.004410802179574966,0.006414383387216367,-0.005476083048729924
1783169576075632400,8.92363232421875,0.020129764837026595,-0.0025461499520111827,0.0010969843318045605
1783169576085702400,8.933702392578125,-0.05768237363994121,0.009820552268624305,0.0022450789379829072
