time,seconds_elapsed,z,y,x
1783169567224711700,0.072711669921875,-0.0014320177724584937,-0.011287993751466274,0.0005178356077522039
1783169567234780700,0.08278076171875,0.00010595773346722126,0.0045852456241846085,0.004422295838594437
1783169567244850700,0.0928505859375,-0.0006261300295591354,-0.0009570661932229996,-0.0029227109625935555
1783169567254919700,0.102919677734375,0.0005688304081559181,0.00502865482121706,-0.0013338690623641014
1783169567264988700,0.11298876953125,0.0010354580590501428,-0.0035592392086982727,0.0026637150440365076
1783169567275058700,0.12305859375,0.00027991924434900284,-0.001666264608502388,0.0027380171231925488
1783169567285127700,0.133127685546875,-0.0014288068050518632,0.0025537796318531036,-0.0024225693196058273
1783169567295196700,0.14319677734375,0.0015241062501445413,0.0028192964382469654,-0.0007295981049537659
1783169567305265700,0.153265625,0.0013086984399706125,0.0017774691805243492,0.00047406391240656376
1783169567315335700,0.163335693359375,0.0014929891331121325,-0.00023215264081954956,-0.0010676397942006588
1783169567325404700,0.17340478515625,0.0006118048331700265,0.0002967463806271553,0.001238023629412055
1783169567335473700,0.1834736328125,-0.0004992659669369459,0.0026160934939980507,-0.0018581673502922058
1783169567345543700,0.193543701171875,-0.002293640747666359,0.00130781764164567,0.0017652001697570086
1783169567355612700,0.20361279296875,0.0003290402237325907,-0.00379266869276762,0.0038845438975840807
1783169567365681700,0.213681640625,0.00038610148476436734,0.0008148741908371449,0.002021766733378172
1783169567375751700,0.223751708984375,-0.001265590894035995,0.00011952314525842667,0.0009533064439892769
1783169567385820700,0.233820556640625,-0.0016353073297068477,0.0009006201289594173,0.0004911439027637243
1783169567395889700,0.2438896484375,-0.0010371614480391145,-0.0016333777457475662,-0.00007877242751419544
1783169567405959700,0.253959716796875,0.0016885071527212858,-0.001254539005458355,-0.0008637290447950363
1783169567416028700,0.264028564453125,-0.00036052893847227097,0.0005545462481677532,-0.001753491349518299
1783169567426097700,0.27409765625,0.0006558586028404534,0.000042957253754138947,-0.0027383239939808846
1783169567436167700,0.284167724609375,-0.0003185920650139451,-0.0012185825034976006,0.002442056778818369
1783169567446236700,0.294236572265625,0.0009359606192447245,-0.0007175104692578316,0.002090651076287031
1783169567456305700,0.3043056640625,0.0009356943191960454,-0.001627245917916298,-0.00017143785953521729
1783169567466376000,0.3143759765625,-0.0025106605608016253,-0.0000937972217798233,-0.000553955789655447
1783169567476444700,0.324444580078125,-0.0007178205996751785,0.0001456211321055889,0.00004205969162285328
1783169567486513700,0.334513671875,-0.002065562643110752,-0.0013790354132652283,0.00014681345783174038
1783169567496582700,0.344582763671875,-0.0006168030668050051,0.00021459953859448433,-0.0001794234849512577
1783169567506653000,0.35465283203125,-0.0019714697264134884,-0.00000724010169506073,-0.0022275708615779877
1783169567516721700,0.3647216796875,0.000572914257645607,-0.0003041820600628853,0.0018380109686404467
1783169567526790700,0.374790771484375,0.0006001981673762202,-0.001106729730963707,0.002597052836790681
1783169567536860700,0.384860595703125,-0.0013183431001380086,0.0006629410199820995,-0.00047490326687693596
1783169567546930000,0.394929931640625,-0.0007302755257114768,-0.00009020045399665833,-0.0005141394212841988
1783169567556998700,0.40499853515625,0.0027358285151422024,0.0007636095397174358,-0.0005982951261103153
1783169567567069000,0.41506884765625,-0.001208704779855907,0.00002857297658920288,0.0012661805376410484
1783169567577137700,0.4251376953125,-0.0008110947674140334,0.0003811754286289215,-0.0012225434184074402
1783169567587206700,0.43520654296875,-0.0007794948760420084,0.0007645287550985813,-0.000462542288005352
1783169567597276700,0.445276611328125,0.0007970964070409536,-0.00004134327173233032,0.002917275298386812
1783169567607345700,0.455345703125,-0.0007366262143477798,-0.001534697599709034,-0.0007381988689303398
1783169567617414400,0.465414306640625,0.00041252770461142063,-0.0010824929922819138,0.0002791285514831543
1783169567627484700,0.475484619140625,-0.00038869737181812525,0.00007717683911323547,0.0017889149021357298
1783169567637553700,0.4855537109375,0.0012717836070805788,0.00011526001617312431,-0.0018444359302520752
1783169567647622700,0.49562255859375,-0.0008102341089397669,-0.0010506706312298775,-0.0013981778174638748
1783169567657691400,0.50569140625,0.00012932904064655304,-0.0020924992859363556,0.001942491508089006
1783169567667761700,0.51576171875,-0.0024664397351443768,-0.0011361641809344292,0.0009291484020650387
1783169567677830700,0.52583056640625,0.00022814655676484108,0.000928584486246109,0.00414092093706131
1783169567687899600,0.535899658203125,-0.00033247016835957766,-0.0006188461557030678,-0.0008929437026381493
1783169567697969700,0.5459697265625,-0.0024938916321843863,-0.0012079374864697456,0.0014687476214021444
1783169567708038700,0.55603857421875,0.0012468474451452494,0.001115539576858282,0.0031408173963427544
1783169567718107600,0.566107666015625,-0.0020996807143092155,-0.0024586888030171394,0.0019282801076769829
1783169567728177700,0.576177734375,-0.00024249032139778137,-0.00031004659831523895,0.00044375238940119743
1783169567738246700,0.58624658203125,0.001713068806566298,0.0019251443445682526,0.0005566703621298075
1783169567748315600,0.596315673828125,0.0017209751531481743,-0.0006075240671634674,0.001979505643248558
1783169567758385700,0.6063857421875,0.0008924657013267279,-0.000035210512578487396,0.00015257718041539192
1783169567768454700,0.61645458984375,0.0016115161124616861,-0.0020300569012761116,0.00035580480471253395
1783169567778523600,0.626523681640625,0.001417904393747449,-0.0011616004630923271,0.00018696021288633347
1783169567788593400,0.636593505859375,0.0007101146038621664,-0.00039833132177591324,0.0002588382922112942
1783169567798662700,0.64666259765625,0.00042435742216184735,0.0025769518688321114,0.0012077225837856531
1783169567808731600,0.656731689453125,-0.0008862323593348265,-0.0004362007603049278,0.0031784786842763424
1783169567818800600,0.666800537109375,-0.00032217486295849085,-0.00019118934869766235,0.0001672424841672182
1783169567828870700,0.67687060546875,0.00011042552068829536,-0.0004942519590258598,-0.0024482053704559803
1783169567838939600,0.686939697265625,-0.0013053109869360924,-0.000020475126802921295,-0.0006508380174636841
1783169567849008600,0.697008544921875,-0.0000398287083953619,-0.00007335934787988663,0.002337097190320492
1783169567859078700,0.70707861328125,0.0007561901584267616,0.00013703014701604843,0.0007328090723603964
1783169567869147600,0.717147705078125,-0.0002490986371412873,0.0015510120429098606,0.0026934342458844185
1783169567879216600,0.727216552734375,-0.0003542935010045767,0.0008410136215388775,-0.001939933281391859
1783169567889286400,0.737286376953125,0.0008112303330563009,0.001281240489333868,0.00032311188988387585
1783169567899355600,0.747355712890625,0.0005523710860870779,-0.00006232410669326782,-0.0030630973633378744
1783169567909424600,0.757424560546875,-0.00038586335722357035,7.897615432739258e-7,-0.0012966352514922619
1783169567919494700,0.76749462890625,-0.00002021132968366146,0.0003845514729619026,0.0015217880718410015
1783169567929563600,0.777563720703125,-0.0011728042736649513,0.00007802248001098633,0.0015240565408021212
1783169567939632600,0.787632568359375,0.0015039388090372086,0.0025025643408298492,0.0008825010154396296
1783169567949702400,0.797702392578125,0.0011506263399496675,-0.0006522415205836296,-0.00036133313551545143
1783169567959771600,0.807771728515625,-0.0006318272789940238,0.00032274192199110985,-0.000045215943828225136
1783169567969840600,0.817840576171875,-0.00014988682232797146,-0.00057264044880867,-0.0028063703794032335
1783169567979910700,0.82791064453125,0.0007803553016856313,0.001251358538866043,-0.0010809085797518492
1783169567989979400,0.8379794921875,-0.00245110341347754,-0.001128130592405796,-0.0008591264486312866
1783169568000048600,0.848048583984375,-0.0017168698832392693,0.0004567163996398449,0.001300431089475751
1783169568010117600,0.85811767578125,0.0005694400751963258,-0.0019030459225177765,-0.0007460671477019787
1783169568020187600,0.868187744140625,-0.00010354071855545044,0.0021420293487608433,-0.0028955042362213135
1783169568030256400,0.87825634765625,-0.0009880695724859834,0.001960227731615305,0.0001815736759454012
1783169568040325600,0.88832568359375,-0.001753728254698217,0.0015074904076755047,0.0026319483295083046
1783169568050395400,0.8983955078125,0.0015198325272649527,-0.00006899889558553696,-0.000860671978443861
1783169568060464600,0.908464599609375,0.0003309973981231451,-0.0005696732550859451,-0.001858824398368597
1783169568070533600,0.91853369140625,-0.0004239707486703992,0.00006417324766516685,-0.0013337014243006706
1783169568080603600,0.928603759765625,-0.0029518434312194586,-0.00039495527744293213,0.0023345365189015865
1783169568090672400,0.93867236328125,-0.0018931219819933176,-0.00004571210592985153,-0.001663025002926588
1783169568100741600,0.94874169921875,-0.0009567546658217907,0.0009079664014279842,-0.0031389491632580757
1783169568110811600,0.958811767578125,0.0013231339398771524,0.003728460054844618,-0.0005643677432090044
1783169568120880600,0.968880615234375,0.001127924188040197,0.0032163341529667377,-0.0013076558243483305
1783169568130949400,0.978949462890625,-0.0010153120383620262,-0.0006339168176054955,0.0010362609755247831
1783169568141019600,0.98901953125,-0.001475506229326129,0.0008244304917752743,-0.00012620887719094753
1783169568151088400,0.99908837890625,-0.00014870369341224432,-0.0007444443181157112,-0.0007858795579522848
1783169568161157600,1.00915771484375,-0.0002387185813859105,-0.002190008759498596,0.0026485330890864134
1783169568171226600,1.0192265625,0.0022194143384695053,-0.00013099145144224167,-0.0010743546299636364
1783169568181296600,1.029296630859375,0.0013858448946848512,-0.00022153835743665695,0.0008353979792445898
1783169568191365400,1.039365478515625,0.00020131294149905443,0.0009009856730699539,0.0000062694307416677475
1783169568201434600,1.0494345703125,0.0012713710311800241,-0.00012646149843931198,0.0001173233613371849
1783169568211504600,1.059504638671875,0.00015622819773852825,0.0028170007281005383,-0.0009027922060340643
1783169568221573600,1.06957373046875,0.0026460173539817333,0.0009991270489990711,-0.0024607412051409483
1783169568231642400,1.079642333984375,0.002529385033994913,-0.00012340117245912552,-0.001964074093848467
1783169568241712600,1.089712646484375,0.0004965941770933568,0.0008949916809797287,-0.0020535564981400967
1783169568251781600,1.09978173828125,-0.0007417122833430767,0.0010200291872024536,-0.003615363035351038
1783169568261850600,1.1098505859375,-0.0002615443663671613,0.0018370868638157845,0.0019138917559757829
1783169568271920600,1.119920654296875,0.0006234091706573963,-0.00014137011021375656,0.0020356085151433945
1783169568281989600,1.12998974609375,0.00023964769206941128,-0.0017762845382094383,0.0015602342318743467
1783169568292058600,1.14005859375,0.0020482782274484634,-0.0007766718044877052,0.0008903087582439184
1783169568302128600,1.150128662109375,-0.0006138175958767533,0.0018774345517158508,0.002340932609513402
1783169568312197600,1.16019775390625,-0.000561521970666945,0.000882473774254322,-0.00026462459936738014
1783169568322266600,1.1702666015625,0.00023423065431416035,-0.00072447769343853,0.0008459135424345732
1783169568332335600,1.180335693359375,0.0011923594865947962,0.002628579270094633,0.0003325999714434147
1783169568342405600,1.190405517578125,0.00048502383287996054,0.0016546612605452538,0.0001978438813239336
1783169568352474600,1.200474609375,-0.0010125980479642749,-0.0003999704495072365,0.0005520377308130264
1783169568362543600,1.210543701171875,0.0012449637288227677,0.002439225558191538,-0.0007324051111936569
1783169568372613600,1.220613525390625,-0.00019584165420383215,-0.0009076958522200584,-0.0021512822713702917
1783169568382682600,1.2306826171875,-0.00007546681445091963,-0.0011854637414216995,0.001022406853735447
1783169568392751600,1.240751708984375,0.0012483487371355295,-0.0009151538833975792,0.00036096503026783466
1783169568402821600,1.250821533203125,0.00003661040682345629,0.0006515835411846638,0.0014259633608162403
1783169568412890600,1.260890625,-0.001088848803192377,0.0006562373600900173,-0.0010800417512655258
1783169568422959600,1.270959716796875,-0.002072087721899152,-0.0012258188799023628,0.0003687178250402212
1783169568433029600,1.281029541015625,-0.0012723961845040321,-0.0003131488338112831,-0.0017662371974438429
1783169568443098600,1.2910986328125,0.00027037307154387236,0.00018326472491025925,-0.0007134897168725729
1783169568453167600,1.301167724609375,-0.000021817628294229507,0.001413910649716854,-0.0008726597297936678
1783169568463236600,1.311236572265625,-0.0009531249525025487,-0.0009850645437836647,0.000622971449047327
1783169568473306600,1.321306640625,0.00019940664060413837,-0.00021461397409439087,-0.0012096432037651539
1783169568483375600,1.331375732421875,-0.0015556163853034377,0.0000620880164206028,-0.0010535819455981255
1783169568493444600,1.341444580078125,-0.0029969613533467054,0.0033995606936514378,0.0014000744558870792
1783169568503514600,1.3515146484375,0.0013282785657793283,0.0004320000298321247,0.0010804953053593636
1783169568513583600,1.36158349609375,-0.0023494837805628777,-0.0011505810543894768,0.0005203031469136477
1783169568523652600,1.371652587890625,0.0006793292704969645,-0.000087713822722435,-0.00046879472211003304
1783169568533722600,1.38172265625,-0.003934597130864859,-0.0005492400377988815,0.0018707922426983714
1783169568543791600,1.39179150390625,0.0018268853891640902,-0.00008398573845624924,-0.00012151850387454033
1783169568553860600,1.401860595703125,-0.001255520386621356,0.00020003877580165863,0.000005909707397222519
1783169568563930600,1.4119306640625,0.0004632837953977287,0.0020738388411700726,0.002584382425993681
1783169568573999600,1.42199951171875,-0.0010395731078460813,-0.00015934929251670837,0.0005753496661782265
1783169568584068600,1.432068603515625,-0.0016688780160620809,-0.0007550977170467377,0.0018938806606456637
1783169568594138600,1.442138671875,0.00048612389946356416,0.0009445236064493656,-0.000800898764282465
1783169568604207600,1.45220751953125,-0.0010137684876099229,0.0014020544476807117,-0.00012285797856748104
1783169568614276600,1.462276611328125,0.0009767693700268865,-0.00030115991830825806,-0.002316974103450775
1783169568624345600,1.472345703125,-0.001229393295943737,-0.0007411148399114609,-0.0003286581486463547
1783169568634415600,1.48241552734375,-0.001171959564089775,-0.0005106804892420769,0.00015975232236087322
1783169568644484600,1.492484619140625,0.002246473915874958,0.000048051122575998306,-0.0021814326755702496
1783169568654553600,1.5025537109375,-0.0004164878046140075,0.000955396331846714,-0.003154085949063301
1783169568664623600,1.51262353515625,-0.0013603121042251587,0.0005455357022583485,-0.0004520425572991371
1783169568674692600,1.522692626953125,0.00012252095621079206,-0.00015404541045427322,-0.0027500740252435207
1783169568684761600,1.53276171875,0.0017060365062206984,0.00032106228172779083,-0.00039211148396134377
1783169568694831600,1.54283154296875,0.0002524848096072674,0.0011033536866307259,-0.002859503496438265
1783169568704900600,1.552900634765625,0.0013595608761534095,0.0006588720716536045,-0.00030499929562211037
1783169568714969600,1.562969482421875,-0.00021239218767732382,-0.0002182982861995697,-0.0009116048458963633
1783169568725039400,1.573039306640625,-0.0015373148489743471,0.0004640035331249237,-0.00042078434489667416
1783169568735108600,1.583108642578125,0.0014809141866862774,0.0030437526293098927,-0.001052384963259101
1783169568745177600,1.593177490234375,0.001619664835743606,0.0009214798919856548,0.0014448610600084066
1783169568755247600,1.60324755859375,0.0005774468882009387,0.0002825050614774227,-0.0029521307442337275
1783169568765316600,1.613316650390625,0.0002163222525268793,0.0008236593566834927,0.0009739014785736799
1783169568775385600,1.623385498046875,0.002132001332938671,0.00009518535807728767,-0.004062626510858536
1783169568785454600,1.63345458984375,-0.0008552663493901491,-0.0006244005635380745,0.00011267769150435925
1783169568795524600,1.643524658203125,-0.00026975374203175306,-0.0010841311886906624,0.0018278004135936499
1783169568805593600,1.653593505859375,-0.0004623002605512738,0.0008525201119482517,0.0029391376301646233
1783169568815662600,1.66366259765625,0.000942332437261939,-0.00031914934515953064,-0.000851241871714592
1783169568825732600,1.673732666015625,0.0002746779937297106,0.0001668771728873253,0.002786635886877775
1783169568835801600,1.683801513671875,-0.0005050658946856856,0.00022709602490067482,0.002198635833337903
1783169568845870600,1.69387060546875,-0.0010970867006108165,-0.000598483718931675,0.0033150329254567623
1783169568855940600,1.703940673828125,0.0002926840679720044,0.0009548165835440159,0.0005388071294873953
1783169568866009600,1.714009521484375,0.00032437569461762905,0.0009734588675200939,0.0012317616492509842
1783169568876078600,1.72407861328125,-0.0008889774326235056,0.0014206990599632263,-0.0014829013962298632
1783169568886148600,1.734148681640625,-0.0010522291995584965,-0.00010635796934366226,-0.001770522678270936
1783169568896217600,1.744217529296875,0.0014831844018772244,-0.0005917921662330627,-0.0030701367650181055
1783169568906286600,1.75428662109375,0.0011428323341533542,-0.00009324867278337479,0.002568307798355818
1783169568916355600,1.76435546875,0.0015666743274778128,0.0009371191263198853,0.0002166281919926405
1783169568926425600,1.774425537109375,0.0001594600034877658,0.0008271308615803719,0.0000067711807787418365
1783169568936494600,1.78449462890625,-0.0004521813243627548,0.00010007061064243317,0.001631743973121047
1783169568946563600,1.7945634765625,-0.0010553873144090176,-0.0016541536897420883,0.0001688697375357151
1783169568956633600,1.804633544921875,-0.00028060353361070156,-0.0017437320202589035,0.002859214786440134
1783169568966702600,1.81470263671875,0.00002033368218690157,0.00024271942675113678,0.0001782106701284647
1783169568976771600,1.824771484375,0.00006680702790617943,-0.000004355795681476593,0.0016823012847453356
1783169568986841600,1.834841552734375,0.0000620132777839899,0.0004150918684899807,0.0016194507479667664
1783169568996910600,1.84491064453125,0.0001421797787770629,0.0006804205477237701,-0.00030513317324221134
1783169569006979600,1.8549794921875,-0.0012991230469197035,-0.0011758031323552132,-0.0004196490626782179
1783169569017049600,1.865049560546875,-0.0008301906054839492,-0.0008989227935671806,0.0005413449835032225
1783169569027118600,1.87511865234375,-0.0014230102533474565,0.000494709238409996,-0.00013003800995647907
1783169569037187600,1.8851875,0.00020105286967009306,0.002596672624349594,-0.000724797835573554
1783169569047257600,1.895257568359375,0.00008680322207510471,-0.0010481299832463264,0.0019554072059690952
1783169569057326600,1.90532666015625,-0.0000902081374078989,-0.0014976495876908302,0.0006880920846015215
1783169569067395600,1.9153955078125,0.0012594818836078048,-0.00023824069648981094,0.001109137898311019
1783169569077464600,1.925464599609375,-0.0014044156996533275,-0.0007502753287553787,0.00015960074961185455
1783169569087534600,1.93553466796875,-0.00043103040661662817,-0.0018834499642252922,0.0020757452584803104
1783169569097603600,1.945603515625,-0.00008235755376517773,0.0001269327476620674,0.0015449542552232742
1783169569107672600,1.955672607421875,0.001473194919526577,-0.0019862856715917587,0.0023345816880464554
1783169569117742600,1.96574267578125,0.0010452765272930264,0.002979712560772896,0.00026203785091638565
1783169569127811600,1.9758115234375,0.0012338283704593778,0.0018089869990944862,0.0002346073742955923
1783169569137880600,1.985880615234375,0.0003089368110522628,0.0008969590999186039,-0.0014537856914103031
1783169569147950600,1.99595068359375,-0.0010921522043645382,-0.00016111508011817932,-0.000122737605124712
1783169569158019600,2.00601953125,0.0018742027459666133,-0.001415233127772808,0.0014256183058023453
1783169569168088600,2.016088623046875,0.0011141365393996239,0.004052236210554838,-0.0013648420572280884
1783169569178158600,2.02615869140625,-0.0019639497622847557,0.0015336312353610992,0.002622776199132204
1783169569188227600,2.0362275390625,0.0022339909337460995,0.0011927462182939053,-0.001970910234376788
1783169569198296600,2.046296630859375,-0.001030848710797727,-0.0021186070516705513,-0.0021494238171726465
1783169569208365600,2.056365478515625,-0.0003709173761308193,-0.0006195139139890671,0.001308158040046692
1783169569218435600,2.066435546875,-0.0008380194194614887,0.00042795948684215546,0.002335545141249895
1783169569228504600,2.076504638671875,0.0016262035351246595,-0.0001225154846906662,0.002525694901123643
1783169569238573600,2.086573486328125,-0.0004145810380578041,0.0008205617778003216,-0.0008273038547486067
1783169569248643600,2.0966435546875,0.0005239169695414603,0.0014535952359437943,0.00287502259016037
1783169569258712600,2.106712646484375,0.001344296964816749,-0.0002878457307815552,0.0013546973932534456
1783169569268781600,2.116781494140625,-0.00044374936260282993,-0.00010115839540958405,0.0003650668077170849
1783169569278851600,2.1268515625,-0.0006922975881025195,0.0013291561044752598,-0.0009371624328196049
1783169569288920600,2.136920654296875,-0.0002510118065401912,0.00002846820279955864,-0.0006607263348996639
1783169569298989600,2.146989501953125,0.0005033069755882025,0.0012778528034687042,-0.0008288153912872076
1783169569309059600,2.1570595703125,-0.00017792964354157448,-0.00010672444477677345,0.0011467172298580408
1783169569319128600,2.167128662109375,-0.0007200032705441117,0.00039836158975958824,0.000024629756808280945
1783169569329197600,2.177197509765625,-0.0008883149130269885,0.0011557647958397865,0.0031676925718784332
1783169569339267600,2.187267578125,0.0015859921695664525,-0.002767791971564293,0.0005684427451342344
1783169569349336600,2.197336669921875,0.00004348927177488804,0.00019577378407120705,-0.001050492748618126
1783169569359405600,2.207405517578125,0.0004170614411123097,-0.0008860421366989613,-0.0004442725330591202
1783169569369474600,2.217474609375,0.0007915018941275775,0.002359552774578333,0.0003464198671281338
1783169569379544600,2.227544677734375,-0.0008360646897926927,-0.0008496870286762714,-0.00010438007302582264
1783169569389613600,2.237613525390625,0.0015099139418452978,-0.0002475460059940815,0.0006178691983222961
1783169569399682600,2.2476826171875,-0.0008518852991983294,0.0018320069648325443,0.0000745127908885479
1783169569409752600,2.257752685546875,-0.0007722567534074187,0.0017659603618085384,0.0020045056007802486
1783169569419821600,2.267821533203125,0.0005112825310789049,0.0015357313677668571,-0.0002504067961126566
1783169569429890600,2.277890625,-0.00030923739541321993,-0.0011721705086529255,0.0008785070385783911
1783169569439960600,2.287960693359375,0.0010410561226308346,-0.0014735953882336617,0.00210366677492857
1783169569450029600,2.298029541015625,-0.0016215721843764186,-0.00047863833606243134,-0.0019999982323497534
1783169569460098600,2.3080986328125,-0.0008947002934291959,-0.0003781979903578758,-0.00520097091794014
1783169569470168600,2.31816845703125,0.0024409089237451553,-0.003544962964951992,0.0005471957847476006
1783169569480237600,2.328237548828125,0.00019665819127112627,-0.0010131141170859337,-0.002150836167857051
1783169569490306600,2.338306640625,-0.0019109674030914903,-0.0009838193655014038,0.0007823691703379154
1783169569500375600,2.34837548828125,-0.0008329012198373675,-0.0014891494065523148,-0.001054074615240097
1783169569510445600,2.358445556640625,0.0006736490759067237,-0.0014944756403565407,0.0008346391841769218
1783169569520514600,2.3685146484375,-0.0009326706640422344,-0.004155860748142004,0.003093500155955553
1783169569530583600,2.37858349609375,-0.0019910107366740704,0.0006514107808470726,-0.0002612839452922344
1783169569540653800,2.38865380859375,0.00011304474901407957,0.0008520148694515228,-0.00035683903843164444
1783169569550722600,2.39872265625,0.000008116243407130241,0.001021658070385456,0.0027718425262719393
1783169569560791600,2.40879150390625,0.0017497292719781399,0.00038168858736753464,0.0008508118335157633
1783169569570861600,2.418861572265625,0.0008032418554648757,-0.0009602787904441357,0.0014550832565873861
1783169569580930800,2.428930908203125,-0.0008132059592753649,-0.0011248905211687088,0.003102446673437953
1783169569590999600,2.43899951171875,0.0005444734706543386,-0.0014844173565506935,0.0009748472366482019
1783169569601069600,2.449069580078125,-0.002218544017523527,-0.0010970346629619598,0.002491772174835205
1783169569611138000,2.459137939453125,0.0004275729297660291,-0.0007071476429700851,0.00011117267422378063
1783169569621207000,2.46920703125,-0.0008245230419561267,-0.0007121595554053783,0.00005999673157930374
1783169569631275800,2.47927587890625,0.0016183945117518306,-0.0018740971572697163,-0.00031604175455868244
1783169569641346000,2.489345947265625,0.0011693150736391544,-0.0014104954898357391,0.00012660445645451546
1783169569651415000,2.4994150390625,-0.001947116106748581,0.0024169995449483395,0.0024435543455183506
1783169569661484000,2.509484130859375,0.0006505379569716752,-0.0014608982019126415,0.0016574368346482515
1783169569671554000,2.519553955078125,-0.0023646929766982794,-0.0027197743766009808,-0.000010234769433736801
1783169569681623000,2.529623046875,0.0005325758829712868,0.001552158035337925,-0.0029312465339899063
1783169569691692000,2.539692138671875,-0.0003547894302755594,-0.0012609390541911125,0.0006483085453510284
1783169569701762000,2.549761962890625,0.0014591185608878732,0.003647708334028721,-0.0013939954806119204
1783169569711831000,2.5598310546875,0.000029533752240240574,0.0010058525949716568,-0.0014272851403802633
1783169569721900000,2.569900146484375,0.00038467562990263104,-0.0014463625848293304,-0.0008054482750594616
1783169569731970000,2.579969970703125,-0.00031546945683658123,0.0017821872606873512,0.002913655946031213
1783169569742039000,2.5900390625,0.001436330727301538,0.00028806179761886597,0.002585251349955797
1783169569752108000,2.60010791015625,-0.0001706206239759922,-0.0012403260916471481,0.003126139286905527
1783169569762178000,2.610177978515625,-0.0012072916142642498,-0.003191305324435234,0.0024473320227116346
1783169569772247000,2.6202470703125,-0.0011923778802156448,0.0018692337907850742,-0.0009468668140470982
1783169569782316000,2.63031591796875,0.0015308702131733298,0.0022886665537953377,-0.00041239336133003235
1783169569792385000,2.640385009765625,-0.0020052751060575247,-0.0019646678119897842,0.0010938902851194143
1783169569802455000,2.650455078125,-0.0020527923479676247,0.0012726988643407822,0.00016489578410983086
1783169569812524000,2.66052392578125,0.0017611206276342273,-0.0012676902115345001,0.0010224336292594671
1783169569822593000,2.670593017578125,0.0015173942083492875,0.0011751172132790089,0.0009717885404825211
1783169569832663000,2.6806630859375,0.00022815796546638012,0.001428916584700346,-0.0012538153678178787
1783169569842732000,2.69073193359375,-0.00013671268243342638,-0.00003566080704331398,0.0019989926367998123
1783169569852801000,2.700801025390625,-0.0017513871425762773,0.0013537104241549969,0.0011654230765998363
1783169569862871000,2.71087109375,0.0006763282581232488,-0.0007830066606402397,0.0011402785312384367
1783169569872940000,2.72093994140625,0.0017977854004129767,0.0008777407929301262,0.003179194638505578
1783169569883009000,2.731009033203125,0.0005931882187724113,-0.0008280156180262566,0.001439737156033516
1783169569893079000,2.7410791015625,-0.0017474640626460314,-0.0016488013789057732,0.0006437182892113924
1783169569903148000,2.75114794921875,0.00013161171227693558,-0.0022982596419751644,0.00011305813677608967
1783169569913217000,2.761217041015625,0.0009617190808057785,-0.0019749519415199757,-0.0021663412917405367
1783169569923286000,2.7712861328125,-0.0006414370145648718,-0.0016028438694775105,0.0016440837644040585
1783169569933356000,2.78135595703125,-0.0002632682444527745,-0.00022785412147641182,-0.001433465164154768
1783169569943425000,2.791425048828125,-0.0009925732156261802,0.002275617327541113,0.00201245560310781
1783169569953494000,2.801493896484375,-0.00044875580351799726,-0.0018299114890396595,-0.0010962523519992828
1783169569963564000,2.81156396484375,-0.0015837199753150344,-0.0011052973568439484,0.0021304767578840256
1783169569973633000,2.821633056640625,0.0013074076268821955,0.0012092557735741138,0.001762427855283022
1783169569983702000,2.831701904296875,0.0007341414457187057,0.002182271797209978,0.0004543694667518139
1783169569993772000,2.84177197265625,-0.00044137786608189344,0.000571591779589653,0.0009060415904968977
1783169570003841000,2.851841064453125,0.0013979783980175853,0.0006497991271317005,-0.001122805057093501
1783169570013910000,2.861909912109375,0.0007628145394846797,0.0006878823041915894,0.0023688653018325567
1783169570023979800,2.871979736328125,-0.0006919072475284338,0.0008626338094472885,0.00040682731196284294
1783169570034049000,2.882049072265625,-0.001300173345953226,-0.002916924189776182,-0.0019250365439802408
1783169570044118000,2.892117919921875,0.0002777549671009183,0.0018466822803020477,-0.0011034428607672453
1783169570054187000,2.90218701171875,0.00008361053187400103,0.0009569199755787849,-0.0012445903848856688
1783169570064257000,2.912257080078125,0.0005646171630360186,0.0012094741687178612,-0.0014802641235291958
1783169570074326000,2.922325927734375,-0.0005017125513404608,-0.001062468159943819,0.002166135935112834
1783169570084395000,2.93239501953125,0.0012267475249245763,-0.000008805189281702042,-0.00009382260031998158
1783169570094465000,2.942465087890625,0.00074684590799734,-0.00012491876259446144,0.0020867735147476196
1783169570104534000,2.952533935546875,0.0006654402241110802,-0.00020205508917570114,-0.0014700496103614569
1783169570114603000,2.96260302734375,0.002676925854757428,-0.0006318893283605576,0.00007325224578380585
1783169570124672800,2.9726728515625,0.0013783385511487722,0.00042936066165566444,0.0006086267530918121
1783169570134742000,2.982741943359375,-0.0011812254087999463,-0.0008215261623263359,-0.0020785026717931032
1783169570144811000,2.99281103515625,0.00007013638969510794,-0.0005033207125961781,-0.002062280662357807
1783169570154881000,3.002881103515625,-0.0007458560867235065,-0.0021438286639750004,0.0020632222294807434
1783169570164950000,3.012949951171875,0.0023994380608201027,-0.0008561471477150917,-0.0007364200428128242
1783169570175019000,3.02301904296875,-0.00007304060272872448,0.00039873458445072174,-0.00042696064338088036
1783169570185088000,3.033087890625,-0.0017719195457175374,0.0007096934132277966,0.0005797632038593292
1783169570195158000,3.043157958984375,0.0010267964098602533,-0.002293286845088005,0.0000881438609212637
1783169570205227000,3.05322705078125,-0.0019473497522994876,0.0003733355551958084,-0.0002475692890584469
1783169570215296000,3.0632958984375,-0.0022133993916213512,0.00041541364043951035,-0.0010965852998197079
1783169570225366000,3.073365966796875,-0.0011385856196284294,0.00015838118270039558,0.000042116036638617516
1783169570235435000,3.08343505859375,-0.00004429277032613754,-0.0017367242835462093,0.002141752280294895
1783169570245504000,3.09350390625,0.002077972050756216,-0.0008572074584662914,-0.001936224289238453
1783169570255574000,3.103573974609375,-0.0017974601360037923,0.0008522756397724152,0.0009748770389705896
1783169570265643000,3.11364306640625,0.0006209955899976194,-0.000007259659469127655,0.0013640215620398521
1783169570275712000,3.1237119140625,-0.0017390977591276169,-0.002876283135265112,-0.0029846541583538055
1783169570285782000,3.133781982421875,0.0007185078575275838,-0.0010433094576001167,0.00012981519103050232
1783169570295851000,3.14385107421875,0.0007677763351239264,0.0012840270064771175,0.00041823554784059525
1783169570305920000,3.153919921875,-0.0010602088877931237,-0.0004363870248198509,0.0009596417658030987
1783169570315989000,3.163989013671875,0.0014250529929995537,-0.0007607601583003998,0.0020874906331300735
1783169570326059000,3.17405908203125,0.000013815588317811489,-0.0011663343757390976,0.0016450819093734026
1783169570336128000,3.1841279296875,0.0006322015542536974,-0.00016631744801998138,-0.002009041141718626
1783169570346197000,3.194197021484375,0.0019207913428544998,-0.0005986969918012619,-0.000764796044677496
1783169570356267000,3.20426708984375,-0.0008116120006889105,-0.0011198781430721283,-0.0007853023707866669
1783169570366336000,3.2143359375,0.0009913230314850807,-0.0022578807547688484,-0.00008600018918514252
1783169570376405000,3.224405029296875,0.0005780004430562258,-0.0007662437856197357,-0.002923065796494484
1783169570386475000,3.23447509765625,-0.0008894397178664804,0.0011204327456653118,0.002330439630895853
1783169570396544000,3.2445439453125,-0.0006438962882384658,0.0003656926564872265,0.0020255078561604023
1783169570406613000,3.254613037109375,0.0003923597978428006,0.00046324776485562325,-0.0004323786124587059
1783169570416683000,3.26468310546875,0.00011219526641070843,0.0006512668915092945,0.000637945719063282
1783169570426752000,3.274751953125,-0.0006767433369532228,-0.0023127421736717224,0.00045009981840848923
1783169570436821000,3.284821044921875,0.00017626723274588585,-0.001094878651201725,-0.0020301020704209805
1783169570446890200,3.29489013671875,0.00019800045993179083,0.0015617283061146736,-0.0022205940913408995
1783169570456960000,3.3049599609375,-0.0012001590803265572,0.0014024712145328522,0.0013728092890232801
1783169570467029000,3.315029052734375,-0.00142311688978225,0.00033742189407348633,0.00001438637264072895
1783169570477098000,3.325097900390625,-0.0011245765490457416,-0.0007555396296083927,-0.0008961483836174011
1783169570487168000,3.33516796875,-0.00024003698490560055,-0.0002750605344772339,-0.0011500827968120575
1783169570497237000,3.345237060546875,-0.00016999582294374704,0.0006711608730256557,0.0008456897921860218
1783169570507306000,3.355305908203125,0.0005777468322776258,0.0010572560131549835,-0.0018571903929114342
1783169570517376000,3.3653759765625,0.0004957214696332812,0.0000018454156816005707,-0.0012342771515250206
1783169570527445000,3.375445068359375,0.000007920665666460991,0.0010556727647781372,0.0016247353050857782
1783169570537514000,3.385513916015625,0.0015128729864954948,0.002144106663763523,-0.0018168676178902388
1783169570547584000,3.395583984375,-0.0015389790059998631,0.00002167932689189911,-0.00012603774666786194
1783169570557653000,3.405653076171875,0.002602236345410347,0.0000653550960123539,-0.0007782457396388054
1783169570567722000,3.415721923828125,-0.0009267386049032211,-0.0018823049031198025,0.0008916447404772043
1783169570577792000,3.4257919921875,0.00139713566750288,0.0007414412684738636,-0.0018913582898676395
1783169570587861000,3.435861083984375,0.0005491218762472272,0.0004311800003051758,-0.0006183581426739693
1783169570597930000,3.445929931640625,-0.001352641498669982,0.002997135743498802,0.0013060418423265219
1783169570607999200,3.455999267578125,-0.0012197061441838741,-0.0003764862194657326,0.001925565185956657
1783169570618069500,3.466069580078125,-0.000267626135610044,0.0012491075322031975,0.00015909038484096527
1783169570628138200,3.47613818359375,0.0008486929582431912,-0.0003310837782919407,0.003799931611865759
1783169570638207500,3.48620751953125,0.0014047609874978662,-0.00219210097566247,0.001851829350925982
1783169570648277200,3.49627734375,0.0006012300727888942,0.0008279276080429554,0.0026346342638134956
1783169570658346500,3.506346435546875,-0.00010077923070639372,-0.002088234294205904,-0.001056240638718009
1783169570668415200,3.516415283203125,-0.00132098444737494,0.0005613411776721478,0.0009540778119117022
1783169570678485500,3.526485595703125,0.0027922678273171186,-0.0009145825169980526,0.002122672740370035
1783169570688554200,3.53655419921875,-0.0014073895290493965,0.0017039733938872814,-0.001788213849067688
1783169570698623500,3.54662353515625,0.000938855460844934,-0.0018220520578324795,-0.0015993956476449966
1783169570708692200,3.556692138671875,0.00014006812125444412,0.0006806505843997002,0.00036170450039207935
1783169570718762500,3.566762451171875,-0.0009752636542543769,0.00046067358925938606,-0.001052966807037592
1783169570728831200,3.576831298828125,-0.002717306837439537,-0.0003816434182226658,0.003378120716661215
1783169570738900500,3.586900390625,-0.0006352473283186555,0.001445550937205553,0.0021360223181545734
1783169570748970200,3.59697021484375,-0.0004413590067997575,-0.0021762633696198463,-0.003461558138951659
1783169570759039500,3.60703955078125,0.0008814331376925111,-0.0003725038841366768,0.0011268022935837507
1783169570769108200,3.617108154296875,-0.0014085291186347604,0.001083242241293192,-0.0012137256562709808
1783169570779178500,3.627178466796875,0.00025328341871500015,0.0008763149380683899,-0.003314160741865635
1783169570789247200,3.637247314453125,-0.0010979465441778302,0.0018007541075348854,0.00015561492182314396
1783169570799316500,3.64731640625,0.0011034224880859256,-0.0002924907021224499,0.0024928050115704536
1783169570809386200,3.65738623046875,0.0005414625629782677,-0.000004391651600599289,0.00020798807963728905
1783169570819455500,3.66745556640625,0.0008988587651401758,-0.0018672728911042213,-0.0004918905906379223
1783169570829524200,3.677524169921875,0.0005057852831669152,0.0016719852574169636,0.0006000453140586615
1783169570839594200,3.68759423828125,0.0004964641993865371,-0.0007664053700864315,0.00012813322246074677
1783169570849663200,3.697663330078125,-0.0006238820496946573,0.0005445093847811222,0.0010376418940722942
1783169570859732500,3.707732421875,0.0015239573549479246,-0.002642495557665825,0.0004474853631108999
1783169570869801200,3.71780126953125,0.0012331855250522494,0.00021324120461940765,-0.003092594211921096
1783169570879871500,3.72787158203125,-0.0007468746043741703,-0.0006504221819341183,-0.0005173173267394304
1783169570889940200,3.737940185546875,-0.001828631735406816,0.0006889635697007179,-0.000748110469430685
1783169570900009500,3.748009521484375,-0.0005883974954485893,0.00016511976718902588,-0.0032160617411136627
1783169570910079200,3.758079345703125,-0.0007269206689670682,0.0009926878847181797,0.0014679098967462778
1783169570920148500,3.7681484375,0.002819610992446542,0.0011354335583746433,0.0007232900243252516
1783169570930217200,3.77821728515625,-0.0002497968962416053,0.0002022692933678627,-0.0006009417120367289
1783169570940287200,3.788287353515625,0.00019388576038181782,-0.001939977053552866,0.000004128320142626762
1783169570950356200,3.798356201171875,0.00033921038266271353,0.000032790470868349075,-0.0015995004214346409
1783169570960425500,3.808425537109375,-0.00028050714172422886,-0.0017046560533344746,0.00012516253627836704
1783169570970495200,3.8184951171875,0.0005402734386734664,-0.000004554633051156998,-0.0018131488468497992
1783169570980564500,3.828564453125,0.0008723696228116751,-0.002057052217423916,0.0038047893904149532
1783169570990633200,3.83863330078125,-0.00103433383628726,0.0015097921714186668,0.001814117538742721
1783169571000702500,3.848702392578125,-0.0006721438840031624,-0.0009171459823846817,0.0018532660324126482
1783169571010772200,3.858772216796875,0.000012026051990687847,-0.001743570901453495,0.0008065791334956884
1783169571020841500,3.868841552734375,0.00023599783889949322,0.0004681847058236599,0.0016425452195107937
1783169571030910200,3.87891015625,0.0007219008984975517,0.00019144266843795776,-0.000002926914021372795
1783169571040980200,3.888980224609375,0.0008057904778979719,0.0001317877322435379,-0.0004961441736668348
1783169571051049200,3.89904931640625,0.0017236375715583563,0.0007006707601249218,0.0015893951058387756
1783169571061118500,3.909118408203125,0.00014464929699897766,-0.00006472133100032806,-0.000789873069152236
1783169571071188500,3.9191884765625,-0.0017734383000060916,-0.00007525505498051643,-0.0003744838759303093
1783169571081257200,3.92925732421875,-0.0019079280318692327,-0.00006806477904319763,0.0012697519268840551
1783169571091326200,3.939326171875,-0.0023904703557491302,-0.0008646789938211441,0.001685254741460085
1783169571101396200,3.949396240234375,-0.00004023045767098665,0.0014818324707448483,-0.001310801599174738
1783169571111465500,3.959465576171875,-0.0000977908493950963,0.00034831976518034935,-0.0008468860760331154
1783169571121534500,3.969534423828125,-0.001165452180430293,0.0000034403055906295776,0.00041918084025382996
1783169571131603200,3.979603271484375,-0.0002941907150670886,0.00033343536779284477,-0.0017460559029132128
1783169571141673200,3.989673095703125,0.0013870628317818046,0.0022687544114887714,0.002710744272917509
1783169571151742500,3.999742431640625,-0.0013003961648792028,-0.0030945250764489174,0.004883288871496916
1783169571161811500,4.0098115234375,0.00044264289317652583,-0.00027263909578323364,-0.0022079101763665676
1783169571171881500,4.019881591796875,0.0004064592649228871,0.0009077969007194042,-0.0025641252286732197
1783169571181950200,4.0299501953125,0.0003332223277539015,-0.0024160942994058132,0.0006646912079304457
1783169571192019200,4.040019287109375,-0.0016019573668017983,-0.0007283189333975315,0.00024845427833497524
1783169571202089200,4.050089111328125,-0.001044291420839727,-0.0007576136849820614,-0.0003779211547225714
1783169571212158500,4.060158447265625,0.0013263147557154298,-0.0005834386684000492,-0.0010791230015456676
1783169571222227500,4.0702275390625,-0.0007709244964644313,0.0012506800703704357,-0.0005060108378529549
1783169571232297500,4.08029736328125,-0.000055613694712519646,-0.000050333328545093536,-0.0004616216756403446
1783169571242366200,4.0903662109375,-0.000603958498686552,-0.0006234454922378063,-0.0014520511031150818
1783169571252435500,4.100435546875,-0.00011628004722297192,0.0002084248699247837,0.0008444201666861773
1783169571262504400,4.11050439453125,0.0014685670612379909,-0.0005758758634328842,0.0018534919945523143
1783169571272574500,4.120574462890625,0.0016794982366263866,-0.0007208073511719704,-0.0019329693168401718
1783169571282643200,4.130643310546875,0.0013948064297437668,0.00007121730595827103,0.00022525619715452194
1783169571292712400,4.14071240234375,0.0023864409886300564,-0.0010376344434916973,-0.0008751461282372475
1783169571302782200,4.1507822265625,0.0005693660932593048,-0.00026212213560938835,-0.0026770406402647495
1783169571312851500,4.1608515625,-0.0010798136936500669,0.0016746115870773792,0.002022134605795145
1783169571322920400,4.17092041015625,-0.0004638246027752757,-0.0011736396700143814,0.00026551377959549427
1783169571332990500,4.180990478515625,0.00013635784853249788,-0.0003747856244444847,-0.0019189261365681887
1783169571343059200,4.19105908203125,-0.00031131948344409466,0.0005495976656675339,-0.0019639336969703436
1783169571353128400,4.20112841796875,0.0006075488636270165,0.0004629329778254032,-0.0018174401484429836
1783169571363198200,4.2111982421875,-0.0008076549274846911,-0.0004523959942162037,0.00011521601118147373
1783169571373267500,4.221267333984375,-0.00015339069068431854,-0.0007257000543177128,0.000265731243416667
1783169571383336200,4.231336181640625,0.00008389691356569529,-0.0011568660847842693,0.0010313899256289005
1783169571393405400,4.241405517578125,-0.002149744424968958,-0.000040549784898757935,0.0003070221282541752
1783169571403475200,4.25147509765625,-0.0011595810065045953,0.0006702481769025326,0.000247367424890399
1783169571413544400,4.26154443359375,0.00023842742666602135,-0.00018160603940486908,0.00011147023178637028
1783169571423613200,4.27161328125,0.0016549628926441073,0.0001440984196960926,-0.0007151749450713396
1783169571433683500,4.281683349609375,-0.00037111795973032713,-0.0015705693513154984,-0.0004648130852729082
1783169571443752200,4.291752197265625,-0.0017365205567330122,0.00017193704843521118,0.0025722561404109
1783169571453821400,4.301821533203125,0.0003101564943790436,0.0026599476113915443,-0.002444117097184062
1783169571463891200,4.31189111328125,0.0015301505336537957,-0.0001060115173459053,-0.0009799113031476736
1783169571473960400,4.32196044921875,-0.0026689288206398487,-0.001620398834347725,0.002968747867271304
1783169571484029200,4.332029296875,-0.0013197712833061814,0.0011745882220566273,-0.00010853470303118229
1783169571494099500,4.342099365234375,-0.001073529594577849,0.0015942994505167007,-0.003101087175309658
1783169571504168200,4.352168212890625,0.000518241839017719,0.0002049286849796772,-0.0003380575217306614
1783169571514237400,4.362237548828125,0.002331426599994302,0.002676233183592558,-0.0021437269169837236
1783169571524306200,4.37230615234375,-0.0010672996286302805,-0.00023753102868795395,0.001601476687937975
1783169571534376400,4.38237646484375,-0.00024131359532475471,-0.0010603275150060654,0.0009321232791990042
1783169571544445200,4.392445068359375,0.0021997399162501097,-0.00017642416059970856,-0.0013656520750373602
1783169571554514400,4.402514404296875,0.0015857601538300514,0.0013124505057930946,0.0003485057968646288
1783169571564584200,4.412584228515625,0.0024158675223588943,0.0008527887985110283,-0.0009388662874698639
1783169571574653400,4.4226533203125,-0.00012561259791254997,0.0014566821046173573,0.001959149958565831
1783169571584722200,4.43272216796875,-0.0013714393135160208,-0.00018595531582832336,0.000803870614618063
1783169571594792400,4.44279248046875,0.0001871155109256506,0.0005659819580614567,-0.0021851924248039722
1783169571604861200,4.452861083984375,-0.002075506141409278,-0.002349646296352148,-0.00031192461028695107
1783169571614930000,4.462929931640625,0.0018770336173474789,0.00014431728050112724,0.00033342442475259304
1783169571625000000,4.473,0.0017100535333156586,-0.002135880757123232,0.002296706661581993
1783169571635069000,4.48306884765625,0.000531020516064018,0.0008962340652942657,0.0008478579111397266
1783169571645138000,4.493137939453125,-0.0008005601121112704,-0.00035731540992856026,-0.001250979257747531
1783169571655208000,4.5032080078125,-0.0008366587571799755,-0.0007874434813857079,0.000548055162653327
1783169571665277000,4.51327685546875,-0.001212697010487318,-0.0008561527356505394,-0.0024208370596170425
1783169571675346000,4.523345947265625,-0.0006677164928987622,0.0011824918910861015,0.00014652754180133343
1783169571685415000,4.533414794921875,0.0007421608897857368,0.0005800849758088589,-0.0010375138372182846
1783169571695485000,4.54348486328125,-0.0024514177348464727,0.0019436264410614967,-0.00042356038466095924
1783169571705554000,4.553553955078125,-0.0008993274532258511,-0.0010423101484775543,-0.000719437375664711
1783169571715623000,4.563622802734375,0.0004925336688756943,-0.0014932765625417233,0.0014763202052563429
1783169571725693000,4.57369287109375,0.0016962825320661068,0.0022306209430098534,0.0007000088226050138
1783169571735762000,4.583761962890625,0.0005695100408047438,-0.0011551957577466965,0.00011301832273602486
1783169571745831000,4.593830810546875,-0.002348249312490225,0.0009447066113352776,0.0006656241603195667
1783169571755901000,4.60390087890625,0.001598086324520409,-0.0015382906422019005,-0.0008684855420142412
1783169571765970000,4.613969970703125,-0.0006738563533872366,0.0022391374222934246,0.0015981339383870363
1783169571776039000,4.624038818359375,0.0006174891605041921,-0.0012484053149819374,0.0023510523606091738
1783169571786109000,4.63410888671875,-0.0002254012506455183,0.0004661376588046551,-0.0010436789598315954
1783169571796178000,4.644177978515625,-0.0011793032754212618,-0.0007844818755984306,0.0003125835210084915
1783169571806247000,4.654246826171875,0.00022151938173919916,-0.0013389522209763527,0.00031817611306905746
1783169571816316000,4.66431591796875,-0.0014994790544733405,-0.0004231622442603111,0.0001299167051911354
1783169571826386000,4.674385986328125,-0.0016427569789811969,0.001687925774604082,-0.0008133752271533012
1783169571836455000,4.684454833984375,-0.001281743636354804,-0.0006171935237944126,-0.0005736313760280609
1783169571846524000,4.69452392578125,-0.0018402084242552519,0.0014723227359354496,0.0014250711537897587
1783169571856594200,4.70459423828125,-0.0020561772398650646,-0.0009796065278351307,-0.002710748463869095
1783169571866663000,4.714662841796875,-0.0021097068674862385,-0.0008123596198856831,-0.00049925921484828
1783169571876732000,4.72473193359375,-0.000819769105874002,0.001666514202952385,0.0008807128760963678
1783169571886802000,4.734802001953125,0.00037652277387678623,-0.0014539114199578762,-0.000256190774962306
1783169571896871000,4.744870849609375,-0.00037734187208116055,0.0008682277984917164,-0.0003016104456037283
1783169571906940000,4.75493994140625,-0.001315307104960084,0.0006072381511330605,-0.0007439611945301294
1783169571917010200,4.76501025390625,-0.002109271939843893,-0.00011460809037089348,0.00024741305969655514
1783169571927079000,4.775078857421875,-0.0003108391538262367,-0.0014557759277522564,0.0008466243743896484
1783169571937148000,4.78514794921875,-0.00029266648925840855,-0.0014918600209057331,-0.0011604633182287216
1783169571947217000,4.795216796875,-0.0009134493302553892,-0.0005208714865148067,-0.0007388847880065441
1783169571957287200,4.805287109375,-0.00015226227696985006,-0.0006708125583827496,-0.00045456201769411564
1783169571967356000,4.81535595703125,-0.001823662081733346,-0.001600522082298994,-0.0020908077713102102
1783169571977425000,4.8254248046875,-0.00042032054625451565,-0.0009539294987916946,0.00032787746749818325
1783169571987495000,4.835494873046875,-0.00017877179197967052,0.0013505034148693085,-0.0010750757064670324
1783169571997564200,4.845564208984375,-0.002242043148726225,0.0006499225273728371,0.0009552440606057644
1783169572007633000,4.8556328125,-0.0013994190376251936,-0.0002936357632279396,-0.00012413528747856617
1783169572017703200,4.865703125,-0.0007709338096901774,0.0019030719995498657,0.0012668773997575045
1783169572027772000,4.87577197265625,-0.001424207235686481,-0.0020301509648561478,0.0017614264506846666
1783169572037841200,4.885841064453125,-0.0009544470813125372,0.0015966752544045448,-0.0003727879375219345
1783169572047911000,4.895910888671875,-0.00048226851504296064,0.0002754810266196728,0.0010123220272362232
1783169572057980200,4.905980224609375,-0.0002636787248775363,-0.0009887171909213066,0.0005700716283172369
1783169572068049000,4.916048828125,0.00009717955254018307,-0.001271810382604599,0.0011053669732064009
1783169572078118100,4.9261181640625,0.001893271110020578,0.0005878699012100697,0.001026436686515808
1783169572088188000,4.93618798828125,0.0006969791720621288,-0.003252142108976841,-0.0006747907027602196
1783169572098257200,4.946257080078125,0.0016390657983720303,-0.002554391510784626,0.0004996713250875473
1783169572108326000,4.956325927734375,0.0003258610377088189,0.0007995939813554287,0.0017763905925676227
1783169572118396200,4.966396240234375,-0.000014490913599729538,-0.0023091137409210205,-0.002979215933009982
1783169572128465000,4.97646484375,0.0014230834785848856,-0.00014502927660942078,-0.0008497524540871382
1783169572138534100,4.9865341796875,-0.00047530210576951504,0.00008639739826321602,-0.0018642446957528591
1783169572148604000,4.99660400390625,-0.0017301836051046848,0.0013053263537585735,-0.00005782255902886391
1783169572158673200,5.006673095703125,0.0004957120399922132,-0.0018785754218697548,0.0010696952231228352
1783169572168742000,5.016741943359375,-0.001165301539003849,-0.0008053211495280266,-0.0011154287494719028
1783169572178812000,5.02681201171875,-0.00006564264185726643,0.0005944459699094296,-0.0015826537273824215
1783169572188881000,5.036880859375,-0.00030106608755886555,-0.003848239779472351,0.0011140629649162292
1783169572198950100,5.0469501953125,-0.000046365195885300636,0.0008763009682297707,0.00011139549314975739
1783169572209019000,5.057018798828125,0.00011582137085497379,0.00023101689293980598,-0.0009701142553240061
1783169572219089200,5.067089111328125,0.0007200798136182129,-0.00040809717029333115,0.00043900543823838234
1783169572229158000,5.077157958984375,-0.0002176192356273532,-0.0016738967970013618,0.0009279618971049786
1783169572239227100,5.08722705078125,0.000030392897315323353,0.0005272133275866508,-0.0021563998889178038
1783169572249297000,5.097296875,0.0003843270242214203,-0.00010049436241388321,0.0005613560788333416
1783169572259366100,5.1073662109375,0.00032463797833770514,-0.0007927389815449715,0.000039969803765416145
1783169572269435000,5.117434814453125,0.0001888166880235076,0.0005478966049849987,0.002178488066419959
1783169572279505000,5.1275048828125,-0.0016002896009013057,-0.002433349844068289,-0.0014238660223782063
1783169572289574000,5.137573974609375,0.0008855049964040518,0.0015986762009561062,-0.001774604432284832
1783169572299643100,5.14764306640625,0.0002989886561408639,0.000553215853869915,-0.0021846883464604616
1783169572309713000,5.157712890625,-0.0005364450626075268,0.0008943667635321617,0.0009647656697779894
1783169572319782100,5.1677822265625,0.00015952985268086195,-0.00010574376210570335,0.0030522162560373545
1783169572329851000,5.177850830078125,-0.000676436466164887,0.0007203686982393265,0.0021147835068404675
1783169572339920100,5.187920166015625,-0.00014438049402087927,-0.0000591096468269825,-0.00006543425843119621
1783169572349990000,5.197989990234375,-0.0005606325576081872,-0.0010253041982650757,-0.0003128419630229473
1783169572360059100,5.20805908203125,-0.0008330444106832147,0.00041274167597293854,-0.002229462843388319
1783169572370128000,5.2181279296875,-0.0012546229409053922,-0.0011808942072093487,0.0024158889427781105
1783169572380198000,5.228197998046875,0.0016861194744706154,-0.0021302453242242336,0.002363140694797039
1783169572390267000,5.238266845703125,0.001652297331020236,-0.0010047941468656063,0.0006848166231065989
1783169572400336100,5.248336181640625,0.000960966688580811,-0.0007294747047126293,-0.00043539772741496563
1783169572410406000,5.258406005859375,-0.003981593996286392,-0.00017686886712908745,-0.0006199546623975039
1783169572420475000,5.268474853515625,0.0023870361037552357,0.0017855660989880562,-0.0016142507083714008
1783169572430544000,5.2785439453125,-0.0010694804368540645,-0.0009255320765078068,0.0006249351426959038
1783169572440614000,5.28861376953125,-0.001121995155699551,-0.0010384218767285347,-0.000892390264198184
1783169572450683000,5.298682861328125,-0.0009377043461427093,-0.0002786219120025635,-0.0009991826955229044
1783169572460752100,5.308752197265625,-0.0008374288445338607,-0.00018147937953472137,0.0019510177662596107
1783169572470820900,5.31882080078125,0.0000464743934571743,0.0009002964943647385,-0.001026929123327136
1783169572480891000,5.328890869140625,-0.0017944748979061842,-0.0028854389674961567,-0.0021242150105535984
1783169572490960000,5.3389599609375,0.0033193270210176706,-0.0005477168597280979,-0.00006772205233573914
1783169572501029000,5.349029052734375,-0.0011786140967160463,-0.001176747027784586,0.000027510570362210274
1783169572511099000,5.359098876953125,0.0008592368103563786,-0.00048725446686148643,-0.0009996704757213593
1783169572521168000,5.36916796875,0.00003072153776884079,-0.0011387798003852367,0.0019845878705382347
1783169572531236900,5.37923681640625,0.0007897224277257919,0.0007129157893359661,-0.0005054681096225977
1783169572541307000,5.389306884765625,-0.0013788649812340736,0.0006665163673460484,-0.0020687333308160305
1783169572551376000,5.3993759765625,-0.00034475955180823803,0.0007935492321848869,-0.0021608788520097733
1783169572561445000,5.409445068359375,-0.0019529449054971337,0.0027239611372351646,0.0021716677583754063
1783169572571513900,5.419513916015625,0.0019720217678695917,-0.0012510726228356361,-0.00016525620594620705
1783169572581584000,5.429583984375,-0.00029431330040097237,0.0006967904046177864,-0.0022790301591157913
1783169572591652900,5.43965283203125,-0.0005632925312966108,-0.00048511987552046776,0.0038667465560138226
1783169572601722000,5.44972216796875,-0.00022617075592279434,0.0009125145152211189,0.0011571126524358988
1783169572611792600,5.459792724609375,-0.0011889033485203981,-0.00202734861522913,-0.00020163203589618206
1783169572621861400,5.469861328125,-0.0006101073231548071,0.00031246384605765343,-0.0019126995466649532
1783169572631930400,5.479930419921875,-0.001026625744998455,-0.00018048705533146858,0.0008175731636583805
1783169572642000400,5.49000048828125,-0.0021960365120321512,-0.00017336523160338402,-0.0005075037479400635
1783169572652069600,5.500069580078125,-0.00008228549268096685,-0.0016024173237383366,0.0019197011133655906
1783169572662138400,5.510138427734375,-0.0010541812516748905,-0.002227901015430689,-0.0010381699539721012
1783169572672208600,5.520208740234375,-0.0005497785750776529,0.0005527054890990257,-0.0009508184157311916
1783169572682277400,5.53027734375,0.0007406068034470081,-0.0017296974547207355,0.0008094673976302147
1783169572692346600,5.5403466796875,0.0003882705932483077,-0.0008947965689003468,-0.0008414261974394321
1783169572702415400,5.550415283203125,-0.0006851586513221264,-0.0009226803667843342,-0.0010873123537749052
1783169572712485600,5.560485595703125,-0.0017086113803088665,-0.000016406644135713577,-0.0007413674611598253
1783169572722554400,5.570554443359375,-0.0021549323573708534,-0.001105697825551033,-0.0002576082479208708
1783169572732623600,5.58062353515625,-0.0008885991992428899,0.0002692919224500656,0.004201855044811964
1783169572742693400,5.590693359375,0.0009845931781455874,0.0021332157775759697,-0.001015472924336791
1783169572752762600,5.6007626953125,0.0002551533980295062,-0.00025377562269568443,0.0012945530470460653
1783169572762831400,5.610831298828125,0.000467431265860796,-0.00019205408170819283,0.0009442651644349098
1783169572772901600,5.620901611328125,0.00032095739152282476,-0.0007377355359494686,0.003574403002858162
1783169572782970400,5.630970458984375,-0.001660938491113484,0.001337359193712473,0.0018950579687952995
1783169572793039600,5.64103955078125,-0.0018638713518157601,0.00022149505093693733,0.0016361987218260765
1783169572803109400,5.651109375,0.0014164733001962304,-0.0001752781681716442,0.0010665170848369598
1783169572813178600,5.6611787109375,0.0014830523869022727,-0.0010194997303187847,-0.001682397909462452
1783169572823247400,5.671247314453125,0.002827427349984646,0.003026498481631279,0.0008893294725567102
1783169572833316600,5.681316650390625,0.0011483042035251856,0.0010341876186430454,0.0023063975386321545
1783169572843386400,5.691386474609375,0.0006050089141353965,-0.0012061940506100655,-0.0004223063588142395
1783169572853455600,5.70145556640625,-0.0006685147527605295,0.0019256831146776676,0.00013189739547669888
1783169572863524400,5.7115244140625,-0.0017499971436336637,-0.003131251782178879,-0.0039537688717246056
1783169572873594600,5.7215947265625,-0.000751844490878284,-0.0007703593000769615,0.00023431843146681786
1783169572883663400,5.731663330078125,0.0006197037873789668,0.0019250460900366306,-0.0005586256738752127
1783169572893732600,5.741732666015625,-0.0001653960207477212,-0.003092083614319563,-0.0003503665793687105
1783169572903802400,5.75180224609375,-0.0012912831734865904,-0.0008102753199636936,-0.002246566116809845
1783169572913871600,5.76187158203125,-0.00006756058428436518,-0.0015671462751924992,0.006280076690018177
1783169572923940400,5.7719404296875,-0.000876619596965611,0.0007529165595769882,0.00014715921133756638
1783169572934010600,5.7820107421875,0.00013351731467992067,0.000784608069807291,0.00035515218041837215
1783169572944079400,5.792079345703125,-0.00025774003006517887,0.00008629821240901947,0.0005521476268768311
1783169572954148600,5.802148681640625,-0.0014164813328534365,-0.002216004766523838,0.0005721214693039656
1783169572964217300,5.81221728515625,0.0010917943436652422,-0.00016240356490015984,0.0023797566536813974
1783169572974287600,5.82228759765625,-0.0006778760580345988,0.0002961931750178337,0.0012758765369653702
1783169572984356400,5.8323564453125,-0.00031306815799325705,-0.0026236753910779953,-0.0000414231326431036
1783169572994425600,5.842425537109375,-0.00024063012097030878,0.001279719639569521,0.0004193037748336792
1783169573004495400,5.852495361328125,0.0013308210764080286,0.0006760759279131889,-0.0008448087610304356
1783169573014564600,5.862564697265625,0.0006019138963893056,0.00013625295832753181,0.0011546926107257605
1783169573024633300,5.87263330078125,0.000025244196876883507,-0.0008977726101875305,0.0018561299657449126
1783169573034703600,5.88270361328125,0.001014608540572226,-0.0015292074531316757,-0.00192369450815022
1783169573044772400,5.8927724609375,-0.002346332184970379,-0.00011079851537942886,-0.0006687180139124393
1783169573054841600,5.902841552734375,-0.00019689486362040043,-0.0004724562168121338,0.0006785748992115259
1783169573064911400,5.912911376953125,-0.000803518807515502,0.0025491206906735897,-0.0008970140479505062
1783169573074980600,5.922980712890625,0.0027592582628130913,0.0003810413181781769,-0.0027324645780026913
1783169573085049300,5.93304931640625,-0.0007949713617563248,-0.000982395838946104,-0.0005692404229193926
1783169573095118600,5.94311865234375,0.00017947936430573463,0.00022108713164925575,-0.0024987005162984133
1783169573105188400,5.953188232421875,-0.000563968438655138,0.0007019541226327419,-0.0009045668411999941
1783169573115257600,5.963257568359375,0.0009638869669288397,-0.0021692002192139626,0.0012898780405521393
1783169573125326300,5.973326416015625,-0.002642634091898799,0.0005040308460593224,0.001465318724513054
1783169573135396600,5.983396728515625,-0.001063646050170064,0.0020483979023993015,-0.002539809327572584
1783169573145465300,5.99346533203125,-0.00112952443305403,-0.0001867273822426796,-0.0004522535018622875
1783169573155534600,6.00353466796875,0.001041750772856176,0.0005845236591994762,-0.0013723759911954403
1783169573165604400,6.013604248046875,-0.00013302953448146582,0.0027174176648259163,0.0038041260559111834
1783169573175673600,6.023673583984375,-0.0015343849081546068,-0.0007774489931762218,0.002803310053423047
1783169573185742300,6.033742431640625,-0.0007998428773134947,-0.001574012916535139,0.003236162243410945
1783169573195811600,6.0438115234375,-0.00023418758064508438,-0.00026453612372279167,0.0018041804432868958
1783169573205881300,6.05388134765625,0.0005037294467911124,-0.0019149873405694962,0.0003698717337101698
1783169573215950600,6.06395068359375,0.0015263833338394761,0.001196649856865406,-0.0006024485919624567
1783169573226019300,6.074019287109375,-0.00021323771215975285,-0.0011121886782348156,-0.0008003148250281811
1783169573236089300,6.08408935546875,-0.0004444001242518425,0.0013328595086932182,0.0006247428245842457
1783169573246158300,6.094158447265625,0.00008435396011918783,-0.0023336661979556084,0.0021975149866193533
1783169573256227600,6.1042275390625,0.001313402783125639,0.001805418636649847,0.0007301131263375282
1783169573266297600,6.114297607421875,-0.00139003770891577,-0.00009716488420963287,0.0007170990575104952
1783169573276366600,6.12436669921875,0.0010403631022199988,-0.0019083814695477486,0.0008603772148489952
1783169573286435300,6.134435302734375,0.00025134615134447813,-0.00152641162276268,-0.001102496637031436
1783169573296505300,6.14450537109375,-0.0011311006965115666,0.00011516083031892776,0.0005950022023171186
1783169573306574600,6.15457470703125,0.0017278408631682396,0.00026241689920425415,-0.002218409441411495
1783169573316643600,6.1646435546875,0.001081225462257862,-0.001312310341745615,-0.004360922612249851
1783169573326712300,6.17471240234375,0.0006208158447407186,0.0016213101334869862,-0.0011344582308083773
1783169573336782300,6.1847822265625,-0.0014681676402688026,-0.002071695402264595,0.0014789015986025333
1783169573346851300,6.194851318359375,0.0009335431968793273,0.00004871375858783722,-0.00034273741766810417
1783169573356920600,6.204920654296875,0.0018227726686745882,0.004010431934148073,-0.0002503255382180214
1783169573366990600,6.214990478515625,0.001174763310700655,-0.002036184538155794,-0.00017250142991542816
1783169573377059600,6.2250595703125,0.002418193267658353,-0.00047690374776721,-0.00013601593673229218
1783169573387128300,6.23512841796875,0.0002154478570446372,-0.0029338104650378227,-0.0005821941886097193
1783169573397198300,6.2451982421875,0.0011984206503257155,-0.00030926521867513657,0.0009366068989038467
1783169573407267600,6.255267578125,-0.002129366621375084,-0.00002004997804760933,-0.001044497825205326
1783169573417336600,6.265336669921875,0.0003439110005274415,-0.0007622730918228626,0.0022242660634219646
1783169573427406600,6.275406494140625,0.000303462496958673,0.0013266587629914284,0.0012471852824091911
1783169573437475300,6.285475341796875,0.0003442087909206748,0.00041931960731744766,0.0018791533075273037
1783169573447544600,6.295544677734375,-0.0009077619761228561,-0.0010958416387438774,-0.003552141599357128
1783169573457613600,6.305613525390625,0.0014693756820634007,0.0023691970854997635,0.0007608479354530573
1783169573467683600,6.31568359375,-0.0017494350904598832,-0.0030281441286206245,0.0010343363974243402
1783169573477752300,6.32575244140625,-0.0010833785636350513,-0.0008454173803329468,0.0010713543742895126
1783169573487821600,6.335821533203125,-0.000036983052268624306,0.002100884448736906,-0.0007913894951343536
1783169573497891300,6.345891357421875,0.0030826437287032604,0.00045052357017993927,0.0003574979491531849
1783169573507960600,6.355960693359375,-0.00211501051671803,0.0001222332939505577,0.0007928893901407719
1783169573518029600,6.366029541015625,0.0019079605117440224,-0.00025300588458776474,-0.0009315074421465397
1783169573528099600,6.376099609375,0.0006065994966775179,0.001966170035302639,0.0017609272617846727
1783169573538168300,6.386168212890625,-0.0017060894751921296,-0.0006117699667811394,0.000991007313132286
1783169573548237600,6.396237548828125,-0.0014437588397413492,-0.00043070409446954727,-0.0015642780344933271
1783169573558306600,6.406306640625,0.0013866487424820662,-0.00003868713974952698,0.004163648933172226
1783169573568376600,6.41637646484375,-0.0010122271487489343,-0.00221233069896698,-0.0014171611983329058
1783169573578445300,6.4264453125,0.00006608688272535801,0.0006463066674768925,-0.0005998371634632349
1783169573588514600,6.4365146484375,-0.0015633509028702974,-0.0014585768803954124,-0.00021671084687113762
1783169573598584300,6.446584228515625,-0.0018163511995226145,-0.0002686763182282448,-0.000018837861716747284
1783169573608653000,6.456653076171875,0.0009723698603920639,0.00022428343072533607,0.0002447275910526514
1783169573618722300,6.466722412109375,0.0011321594938635826,0.0006887386552989483,0.0010484694503247738
1783169573628792000,6.4767919921875,-0.001224643550813198,0.0009359675459563732,-0.000585740664973855
1783169573638861000,6.486861083984375,-0.0004462015349417925,-0.001108807511627674,0.0002760582137852907
1783169573648930000,6.496929931640625,0.0008354074088856578,-0.0012900442816317081,-0.001105438219383359
1783169573659000000,6.507,-0.00295347161591053,-0.0011068196035921574,0.001744943205267191
1783169573669069000,6.517069091796875,-0.00034388748463243246,-0.0008521988056600094,0.0016076453030109406
1783169573679138300,6.52713818359375,0.0030175545252859592,0.00036886101588606834,0.002532561309635639
1783169573689207000,6.53720703125,-0.00008836900815367699,0.0007227566093206406,-0.0018727113492786884
1783169573699277000,6.547277099609375,-0.0010210081236436963,-0.000688452273607254,0.00025755097158253193
1783169573709346000,6.557345947265625,-0.0025012767873704433,-0.00105280801653862,-0.002488345606252551
1783169573719415300,6.567415283203125,0.0013435289729386568,0.00011179177090525627,0.0017237099818885326
1783169573729485000,6.577485107421875,-0.002231406746432185,0.00034280121326446533,0.0012866307515650988
1783169573739554000,6.587553955078125,0.0017755853477865458,0.0019524157978594303,0.0018924998585134745
1783169573749623000,6.597623046875,0.0007792097167111933,0.0006545674987137318,-0.00029827840626239777
1783169573759693000,6.607693115234375,0.002672983566299081,-0.0007025795057415962,0.0005667160730808973
1783169573769762000,6.617761962890625,0.001910521532408893,0.0010232622735202312,0.0038595302030444145
1783169573779831300,6.627831298828125,0.000011421390809118748,-0.0010526711121201515,0.000632577808573842
1783169573789901000,6.637901123046875,0.0018999079475179315,0.00021197786554694176,0.000857699429616332
1783169573799970000,6.647969970703125,-0.0005326232640072703,0.00013661012053489685,-0.0009641689248383045
1783169573810039000,6.6580390625,-0.0006873533129692078,0.001576610840857029,0.00032825698144733906
1783169573820108300,6.6681083984375,0.0010716646211221814,0.0009076246060431004,-0.0019860300235450268
1783169573830178000,6.678177978515625,0.0029599391855299473,-0.000923436600714922,-0.0007435318548232317
1783169573840247000,6.6882470703125,0.0017644462641328573,0.0021005822345614433,0.0007675455417484045
1783169573850316000,6.69831591796875,0.0024430174380540848,0.0009275446645915508,0.0008499352261424065
1783169573860386000,6.708385986328125,0.0005455152713693678,0.00025775935500860214,-0.0014513020869344473
1783169573870455000,6.718455078125,-0.0005540604470297694,-0.0005565518513321877,-0.00032685743644833565
1783169573880524000,6.72852392578125,0.0011229319497942924,0.002213135827332735,-0.000038969796150922775
1783169573890594000,6.738593994140625,-0.0022323918528854847,-0.0006701680831611156,0.0029032467864453793
1783169573900663000,6.7486630859375,-0.00034767272882163525,0.00029522785916924477,-0.0004691139329224825
1783169573910732000,6.75873193359375,0.0024151327088475227,0.002411315683275461,0.0002336231991648674
1783169573920801300,6.76880126953125,-0.00038145272992551327,0.00021127844229340553,0.00014520622789859772
1783169573930871000,6.77887109375,0.000039412290789186954,0.0003797244280576706,0.002458795439451933
1783169573940940000,6.78893994140625,-0.0015941705787554383,0.000052688177675008774,-0.004204699769616127
1783169573951009000,6.799009033203125,-0.0004172628978267312,0.0008594910614192486,0.0004141859244555235
1783169573961079000,6.8090791015625,0.0006863510934635997,0.0006778636015951633,0.0011292446870356798
1783169573971148000,6.81914794921875,-0.00032203912269324064,-0.001849890686571598,0.001559412106871605
1783169573981217000,6.829217041015625,-0.0004192445194348693,-0.0008248398080468178,0.00100227864459157
1783169573991287000,6.839287109375,-0.0014380598440766335,-0.0013871034607291222,-0.00019975961185991764
1783169574001356000,6.84935595703125,0.00007568101864308119,-0.0012576738372445107,-0.0027217729948461056
1783169574011425000,6.859425048828125,0.00021415215451270342,-0.0008015744388103485,-0.00104070408269763
1783169574021495000,6.8694951171875,-0.0006678869249299169,0.0008362699300050735,0.00020059524103999138
1783169574031564000,6.87956396484375,-0.0006295650964602828,0.00033173756673932076,-0.0023692166432738304
1783169574041633000,6.889633056640625,0.0018762031104415655,0.0017682467587292194,0.0005376238841563463
1783169574051702000,6.899701904296875,0.0010041012428700924,-0.0022105788812041283,0.0011387458071112633
1783169574061772000,6.90977197265625,-0.0007421334739774466,-0.00013118330389261246,-0.000006679678335785866
1783169574071841000,6.919841064453125,-0.00026906130369752645,-0.00003875652328133583,0.0021915393881499767
1783169574081910000,6.929909912109375,-0.0003100739559158683,0.0006792317144572735,-0.0001357973087579012
1783169574091980000,6.93997998046875,0.0003548209788277745,-0.00024261046200990677,0.002214172389358282
1783169574102049000,6.950049072265625,-0.002077177632600069,-0.001211734488606453,-0.00013952935114502907
1783169574112118000,6.960117919921875,0.0013911043060943484,0.000075566116720438,-0.0006013978272676468
1783169574122188000,6.97018798828125,-0.002048101741820574,-0.00005466258153319359,-0.002700501587241888
1783169574132257000,6.980257080078125,-0.000024813925847411156,0.0010184361599385738,0.0030656929593533278
1783169574142326000,6.990325927734375,0.000505155127029866,0.0021145930513739586,-0.0008337073959410191
1783169574152396300,7.000396240234375,-0.0019324313616380095,0.00014177383854985237,-0.001781202619895339
1783169574162465000,7.010465087890625,0.0004934421740472317,0.0021900110878050327,0.00033973902463912964
1783169574172534000,7.020533935546875,0.0011018689256161451,-0.00014631636440753937,-0.0004062189254909754
1783169574182603000,7.03060302734375,-0.001965560019016266,-0.0032656770199537277,0.0006973950657993555
1783169574192673300,7.04067333984375,0.0004513094900175929,0.0007367567159235477,0.002550706500187516
1783169574202742000,7.050741943359375,0.0010185628198087215,-0.0012512924149632454,0.0009280424565076828
1783169574212811000,7.06081103515625,0.00010602176189422607,0.0018403814174234867,-0.002059442223981023
1783169574222881000,7.070881103515625,0.000531062250956893,-0.0013016164302825928,0.002957154531031847
1783169574232950300,7.0809501953125,-0.0020501415710896254,-0.00017106346786022186,-0.0008398024365305901
1783169574243019000,7.09101904296875,0.0016809471417218447,0.00044519174844026566,-0.002082433085888624
1783169574253089300,7.10108935546875,0.0004224973963573575,-0.00011183647438883781,0.000536083709448576
1783169574263158000,7.111157958984375,0.002114403760060668,-0.0004375404678285122,-0.0007502231746912003
1783169574273227000,7.12122705078125,0.0014193074312061071,-0.0000559869222342968,-0.000009773997589945793
1783169574283296000,7.1312958984375,0.0013647126033902168,-0.0003145798109471798,-0.0007099192589521408
1783169574293366300,7.1413662109375,0.0012868866324424744,-0.00026458315551280975,0.0006989431567490101
1783169574303435000,7.15143505859375,-0.0014375271275639534,0.00005259877070784569,0.0029232152737677097
1783169574313504000,7.16150390625,0.0019297006074339151,0.0000956566073000431,0.001276377821341157
1783169574323574000,7.171573974609375,0.0003975839354097843,0.0004091104492545128,-0.00208293367177248
1783169574333643300,7.181643310546875,0.0012333722552284598,0.000617186538875103,0.0015406340826302767
1783169574343712000,7.1917119140625,-0.0005530760390684009,-0.0032606422901153564,-0.000315855722874403
1783169574353782300,7.2017822265625,0.0020845411345362663,0.001188922207802534,-0.002871587174013257
1783169574363851000,7.21185107421875,0.0015236794715747237,0.0013708164915442467,-0.0007786091882735491
1783169574373920300,7.221920166015625,-0.00011728517711162567,0.002563394606113434,-0.0034030273091048002
1783169574383990000,7.231989990234375,0.0014550451887771487,-0.001948266290128231,0.0011443202383816242
1783169574394059300,7.242059326171875,-0.0006317393854260445,0.001538584940135479,-0.00006519118323922157
1783169574404128000,7.2521279296875,-0.0012615770101547241,0.0028062500059604645,0.0025420435704290867
1783169574414197200,7.262197265625,0.0016411651158705354,0.003155205864459276,-0.0005872214678674936
1783169574424267000,7.27226708984375,0.0001340822782367468,-0.0016217059455811977,-0.0006356912199407816
1783169574434336300,7.282336181640625,0.0002798015484586358,-0.00338619202375412,-0.0006406155880540609
1783169574444405000,7.292405029296875,0.0016473347786813974,-0.0019765812903642654,-0.0005583239253610373
1783169574454475300,7.302475341796875,0.0002664125058799982,-0.000628872774541378,0.0007879035547375679
1783169574464544000,7.3125439453125,-0.00003985106013715267,-0.0007026419043540955,0.0013253295328468084
1783169574474613200,7.32261328125,0.00012306519784033298,-0.0007881834171712399,0.001478574238717556
1783169574484683000,7.33268310546875,0.00035955384373664856,-0.0022907392121851444,-0.0011062901467084885
1783169574494752300,7.342752197265625,-0.0011247436050325632,0.001714508980512619,0.002623735461384058
1783169574504821000,7.352821044921875,0.002717931754887104,0.00355528574436903,-0.0008966971654444933
1783169574514890200,7.36289013671875,0.0003220506478101015,0.00008895061910152435,-0.000021940795704722404
1783169574524960000,7.3729599609375,-0.00008301623165607452,0.00039121927693486214,-0.0002158191055059433
1783169574535029200,7.383029296875,-0.0008184670004993677,0.0010612541809678078,-0.0017858278006315231
1783169574545098000,7.393097900390625,0.0017019486986100674,-0.0011659478768706322,0.0023447349667549133
1783169574555168300,7.403168212890625,0.001112228143028915,-0.000047557055950164795,-0.0008724723011255264
1783169574565237000,7.413237060546875,0.00007412803824990988,0.0019354326650500298,0.002915341407060623
1783169574575306200,7.42330615234375,-0.0011437087086960673,-0.0003372565843164921,0.0037791659124195576
1783169574585376000,7.4333759765625,-0.00031866133213043213,-0.0004528374411165714,-0.0010760428849607706
1783169574595445200,7.4434453125,0.00026933313347399235,0.001823097001761198,0.0006209325511008501
1783169574605514000,7.453513916015625,0.002514111576601863,0.0019376128911972046,-0.0019676601514220238
1783169574615584300,7.463584228515625,0.0012879222631454468,0.00006422027945518494,-0.0025070197880268097
1783169574625653000,7.473653076171875,-0.0008862825343385339,-0.0008393898606300354,0.0001801098696887493
1783169574635722200,7.48372216796875,0.00007259880658239126,-0.0008620256558060646,0.0018084078328683972
1783169574645791000,7.493791015625,-0.00019451614934951067,0.001163841225206852,0.0008004014380276203
1783169574655861200,7.503861328125,-0.0019681695848703384,-0.0003994898870587349,-0.00006387685425579548
1783169574665930000,7.513929931640625,0.0010326801566407084,0.0017467518337070942,-0.0024292964953929186
1783169574675999200,7.523999267578125,0.00012393761426210403,-0.0006498419679701328,0.0011217251885682344
1783169574686069000,7.534069091796875,0.0010872030397877097,-0.0006383904255926609,0.0004202486015856266
1783169574696138200,7.54413818359375,0.00019931152928620577,-0.0016905642114579678,-0.0011782576330006123
1783169574706207000,7.55420703125,0.0028611409943550825,0.000978189054876566,-0.0024094367399811745
1783169574716277200,7.56427734375,0.0007697978871874511,0.0008697248995304108,-0.001087514916434884
1783169574726346000,7.574345947265625,-0.000024356762878596783,0.0008058086968958378,-0.0008978976402431726
1783169574736415200,7.584415283203125,0.0006331949261948466,0.0017546839080750942,-0.0009770176839083433
1783169574746484000,7.59448388671875,0.0016081782523542643,0.00025905249640345573,0.0014943957794457674
1783169574756554200,7.60455419921875,-0.0008453361224383116,-0.001142364926636219,0.0016399170272052288
1783169574766623000,7.614623046875,0.001935270382091403,0.0016566170379519463,0.0013970367144793272
1783169574776692200,7.624692138671875,-0.00015126517973840237,-0.000353044830262661,-0.0022923084907233715
1783169574786762000,7.634761962890625,-0.0005552666261792183,0.0026190434582531452,0.00039322301745414734
1783169574796831200,7.644831298828125,0.0018698570784181356,0.000494789332151413,-0.0014104039873927832
1783169574806900000,7.65489990234375,-0.000028444104827940464,-0.00016008224338293076,-0.0005382185336202383
1783169574816970000,7.664969970703125,-0.0005526344757527113,-0.00008361274376511574,0.00043869344517588615
1783169574827039000,7.6750390625,-0.00033079320564866066,-0.00206527067348361,0.00019741104915738106
1783169574837108200,7.685108154296875,-0.0012211052235215902,0.0021959557197988033,-0.0023444253019988537
1783169574847178000,7.695177978515625,0.002607455011457205,-0.002795606851577759,-0.00002294778823852539
1783169574857247200,7.705247314453125,-0.0010824757628142834,-0.001120894681662321,0.0004193081986159086
1783169574867316000,7.71531591796875,-0.0013775541447103024,-0.0007930598221719265,0.001657678047195077
1783169574877385200,7.72538525390625,0.001018560491502285,0.0016018529422581196,-0.0010397171135991812
1783169574887455000,7.735455078125,0.0019298942061141133,0.0006180810742080212,0.0028208009898662567
1783169574897524200,7.745524169921875,0.00006866641342639923,-0.0015059495344758034,-0.0020124311558902264
1783169574907593000,7.755593017578125,0.002743279095739126,0.0015361788682639599,-0.00049948925152421
1783169574917663000,7.7656630859375,-0.0004260039422661066,0.0017388425767421722,0.002014216035604477
1783169574927732000,7.77573193359375,-0.000018273945897817612,0.00037450529634952545,0.000897818710654974
1783169574937801200,7.78580126953125,0.0007152326870709658,0.000810778234153986,-0.001353503204882145
1783169574947871200,7.795871337890625,-0.0018110418459400535,0.002306941896677017,-0.0011218083091080189
1783169574957940200,7.805940185546875,-0.0015566293150186539,-0.0001011136919260025,-0.000338550191372633
1783169574968009000,7.816009033203125,0.0003672383027151227,-0.0009061871096491814,-0.0012173934374004602
1783169574978078200,7.826078125,0.001971707446500659,0.0014829784631729126,0.0014404167886823416
1783169574988148000,7.83614794921875,-0.0010523119708523154,0.001943439245223999,0.002282774541527033
1783169574998217200,7.84621728515625,-0.002101695630699396,0.00019506877288222313,0.0006995401345193386
1783169575008286000,7.856285888671875,0.0016280616400763392,0.0011673890985548496,0.0025222075637429953
1783169575018356000,7.86635595703125,-0.00007739069405943155,-0.0005543888546526432,-0.0012304254341870546
1783169575028425000,7.876425048828125,0.0012909414945170283,-0.0020673307590186596,-0.0014330919366329908
1783169575038494200,7.886494140625,-0.00042100867722183466,-0.0006977692246437073,-0.0004108662251383066
1783169575048564200,7.896564208984375,-0.0018042545998468995,-0.001969161443412304,-0.0017552298959344625
1783169575058633200,7.90663330078125,0.00027712155133485794,0.000021484680473804474,0.0011060608085244894
1783169575068702000,7.916701904296875,-0.001954074949026108,-0.00044510094448924065,0.000046921661123633385
1783169575078771200,7.926771240234375,-0.0006286159623414278,0.000024992041289806366,-0.0003922171890735626
1783169575088841200,7.93684130859375,-0.00024139240849763155,0.001223148312419653,0.0027662920765578747
1783169575098910200,7.94691015625,0.0007833810523152351,0.0005393959581851959,0.00015726755373179913
1783169575108979000,7.95697900390625,-0.000781758688390255,-0.0013554426841437817,0.0005199899896979332
1783169575119049000,7.967049072265625,0.0012764518614858389,0.0030101872980594635,0.0005380890797823668
1783169575129118200,7.9771181640625,0.0008253123378381133,0.000013598240911960602,0.0013439615722745657
1783169575139187200,7.987187255859375,0.0005978959379717708,-0.0010031447745859623,-0.0003721490502357483
1783169575149257200,7.99725732421875,0.0017057709628716111,-0.001318995375186205,-0.0002480456605553627
1783169575159326000,8.007325927734374,-0.0005835851188749075,-0.0010515591129660606,0.0014576232060790062
1783169575169395200,8.017395263671874,-0.0006389787886291742,0.0005809580907225609,-0.00009579863399267197
1783169575179464200,8.027464111328126,-0.000011717434972524643,0.0011112811043858528,0.0002043184358626604
1783169575189534200,8.0375341796875,-0.00004154490306973457,0.000787174329161644,0.001236027106642723
1783169575199603200,8.047603271484375,-0.00034378247801214457,-0.0019836905412375927,0.0007877754978835583
1783169575209672000,8.057671875,0.0003225404070690274,-0.002502740826457739,0.0010194703936576843
1783169575219742000,8.067741943359374,0.0005401684902608395,0.001413020770996809,0.0021507362835109234
1783169575229811200,8.077811279296874,-0.0007895479211583734,-0.0005364133976399899,0.0005262079648673534
1783169575239880200,8.087880126953126,-0.001891894149594009,-0.0007871249690651894,-0.0011889762245118618
1783169575249950200,8.0979501953125,-0.0008932087803259492,0.0017932122573256493,0.0005766998510807753
1783169575260019000,8.10801904296875,0.00028586306143552065,0.0007885084487497807,-0.0018161989282816648
1783169575270088200,8.118088134765625,0.0014789592241868377,0.0008124769665300846,-0.00023241713643074036
1783169575280158000,8.128157958984374,0.0008219369337894022,0.0010029496625065804,0.0030717758927494287
1783169575290227200,8.138227294921874,0.0005851819296367466,-0.00008202157914638519,0.00044243689626455307
1783169575300296200,8.148296142578126,0.0016810724046081305,-0.0008856910280883312,-0.00034557608887553215
1783169575310365200,8.158365234375,0.001123406458646059,-0.0008324277587234974,-0.0009900610893964767
1783169575320435000,8.16843505859375,-0.0012059384025633335,0.0009444872848689556,-0.0010128070134669542
1783169575330504200,8.178504150390625,0.001968017080798745,0.0008089323528110981,-0.0022509105037897825
1783169575340573200,8.1885732421875,0.0005667125224135816,-0.0009357943199574947,-0.0020405168179422617
1783169575350643200,8.198643310546874,0.0011163889430463314,-0.00036561163142323494,-0.000929179834201932
1783169575360712000,8.2087119140625,0.00028234580531716347,-0.0024276613257825375,0.0022381944581866264
1783169575370781200,8.21878125,0.0002658342709764838,-0.002160013187676668,0.00005386979319155216
1783169575380851000,8.228850830078125,-0.0014805098762735724,0.0012351167388260365,-0.002714896108955145
1783169575390920200,8.238920166015625,-0.000005651265382766724,-0.00009566498920321465,0.0012854381930083036
1783169575400989000,8.248989013671874,-0.002476379508152604,-0.0018135658465325832,-0.001047227531671524
1783169575411058200,8.25905810546875,-0.0010654367506504059,-0.0004377770237624645,-0.0014514951035380363
1783169575421128000,8.2691279296875,0.0006057781865820289,-0.0027791927568614483,0.0013196473009884357
1783169575431197200,8.279197265625,-0.0017143676523119211,-0.00045718299224972725,0.00019206502474844456
1783169575441266200,8.28926611328125,-0.0010898106265813112,-0.0000346573069691658,0.00020200316794216633
1783169575451336200,8.299336181640625,-0.0019020747859030962,0.0011054417118430138,-0.00026005529798567295
1783169575461405000,8.309405029296874,0.0013602478429675102,-0.001020026858896017,0.0005638324655592442
1783169575471474200,8.31947412109375,0.0005149604985490441,0.000517149455845356,-0.0004212707281112671
1783169575481544000,8.3295439453125,0.000921588041819632,-0.0005778800696134567,-0.000013179844245314598
1783169575491613200,8.33961328125,-0.0012973577249795198,-0.001031682826578617,-0.0025487756356596947
1783169575501682000,8.349681884765625,-0.0031402658205479383,-0.00014015007764101028,-0.0021556620486080647
1783169575511751200,8.359751220703124,-0.000863529508933425,0.0010502832010388374,0.00398159259930253
1783169575521821000,8.369821044921874,0.0004845348885282874,0.0005018631927669048,0.0006925906054675579
1783169575531890200,8.37989013671875,0.0022169211879372597,0.000741015188395977,0.0009921963792294264
1783169575541959200,8.389959228515625,0.0028453972190618515,0.0006054113619029522,0.001606870093382895
1783169575552029200,8.400029296875,0.0025362041778862476,-0.0010659880936145782,-0.0006304513663053513
1783169575562098000,8.410097900390625,-0.0015112602850422263,-0.001144619658589363,0.0016422346234321594
1783169575572167200,8.420167236328124,-0.0022699949331581593,-0.0007491409778594971,-0.0007412945851683617
1783169575582237000,8.43023681640625,-0.00026280106976628304,0.00014175428077578545,0.0013227558229118586
1783169575592306200,8.44030615234375,-0.0015312646282836795,0.0009798510000109673,0.002241014037281275
1783169575602375000,8.450375,-0.000980691285803914,-0.0004952726885676384,0.0018168416572734714
1783169575612444400,8.4604443359375,0.0001202593557536602,0.0008799834176898003,0.0001465070527046919
1783169575622514200,8.47051416015625,-0.0015333893243223429,0.0007667671889066696,-0.0019352866802364588
1783169575632583400,8.48058349609375,-0.00023376673925668,-0.001506241038441658,0.002641888102516532
1783169575642652200,8.490652099609376,-0.0010970250004902482,0.0014246241189539433,-0.0007518457714468241
1783169575652722400,8.500722412109376,-0.000012852251529693604,0.0005825324915349483,0.0026026717387139797
1783169575662791200,8.510791259765625,0.0006294878548942506,-0.0017137723043560982,0.0006509064696729183
1783169575672860400,8.5208603515625,-0.000729257008060813,-0.00032946188002824783,0.0022253673523664474
1783169575682930200,8.53093017578125,0.0004192895721644163,0.001953224651515484,-0.0006074062548577785
1783169575692999400,8.54099951171875,0.0002664241474121809,0.001666402444243431,-0.0022479137405753136
1783169575703068200,8.551068115234376,0.001481786835938692,0.0011129369959235191,-0.0004243736620992422
1783169575713138400,8.561138427734376,0.0010199947282671928,0.0004170532338321209,0.0003743083216249943
1783169575723207200,8.571207275390625,0.0007605013088323176,-0.0027731815353035927,-0.0011404536198824644
1783169575733276400,8.5812763671875,0.0028763827867805958,0.0035579511895775795,0.0005037819501012564
1783169575743345200,8.59134521484375,-0.0013211257755756378,0.0015056123957037926,-0.000670925248414278
1783169575753415400,8.60141552734375,-0.0005892892368137836,0.0006675152108073235,0.00010671769268810749
1783169575763484200,8.611484130859376,0.0016075139865279198,-0.001008111983537674,-0.004051828756928444
1783169575773553400,8.621553466796875,0.0009257448255084455,-0.000849919393658638,0.0019203097326681018
1783169575783623400,8.63162353515625,0.001456552417948842,-0.00026736874133348465,0.0015784974675625563
1783169575793692400,8.6416923828125,0.0015838515246286988,0.00015847105532884598,0.0007968596182763577
1783169575803761200,8.65176123046875,0.0014843307435512543,0.00014516524970531464,0.0009025372564792633
1783169575813831400,8.66183154296875,0.0014254748821258545,-0.0010910741984844208,-0.000858877319842577
1783169575823900400,8.671900390625,0.0001992823090404272,-0.0008417563512921333,-0.0006112311966717243
1783169575833969400,8.681969482421875,0.0004751856904476881,0.00024561211466789246,-0.0012157685123383999
1783169575844038100,8.6920380859375,0.0012863442534580827,0.0004031369462609291,-0.0011511663906276226
1783169575854108400,8.7021083984375,-0.001996800769120455,-0.00006371550261974335,-0.0043818471021950245
1783169575864177200,8.71217724609375,0.0007465258240699768,-0.0006509739905595779,0.0005031742621213198
1783169575874246400,8.722246337890626,0.0003835370298475027,-0.00004350673407316208,0.0016352839302271605
1783169575884316400,8.73231640625,-0.000752363121137023,-0.0020216479897499084,0.0017435476183891296
1783169575894385400,8.742385498046875,0.0004601740511134267,-0.001050126738846302,-0.00012812204658985138
1783169575904454100,8.7524541015625,0.0002636878052726388,-0.0016351016238331795,-0.00047398009337484837
1783169575914524400,8.7625244140625,-0.0006204817909747362,0.0021031778305768967,0.00010712165385484695
1783169575924593400,8.772593505859374,0.00027265737298876047,-0.0007431483827531338,0.0019245360745117068
1783169575934662400,8.782662353515626,0.002046855166554451,-0.0018494254909455776,-0.0008494122885167599
1783169575944731100,8.792731201171875,-0.00025529833510518074,-0.0016500959172844887,0.001162243541330099
1783169575954801400,8.802801513671875,-0.0013783533358946443,0.039208121597766876,0.01695398986339569
1783169575964870400,8.812870361328125,-0.00024310522712767124,0.07895966619253159,0.034818097949028015
1783169575974939400,8.822939453125,-0.0014694909332320094,0.05886797979474068,0.028913334012031555
1783169575985009400,8.833009521484374,0.0007035060552880168,-0.006708236411213875,-0.0027766551356762648
1783169575995078400,8.843078369140626,0.0005264058709144592,-0.035410720854997635,-0.01955403760075569
1783169576005147400,8.8531474609375,0.001896108384244144,-0.03479726240038872,-0.01697099581360817
1783169576015217400,8.863217529296875,-0.0023300619795918465,-0.028771862387657166,-0.009942913427948952
1783169576025286400,8.873286376953125,-0.0008813242893666029,-0.01552662905305624,-0.005963534116744995
1783169576035355400,8.88335546875,0.002320061670616269,-0.01143015455454588,-0.005823984742164612
1783169576045424000,8.893424072265624,0.0023464602418243885,-0.010069279000163078,-0.006731491535902023
1783169576055494400,8.903494384765626,0.0015096950810402632,-0.008381899446249008,-0.0033210478723049164
1783169576065563400,8.9135634765625,0.00016028748359531164,-0.011551196686923504,-0.0041413577273488045
1783169576075632400,8.92363232421875,-0.0009438591077923775,0.002492716535925865,0.0015016143443062901
1783169576085702400,8.933702392578125,0.001689730677753687,-0.0040208399295806885,-0.0019897755701094866
