time,seconds_elapsed,z,y,x
1783170480745091600,0.084091552734375,0.2474760466992855,-0.5004460146397351,0.24698084706086665
1783170480755161600,0.09416162109375,0.416869905808568,-0.5152174673140049,0.3396836441449821
1783170480765231600,0.104231689453125,0.4351028971135616,-0.5121089068394153,0.35654995020665226
1783170480775300600,0.114300537109375,0.24306349095404148,-0.5203258233036846,0.35680071009732783
1783170480785370600,0.12437060546875,-0.012433365115523337,-0.5064667362339794,0.3161969700954854
1783170480795439400,0.134439453125,-0.11387012480795383,-0.4789991027895361,0.34594482343159616
1783170480805509600,0.144509521484375,0.03044482262432575,-0.4764131048843264,0.37449104589298365
1783170480815578600,0.15457861328125,0.2893652234017849,-0.5240690284200012,0.3582716594327241
1783170480825648600,0.164648681640625,0.4911117845833301,-0.6199649589896201,0.3374041549056768
1783170480835718700,0.17471875,0.5625666629880667,-0.7376053961165249,0.2844844656229019
1783170480845787600,0.18478759765625,0.4010691100865602,-0.789145467609167,0.2625068809621036
1783170480855857700,0.194857666015625,0.17053075418472288,-0.7462523745611309,0.34122327480241654
1783170480865926400,0.204926513671875,0.08449030106663703,-0.6559715073943138,0.4620524980332702
1783170480875996700,0.21499658203125,0.1961287212997675,-0.5837419913552702,0.5930122893299907
1783170480886065400,0.2250654296875,0.3369873907983303,-0.5440251902557909,0.6484723838105797
1783170480896135700,0.2351357421875,0.4433680366337299,-0.5633294640541077,0.6346660498414188
1783170480906204700,0.24520458984375,0.4470674756735563,-0.6546817598447203,0.5510902332711964
1783170480916274400,0.2552744140625,0.3270475960642099,-0.7311563661076128,0.5006342306882142
1783170480926344700,0.2653447265625,0.1860807900160551,-0.7601536202721297,0.49085744449608026
1783170480936413400,0.275413330078125,0.1256523325383663,-0.782736331219226,0.5426918958254158
1783170480946483700,0.285483642578125,0.12569675620198248,-0.8087912483215332,0.5812894105713814
1783170480956552400,0.295552490234375,0.2598199799656868,-0.8148278981372714,0.5891901737585663
1783170480966622500,0.30562255859375,0.4197533522903919,-0.8668960851572454,0.5440555123288184
1783170480976691500,0.31569140625,0.579694323399663,-0.9630769701480865,0.4861268357776105
1783170480986761500,0.325761474609375,0.7253776365756988,-1.036965797701478,0.4392033912349492
1783170480996831700,0.335831787109375,0.745937025001645,-1.0608384023286401,0.44360520639047024
1783170481006900500,0.345900390625,0.614767390346527,-1.0062401123091578,0.47154666789174077
1783170481016970800,0.355970703125,0.49171208856403825,-0.9039052347332238,0.5729622386656701
1783170481027039500,0.36603955078125,0.36990474101603027,-0.8095696853481232,0.6674068744484335
1783170481037106400,0.3761064453125,0.3156581870436668,-0.7576489439748227,0.7035987162921578
1783170481047175700,0.38617578125,0.3338666284292936,-0.7697140602998435,0.7219581835210322
1783170481057245400,0.396245361328125,0.35823066983520985,-0.8129173883408307,0.6912916809700429
1783170481067315500,0.4063154296875,0.3686357439935207,-0.8901138791374862,0.6809003430761397
1783170481077384700,0.416384765625,0.4019400477021932,-0.9512193590939044,0.6521960805088282
1783170481087454500,0.426454345703125,0.41510055804848667,-1.009109091874212,0.5839758001111447
1783170481097523700,0.436523681640625,0.4469938259154558,-1.0992188402578233,0.4898329968191683
1783170481107593500,0.446593505859375,0.4768137946397066,-1.1634678789369761,0.4002770829260349
1783170481117662700,0.456662841796875,0.5078536605477333,-1.1946074058271945,0.38900114421732723
1783170481127732500,0.466732421875,0.5815986957162619,-1.1682973449200391,0.46733189974091943
1783170481137801700,0.4768017578125,0.5654080238938332,-1.1257448820032179,0.5403143530391157
1783170481147871500,0.48687158203125,0.5188771588653326,-1.1033175077483057,0.5125160994008183
1783170481157941500,0.49694140625,0.5005319393575192,-1.1091751477353273,0.4501701909292489
1783170481168010800,0.5070107421875,0.5745633902519941,-1.1229587584160268,0.4445582693316042
1783170481178080500,0.51708056640625,0.7075748533815145,-1.1406525282777846,0.44418987441062924
1783170481188149800,0.527149658203125,0.6806371620953082,-1.115398406164348,0.4544052712157368
1783170481198219500,0.537219482421875,0.46591772209405896,-1.0256206662140785,0.4328817869979888
1783170481208288800,0.547288818359375,0.2964741786241531,-0.9456348369598389,0.37721024172380563
1783170481218358500,0.557358642578125,0.19045768992602824,-0.8905708291247486,0.30808585209324957
1783170481228428500,0.567428466796875,0.2070470056772232,-0.830084211719036,0.2648367852143943
1783170481238497500,0.57749755859375,0.25349077694416045,-0.8038780495777725,0.24014373104982076
1783170481248567600,0.587567626953125,0.2745721434175968,-0.7908535867013037,0.2024639156706631
1783170481258636800,0.59763671875,0.2737736865162849,-0.7342541859924793,0.1697633500088006
1783170481268706600,0.60770654296875,0.2608861478924751,-0.6135441321618854,0.11927687922231853
1783170481278775800,0.61777587890625,0.21931787370741365,-0.4398636817745864,0.04087656559385359
1783170481288845600,0.627845458984375,0.1088777233481407,-0.3618152503237128,-0.09033172057121991
1783170481298914600,0.63791455078125,0.10285831692814826,-0.2411586802460253,-0.16822371935136615
1783170481308984600,0.647984619140625,0.1978314335644245,-0.07098185406550765,-0.22510442121960222
1783170481319054600,0.6580546875,0.30140929693877694,0.08920242428034543,-0.23905951600968836
1783170481329123600,0.66812353515625,0.3699117552787065,0.2018055978924036,-0.13485420491937547
1783170481339193600,0.678193603515625,0.421966936686635,0.24926336850747466,-0.06785780376084148
1783170481349262600,0.6882626953125,0.6410340505033731,0.21586291094794868,-0.051674621125124394
1783170481359332600,0.69833251953125,0.7508189518243074,0.16319865773096678,-0.08234159860014915
1783170481369401600,0.708401611328125,0.5831272204577922,0.17203925905153156,-0.25783516282401975
1783170481379471600,0.7184716796875,0.21935645215213298,0.170272249379009,-0.44142804501447824
1783170481389541600,0.728541748046875,-0.21879940279126167,0.22832842476740478,-0.4944396503644064
1783170481399610600,0.738610595703125,-0.5976911678612232,0.3472400508739054,-0.5429036023473367
1783170481409680600,0.7486806640625,-0.7738128739207982,0.4988491008371114,-0.5392617752462625
1783170481419749400,0.758749267578125,-0.7927958068102597,0.6402925844863057,-0.5306370451660827
1783170481429819600,0.768819580078125,-0.779046682921052,0.6951695453166962,-0.584121455659531
1783170481439888600,0.778888671875,-0.8262965098738669,0.7096978368848562,-0.7511746333941817
1783170481449958700,0.788958740234375,-0.9362444928020238,0.7019941306397318,-0.8818438442464918
1783170481460028700,0.799028564453125,-1.1016618494957684,0.7188982114285231,-0.9286150939021259
1783170481470097700,0.80909765625,-1.2312994522780178,0.8023702753633261,-0.924253172365576
1783170481480167700,0.819167724609375,-1.3413321908801794,0.8745445540837943,-0.889463671600446
1783170481490236400,0.829236328125,-1.579089392119646,1.002088545587659,-0.854927122683078
1783170481500306700,0.839306640625,-1.8051129009455442,1.1690944866470991,-0.8242560900874435
1783170481510375400,0.84937548828125,-1.7778367714852095,1.2946788685157895,-0.7776827010914683
1783170481520445700,0.85944580078125,-1.4143909973502158,1.2963419794224202,-0.7972377347804606
1783170481530514700,0.8695146484375,-0.9038198945373296,1.206320347713679,-0.722910442744568
1783170481540584400,0.87958447265625,-0.32681612539589405,1.0991897602938114,-0.7020935724262147
1783170481550654700,0.88965478515625,0.18894027110040187,0.898875862263888,-0.6641384472370148
1783170481560723500,0.899723388671875,0.6405687710791826,0.6843623200982809,-0.5791761447444558
1783170481570793700,0.909793701171875,0.8626829975068568,0.5044895909421145,-0.5277845052791759
1783170481580862500,0.919862548828125,0.8945224893599748,0.36434257684424515,-0.5329068532615899
1783170481590932500,0.929932373046875,0.7878554277986287,0.244378226814419,-0.5855981406159698
1783170481601001500,0.94000146484375,0.4547714741796255,0.16302081694602966,-0.6877931713297962
1783170481611071500,0.950071533203125,0.1373340025037527,0.1504031813047826,-0.7239061027184128
1783170481621140700,0.960140625,0.003781272104382515,0.10725421379953622,-0.7102152848877012
1783170481631210500,0.97021044921875,-0.07593114703595638,0.06410568468570708,-0.7575050054594874
1783170481641280800,0.98028076171875,-0.1395949331730604,0.036816403482854365,-0.7761444586735218
1783170481651349500,0.990349609375,-0.21859189752042293,0.027742870189249515,-0.7344067462056875
1783170481661419500,1.00041943359375,-0.2761497679978609,0.06091887134313583,-0.6257078134905546
1783170481671488500,1.010488525390625,-0.30047347739338875,0.1482610547095537,-0.4937315751602873
1783170481681558500,1.02055859375,-0.20142975031733512,0.22232509269937872,-0.3542548980720341
1783170481691627500,1.03062744140625,-0.004392682000994682,0.20863325195536017,-0.2582393779770471
1783170481701697500,1.040697509765625,0.08677285904586314,0.12101415134370326,-0.27660116502717136
1783170481711767600,1.050767578125,0.2825438529491424,0.054663318079710005,-0.2104022709218785
1783170481721836500,1.06083642578125,0.504872014388442,0.05027326642721891,-0.07502508330801501
1783170481731906600,1.070906494140625,0.7644564320325851,0.0965985258810222,0.045064555335603655
1783170481741975600,1.0809755859375,0.9441121574372052,0.07232625441178679,0.062433988613821566
1783170481752045600,1.091045654296875,1.0290198071330785,0.019137831190228462,-0.034846272453665735
1783170481762114600,1.101114501953125,1.1263859563857317,-0.05020575414896011,-0.14485946610514075
1783170481772184600,1.1111845703125,1.2337608739554882,-0.154799224306643,-0.2500623733980581
1783170481782253600,1.121253662109375,1.3008014430493116,-0.22747677637413144,-0.31974253374785183
1783170481792323600,1.131323486328125,1.2773410724848508,-0.27685426300540567,-0.31522914797663687
1783170481802393600,1.1413935546875,1.2563514759480952,-0.2566154848359525,-0.24293646704088895
1783170481812462600,1.151462646484375,1.3087480181396007,-0.21490341826602816,-0.11073694134876132
1783170481822532600,1.16153271484375,1.4266004905819891,-0.21721023390367625,0.019148937106132507
1783170481832601600,1.1716015625,1.5680787532836198,-0.33809637495353817,0.11615962398461997
1783170481842671600,1.181671630859375,1.5874790348023176,-0.550125552957505,0.1745497075024992
1783170481852740600,1.19174072265625,1.608985348689556,-0.7743446427099406,0.2677290725897997
1783170481862810600,1.201810546875,1.591155677488446,-0.9568453822821378,0.37062114565707743
1783170481872879600,1.211879638671875,1.5740654264777898,-1.1033115163989364,0.5280013263676315
1783170481882949600,1.22194970703125,1.5980968749284743,-1.1924861758895218,0.6257379894331098
1783170481893019600,1.23201953125,1.565540174716711,-1.320645961204171,0.7009439639996737
1783170481903088600,1.242088623046875,1.289896018153429,-1.472078193295747,0.7420254045158624
1783170481913158700,1.25215869140625,0.7528636093944311,-1.5974936483383178,0.7418352157060056
1783170481923227600,1.2622275390625,0.04117196834385395,-1.5538253331340848,0.7495759660258888
1783170481933297700,1.272297607421875,-0.6048153206527233,-1.4192948437437414,0.8013511614486575
1783170481943366400,1.282366455078125,-1.1753513550847767,-1.353993373402208,0.8094641060817986
1783170481953436700,1.292436767578125,-1.593446418774128,-1.320873632480204,0.8037419290427118
1783170481963506700,1.302506591796875,-1.83208858615458,-1.2584212679594755,0.855870833273977
1783170481973575700,1.31257568359375,-1.9971885474622249,-1.2162933140650392,0.8977714081533252
1783170481983645700,1.322645751953125,-2.0082354266554114,-1.152987839846313,0.8595115278638898
1783170481993714700,1.332714599609375,-1.8544851268798113,-1.1655237885534762,0.8011929021470249
1783170482003784700,1.34278466796875,-1.6271154641419647,-1.2722186149045824,0.6898364406604319
1783170482013853400,1.352853515625,-1.318784843507409,-1.3958398800067602,0.6059760349951684
1783170482023923700,1.362923828125,-0.9876561156094074,-1.4688823198638856,0.5815489017577842
1783170482033992000,1.372991943359375,-0.7199550270050764,-1.4838590858519076,0.5477909725300968
1783170482044061700,1.383061767578125,-0.46546939380466934,-1.4859120728589594,0.5945031854748726
1783170482054131700,1.393131591796875,-0.2544599142372608,-1.5135020905740557,0.7113662084884941
1783170482064200700,1.40320068359375,-0.029737551137804984,-1.4647694777175784,0.7952366240911185
1783170482074270700,1.413270751953125,0.03270049259662628,-1.3158113806545733,0.7511234146635979
1783170482084339700,1.423339599609375,-0.11475859808027744,-1.2651648970007896,0.6982655385706573
1783170482094409700,1.43340966796875,-0.36976854741573334,-1.3135108486272393,0.6368303152032196
1783170482104478700,1.443478759765625,-0.6605939064979552,-1.2971692240267991,0.5473976623635739
1783170482114548700,1.453548828125,-0.9349439315974711,-1.1872452064961194,0.5199858142269775
1783170482124617700,1.46361767578125,-1.0732587618321179,-0.9977101843729614,0.5539627565002069
1783170482134687700,1.473687744140625,-1.0975339559108017,-0.8145819605521857,0.626582331302762
1783170482144757800,1.4837578125,-1.0589479124069214,-0.6621867286473512,0.6981768373738974
1783170482154826800,1.49382666015625,-1.0170856237113475,-0.5371998742803931,0.7569150767423212
1783170482164896800,1.503896728515625,-1.1618068138569593,-0.4517147169575095,0.7893032885193825
1783170482174965500,1.513965576171875,-1.4283599014699457,-0.321592253267765,0.7740616610500961
1783170482185035800,1.524035888671875,-1.6642285124838352,-0.21386574578136205,0.673027417743951
1783170482195104800,1.534104736328125,-1.9172148470371961,-0.17397841042056678,0.583428285763599
1783170482205174800,1.5441748046875,-2.202315983253717,-0.1071224041134119,0.4870892876015976
1783170482215243800,1.554243896484375,-2.1961258964419366,0.043300650935620064,0.43625710864998396
1783170482225313500,1.5643134765625,-1.8752257170915603,0.22962664788439868,0.4054422471368685
1783170482235383800,1.5743837890625,-1.4241747247397898,0.38296412907540794,0.392923213031888
1783170482245452500,1.58445263671875,-0.9957318700373172,0.5096111717395484,0.35498376033585516
1783170482255522800,1.594522705078125,-0.6748246764242649,0.5663417976126075,0.29380590926297007
1783170482265591600,1.604591552734375,-0.43841304457485675,0.5784224037677049,0.19133388823866843
1783170482275661800,1.614661865234375,-0.1127642093926668,0.57074763135612,0.10884952016696334
1783170482285730800,1.624730712890625,0.27938334309160706,0.5743002092711628,0.11651808203347026
1783170482295800600,1.634800537109375,0.6553904926359653,0.646334494999051,0.1554776350248605
1783170482305869800,1.644869873046875,0.8976187018096446,0.7593832204215228,0.22566439318992196
1783170482315939600,1.654939697265625,0.8849199637562036,0.8501860656358301,0.3428806135553866
1783170482326009900,1.665009765625,0.772591807693243,0.949583720716089,0.4345499394059181
1783170482336078600,1.67507861328125,0.6587585077643394,1.0268598526202142,0.5115703429833054
1783170482346148600,1.685148681640625,0.6754144590109586,1.0368152833148836,0.5625291074566543
1783170482356217600,1.695217529296875,0.6908008287131786,1.0012539944596588,0.54419952390939
1783170482366287600,1.70528759765625,0.727495943903923,0.9953681512914597,0.5197018461864441
1783170482376356900,1.71535693359375,0.6917880861848592,0.9611541853919625,0.3984765363100916
1783170482386426600,1.725426513671875,0.5803016416430473,0.8506015145689249,0.17654749372359363
1783170482396496000,1.735495849609375,0.48638358701765533,0.7666767384305596,-0.017287381017953157
1783170482406565600,1.745565673828125,0.3856026608854532,0.7475709098137915,-0.142812360849604
1783170482416635600,1.7556357421875,0.32265199145376683,0.743104139663279,-0.1922564099110663
1783170482426704600,1.76570458984375,0.29927754560708997,0.7773081686906516,-0.12629654872603713
1783170482436774700,1.775774658203125,0.35872108370065686,0.8596928757801652,-0.0002689166018739343
1783170482446843600,1.78584375,0.4148153113663196,0.9747586401134729,0.15809545284043997
1783170482456913700,1.79591357421875,0.43685529373884197,1.112532933730632,0.3684225761668756
1783170482466983000,1.80598291015625,0.4302414285570383,1.2295127149917184,0.5294912361318245
1783170482477052700,1.816052734375,0.5074193607836961,1.253980509033054,0.6397731637220829
1783170482487122000,1.826121826171875,0.6753776341319083,1.1653683057308197,0.6302907573666423
1783170482497191700,1.836191650390625,0.8786918830215931,0.9953060458406805,0.5265617950838059
1783170482507261700,1.84626171875,1.0552899744212627,0.770392836344242,0.4035290704593062
1783170482517330700,1.85633056640625,1.1802414652138948,0.62277212536484,0.3023832930700853
1783170482527400700,1.866400634765625,1.186504032739997,0.5212118854232132,0.274080779704079
1783170482537469700,1.8764697265625,1.0593716907769442,0.504915707399696,0.3636766237488016
1783170482547539700,1.886539794921875,0.9508464341282844,0.5474329528726637,0.48557216103691603
1783170482557609000,1.89660888671875,0.8368219955414533,0.5855228834226727,0.6533572332426906
1783170482567678700,1.9066787109375,0.6183750594496726,0.5961588437274098,0.7089245874900371
1783170482577747700,1.916747802734375,0.43319618670940396,0.5961832475163042,0.7142994854614139
1783170482587817700,1.926817626953125,0.34040450576543807,0.5602940418809652,0.6523827621873468
1783170482597887700,1.9368876953125,0.29960896951854227,0.4728016363888979,0.4772169320804998
1783170482607956700,1.946956787109375,0.2322515895605087,0.36635420892760157,0.3419217053953558
1783170482618026800,1.95702685546875,0.133498954385519,0.2976616348430514,0.25010394751746207
1783170482628095700,1.967095703125,0.0725666390389204,0.2814486050583422,0.22670239446815102
1783170482638165800,1.977165771484375,0.07773498158752917,0.3047822805032134,0.29070149524053557
1783170482648234500,1.987234375,0.19514029478430747,0.3298237827792764,0.3681223511112854
1783170482658304800,1.9973046875,0.42602585668861864,0.30888591642975805,0.44149391332492227
1783170482668373800,2.007373779296875,0.7587135044664144,0.2196988358490169,0.45477523703929035
1783170482678443800,2.01744384765625,0.8769324721336365,0.12932649100646376,0.4132753519153222
1783170482688512800,2.0275126953125,0.868566794848442,0.0006854980461299419,0.34155020520184187
1783170482698582500,2.03758251953125,0.7683680525183677,-0.06910042423307895,0.3524505520638078
1783170482708652800,2.04765283203125,0.5929255608946085,-0.03190861156657338,0.3943967196505517
1783170482718721500,2.057721435546875,0.37206864105165005,0.11286503941863775,0.44342108199521896
1783170482728791800,2.067791748046875,0.16854221071600914,0.23847265603244303,0.423606228326261
1783170482738860500,2.077860595703125,-0.01913140144944191,0.31015842058360577,0.34827330291178077
1783170482748930800,2.087930908203125,-0.07996551711857318,0.27222645707428456,0.24934505544155836
1783170482758999800,2.097999755859375,-0.09605682021975517,0.23677549672573803,0.18621029814723877
1783170482769069600,2.108069580078125,0.0044195700079202645,0.18448124586492776,0.15115515044955535
1783170482779138800,2.118138916015625,0.22892858261764049,0.07003828960508107,0.16566289242003113
1783170482789208600,2.12820849609375,0.35939036126434803,-0.04472235430181026,0.11634523708405904
1783170482799278800,2.13827880859375,0.4058750490635633,-0.10896160223931073,-0.04041672039660625
1783170482809347600,2.14834765625,0.327892230194807,-0.21846564079225061,-0.18750402775220573
1783170482819417600,2.15841748046875,0.07325169869363307,-0.36371275450810786,-0.24200360663756726
1783170482829486600,2.168486572265625,-0.440975004017353,-0.4108224423378706,-0.21879107335433362
1783170482839556600,2.178556640625,-1.1547300073385238,-0.06046250587776303,-0.21656000810032708
1783170482849625900,2.1886259765625,-1.8197855694204568,0.5469844784528016,-0.10416055863313377
1783170482859695600,2.198695556640625,-2.186616894340515,1.1245572796538472,0.00904810202482622
1783170482869764900,2.208764892578125,-2.1683687054663894,1.3745558305680752,0.09951035820711404
1783170482879834600,2.218834716796875,-2.0357295827805997,1.4088308790050446,0.032595790113136174
1783170482889904600,2.228904541015625,-1.6768664602607488,1.3718467177398501,-0.261142917398829
1783170482899973600,2.2389736328125,-1.3321411686867475,1.1716644832655787,-0.47898262657877055
1783170482910043600,2.249043701171875,-1.1231909597367047,1.0072956127114594,-0.582943461388722
1783170482920112600,2.259112548828125,-0.9455816454678774,0.9351761329181492,-0.4638466879736632
1783170482930182700,2.2691826171875,-0.894753375506401,0.9247662364542484,-0.22312040779553352
1783170482940252000,2.279251953125,-0.7419651987612247,1.0033588577844201,-0.0497596086835023
1783170482950321700,2.28932177734375,-0.4672983627974987,1.0539188321985304,0.0341675192421535
1783170482960391000,2.299390869140625,-0.0938420667797327,0.9476657582655549,0.004612238469230943
1783170482970460700,2.309460693359375,0.2934124529659748,0.8629116916961967,-0.09793705360894091
1783170482980530700,2.31953076171875,0.6315139424860478,0.7264106328852474,-0.21620913056973368
1783170482990599700,2.329599609375,0.9335761503756046,0.5908762271493673,-0.3710936950722709
1783170483000669700,2.339669677734375,1.0362398215144872,0.4596320659533143,-0.5454183981798589
1783170483010738700,2.34973876953125,0.8851187011986971,0.34206060240939257,-0.8051992151789367
1783170483020808700,2.35980859375,0.5899246255129575,0.29563334388583895,-1.0584016767010092
1783170483030878000,2.3698779296875,0.29553660551309585,0.30211554551199077,-1.2171462776325643
1783170483040948500,2.379948486328125,-0.11305588581562041,0.34391090645119543,-1.3149731762647627
1783170483051017500,2.390017578125,-0.5065221196830272,0.4493324979960918,-1.3389376969590783
1783170483061087500,2.40008740234375,-0.9569716390103101,0.5759541139580309,-1.3270889998637139
1783170483071157500,2.410157470703125,-1.3742489565759897,0.6888200301595032,-1.3457308642305432
1783170483081226500,2.4202265625,-1.5504080720365045,0.8175624376676977,-1.2723767280757425
1783170483091296500,2.430296630859375,-1.55369893027544,0.9253586493894457,-1.183294861435145
1783170483101365500,2.440365478515625,-1.271342708852887,0.9775433023959398,-1.0909552351076155
1783170483111435500,2.450435546875,-0.7579115404337644,1.0269723730839788,-0.9887665610693395
1783170483121504500,2.46050439453125,-0.1437082137107849,0.9760115627840161,-0.8733285293575376
1783170483131574300,2.47057421875,0.32115853802561756,0.8486723000720143,-0.7874053459435701
1783170483141643500,2.4806435546875,0.6804302413463592,0.7811576837256551,-0.6974579485148191
1783170483151713300,2.49071337890625,1.0415770908892155,0.711775812202692,-0.6252256559967995
1783170483161782500,2.500782470703125,1.4643494987398384,0.6371181922338902,-0.527789364117384
1783170483171852500,2.5108525390625,1.8156798876672982,0.49083442894667384,-0.4755038080196827
1783170483181922600,2.520922607421875,2.0059353330194947,0.3090916681349277,-0.48280065049696713
1783170483191991600,2.530991455078125,1.9979151081711053,0.08185878351926804,-0.5023115893159061
1783170483202061300,2.541061279296875,1.7540134128272533,-0.11344722322076559,-0.5606438416993245
1783170483212130600,2.551130615234375,1.2563549830794334,-0.2512789461135864,-0.5392961159072817
1783170483222200300,2.561200439453125,0.6940683060765266,-0.3481314467556774,-0.4175622719869017
1783170483232269600,2.57126953125,0.24735914232134817,-0.32779300760403274,-0.28933669142704455
1783170483242339300,2.58133935546875,-0.05143558820486068,-0.3238360866717994,-0.17397497635446488
1783170483252408600,2.59140869140625,-0.14568506674170492,-0.42731005128026006,-0.10932630736585706
1783170483262478600,2.601478515625,-0.23182138144969938,-0.6202601425439119,-0.18774147150358184
1783170483272548400,2.61154833984375,-0.26292846737504005,-0.8190290030889212,-0.30806890095844863
1783170483282617600,2.62161767578125,-0.2862497217297554,-0.9606918285772204,-0.3486322358846664
1783170483292687400,2.631687255859375,-0.22166239100694654,-1.0826800856500864,-0.37806302262824026
1783170483302756600,2.641756591796875,-0.1081681137740612,-1.1275788194321095,-0.2756570525774732
1783170483312826400,2.651826416015625,-0.0107663086861372,-1.1482518973655997,-0.10438492370722814
1783170483322895600,2.6618955078125,0.03758534202873707,-1.1138719272494315,0.14052863382659853
1783170483332965400,2.67196533203125,0.076370122975111,-1.0347896227061748,0.4159457767009735
1783170483343034600,2.68203466796875,0.09379588955044746,-0.9748584472261369,0.6065311846598982
1783170483353104600,2.692104736328125,0.15541443359553814,-0.9428767704233527,0.7473876622013748
1783170483363174400,2.70217431640625,0.23484219057559966,-0.9146699359841645,0.7553133406341076
1783170483373243600,2.71224365234375,0.278441678327322,-0.9492918981626629,0.7676506249640137
1783170483383313400,2.7223134765625,0.19690204375982284,-0.9441542430132627,0.762229988154769
1783170483393382700,2.732382568359375,0.00035889644026756285,-0.8910134583257138,0.6844399884443729
1783170483403452400,2.742452392578125,-0.212392458358407,-0.8436611939117312,0.6201888308733702
1783170483413521400,2.752521484375,-0.4699947622746229,-0.8256644955806434,0.5789513960778713
1783170483423591400,2.76259130859375,-0.6096826344281434,-0.7508505160063504,0.6255915666997433
1783170483433660400,2.772660400390625,-0.525983776000142,-0.7187342530384659,0.8111609000623226
1783170483443730700,2.782730712890625,-0.24523849690556523,-0.65275678313151,1.1361411883331836
1783170483453799400,2.79279931640625,0.14905541995763777,-0.4982346222005784,1.396448367293924
1783170483463869700,2.80286962890625,0.4041775974959135,-0.2701730316758156,1.4738152462214231
1783170483473939500,2.812939453125,0.23834523026049137,-0.1435118143558502,1.4166038510940968
1783170483484008400,2.823008544921875,-0.467502945458889,-0.11509528268873691,1.3593608917847275
1783170483494078500,2.833078369140625,-1.4666741422951222,-0.02050458949878812,1.247953649958968
1783170483504147500,2.8431474609375,-2.2557225792706013,0.24835750570893286,1.2001650399543344
1783170483514217500,2.853217529296875,-2.61399299659431,0.5295245173469185,1.4030788913495837
1783170483524286500,2.863286376953125,-2.7541274434715506,0.7685887095317244,1.549071124344319
1783170483534356500,2.8733564453125,-2.736234059384465,0.9582179858095944,1.5374235027790069
1783170483544425500,2.883425537109375,-2.474861004757881,1.1126480845429003,1.40615376875028
1783170483554495500,2.89349560546875,-2.002977067735791,1.1535311529427765,1.329726801021397
1783170483564564500,2.903564453125,-1.415065535610914,1.0832470718830822,1.3172769231624901
1783170483574634500,2.913634521484375,-0.8051093449383974,1.0097789539597928,1.3296651339620351
1783170483584704500,2.92370458984375,-0.2884317419439554,0.9823635621592401,1.380699447889626
1783170483594773500,2.9337734375,0.11283259845376015,0.9462883324325084,1.44411159735322
1783170483604843300,2.94384326171875,0.4540180254638195,0.9180269913271069,1.6258622492104768
1783170483614912500,2.95391259765625,0.6280939049094915,0.952188934778422,1.7862451188683508
1783170483624982300,2.963982177734375,0.631662411046028,1.1078384923040867,1.9569306252233682
1783170483635051500,2.974051513671875,0.5705693521797657,1.216618746627122,2.111316154162586
1783170483645121500,2.98412158203125,0.45585225515365596,1.227403613883257,2.1807257904753086
1783170483655190500,2.9941904296875,0.21430384493768215,1.154851734022051,2.18447199126631
1783170483665260500,3.004260498046875,-0.029112697237730023,1.0842254153959452,2.107241159808636
1783170483675330300,3.014330322265625,-0.10699731642901897,1.0180771189667284,2.060421687097102
1783170483685399600,3.024399658203125,0.003320668855309486,0.9732003047555684,2.0109687971420587
1783170483695469300,3.03446923828125,0.21221593274772166,0.8731086760617792,1.9169898061096666
1783170483705538600,3.04453857421875,0.3016986352741718,0.7360903153784573,1.8220573137447238
1783170483715608300,3.0546083984375,0.19885668495893477,0.6396779597193002,1.718760751529783
1783170483725677600,3.064677490234375,-0.03771393684446812,0.6601126988522708,1.6633733569592237
1783170483735747600,3.07474755859375,-0.2771551456481218,0.7578957583427429,1.6866177466854453
1783170483745816600,3.084816650390625,-0.3504658810526132,0.8040506296657025,1.7221153226546941
1783170483755886600,3.094886474609375,-0.2848854476392269,0.8182445747129619,1.7522054866224526
1783170483765956400,3.104956298828125,-0.2766208926409483,0.8047386119298636,1.8042805417746304
1783170483776025600,3.115025634765625,-0.3439461238950491,0.8617368026979267,1.8666563339278102
1783170483786095400,3.125095458984375,-0.4721674301385879,0.963331529431045,1.9904403883762656
1783170483796164600,3.13516455078125,-0.6268646553754806,1.0104526154376565,2.0517279469013214
1783170483806234400,3.145234375,-0.7122890224218368,0.9844707635715603,2.044209972486645
1783170483816303600,3.1553037109375,-0.5383265402227639,0.9910511648751795,2.1124593328483403
1783170483826373600,3.16537353515625,-0.22644670267403125,1.00918259550184,2.1800959681391716
1783170483836442400,3.1754423828125,0.11948036590516567,1.0040659831404686,2.26520790823549
1783170483846512600,3.1855126953125,0.31729893998801706,0.9888900413185358,2.344768059423566
1783170483856581400,3.195581298828125,0.29686639281213284,0.9914571153275668,2.366235794866085
1783170483866651600,3.205651611328125,0.186782216283679,0.9980464305900036,2.3691731634922326
1783170483876721400,3.215721435546875,0.10051321510672569,1.0378307439677417,2.4459616580098866
1783170483886790400,3.225790283203125,0.048072249251604075,1.116212499026209,2.49554606539011
1783170483896860400,3.2358603515625,0.06288228037059307,1.1427711278669535,2.501075642466545
1783170483906929400,3.245929443359375,0.12706570646762846,1.1251822796843944,2.4650235013544557
1783170483916999700,3.255999755859375,0.1388379773259163,1.070738157313317,2.35137651777789
1783170483927068400,3.266068359375,0.15808979028463363,1.0054026385717094,2.221762295871228
1783170483937138400,3.276138427734375,0.11298515866696834,0.9449595680467784,2.1679025492593644
1783170483947207400,3.28620751953125,-0.011278934383392333,0.9184808725744485,2.1415542021684346
1783170483957277400,3.29627734375,-0.18163316295742987,0.93982322807163,2.085724032266438
1783170483967346400,3.306346435546875,-0.23071721960008143,0.954620107448101,2.048162655635178
1783170483977416400,3.31641650390625,-0.18030279113650322,0.9358895418845117,2.018215845660865
1783170483987486500,3.326486572265625,-0.13593641066551207,0.890540433986485,1.949587715114653
1783170483997555500,3.336555419921875,-0.09767126967906951,0.8344248712718486,1.822778321495652
1783170484007625500,3.34662548828125,-0.08845043686926364,0.7244561378166079,1.7014483822010456
1783170484017694500,3.356694580078125,-0.027156886994838713,0.6134761814922094,1.6297301766850054
1783170484027764500,3.366764404296875,-0.05632803642153739,0.5521411305636167,1.583545933137089
1783170484037832700,3.376832763671875,-0.06841127292513847,0.5163586001731455,1.5646253979593514
1783170484047902700,3.38690283203125,-0.0031260230660438535,0.46230464616343375,1.581093279287964
1783170484057971700,3.3969716796875,0.01905249099433422,0.3567055060945451,1.5263981047652662
1783170484068041700,3.407041748046875,-0.002642623463273048,0.2818475412480533,1.422244779590517
1783170484078110700,3.41711083984375,-0.03784837687909603,0.30465222438275813,1.3477655849285424
1783170484088180700,3.4271806640625,-0.05427811815440654,0.34762335110306736,1.2806484434671699
1783170484098250800,3.437250732421875,-0.0645452451467514,0.37547143523246046,1.1387698563363402
1783170484108319700,3.44731982421875,-0.11435586249828338,0.4128929650016129,1.0061077181011437
1783170484118389800,3.4573896484375,-0.17067220848202705,0.3924668475665152,0.9615520986683667
1783170484128458800,3.467458740234375,-0.15143033239543438,0.3410892731592059,1.063842114189267
1783170484138528800,3.47752880859375,0.10056991373002529,0.280502410249412,1.1508979548949747
1783170484148597800,3.48759765625,0.3517313709437847,0.30943624378889795,1.0970715990960598
1783170484158667800,3.497667724609375,0.3617915771871805,0.28835502344593406,1.0063751368656755
1783170484168736800,3.50773681640625,0.19230536361932754,0.20234701129272578,0.9409902990896254
1783170484178806800,3.517806884765625,-0.032958266749978066,0.18678674632832407,0.8611638251155614
1783170484188876800,3.527876708984375,-0.1465057354748249,0.20500541684702037,0.8472998426750302
1783170484198945800,3.53794580078125,-0.14893793105781078,0.2291353572361171,0.8144764543510973
1783170484209015800,3.548015869140625,-0.17212182276844978,0.2905846821941435,0.6807584503874182
1783170484219084800,3.558084716796875,-0.3492342934310436,0.34818040046393867,0.5210972826002165
1783170484229154800,3.56815478515625,-0.8045265766143799,0.4152997338823974,0.32469617409985513
1783170484239223800,3.578223876953125,-1.4101152197271585,0.5705611688733101,0.03309102628417313
1783170484249293800,3.5882939453125,-1.6490221755236387,0.7579436891376972,-0.049437126130331306
1783170484259362800,3.59836279296875,-1.4688316125899552,0.9534969486370682,-0.034286903271544725
1783170484269432800,3.608432861328125,-1.2231395266979932,1.1420303925022481,0.08273817843599245
1783170484279501600,3.61850146484375,-1.0574895302921532,1.3392594762593506,0.11572627406865357
1783170484289571800,3.62857177734375,-0.9201596194416284,1.4873399137049912,0.017106416694168
1783170484299641900,3.638641845703125,-0.6992004082679748,1.5346097605325282,-0.11560915049500763
1783170484309710800,3.6487109375,-0.4723363569647073,1.4689219212219118,-0.30490086538158356
1783170484319780900,3.65878076171875,-0.3277560365945101,1.3383224876701831,-0.5688393865820021
1783170484329849600,3.668849609375,-0.2364355972468853,1.157776097036153,-0.8961693797841668
1783170484339920000,3.678919921875,-0.20830723487138747,1.0263222386121749,-1.1787004463169724
1783170484349988600,3.688988525390625,-0.2451619245380163,1.003980204553157,-1.4452850250467657
1783170484360059000,3.699058837890625,-0.2888473370075226,1.0536736252658068,-1.4688058936268091
1783170484370127600,3.709127685546875,-0.37225451901257034,1.1410633010357618,-1.369098734205961
1783170484380198000,3.719197998046875,-0.40677930442690846,1.3041669739596544,-1.2082648328449577
1783170484390266600,3.7292666015625,-0.32801731787919997,1.4559193779163062,-1.0249901862908155
1783170484400336600,3.739336669921875,-0.2443950318187475,1.519895006481558,-0.8713959538597613
1783170484410407000,3.749406982421875,-0.10712883385419845,1.505190335433185,-0.8159426544461399
1783170484420475600,3.7594755859375,-0.0679611910700798,1.415270995055139,-0.9277176336057483
1783170484430546000,3.7695458984375,-0.08839432276785374,1.2797165694445372,-1.0560238416537642
1783170484440614700,3.77961474609375,-0.10963058754205703,1.1344922520823777,-1.171826761155203
1783170484450684700,3.7896845703125,-0.1880319240838289,1.0711100593656302,-1.2149975751660764
1783170484460753700,3.799753662109375,-0.3816501238673925,1.0969077868364752,-1.1886610646434128
1783170484470823700,3.80982373046875,-0.6858095962971449,1.161266715630889,-1.078839630704373
1783170484480892700,3.819892578125,-0.8484960667222737,1.2683303752943873,-0.9016261108200997
1783170484490962700,3.829962646484375,-0.8728431569933891,1.3316529467783869,-0.8036766087215393
1783170484501032700,3.84003271484375,-0.8491425479322672,1.303830289351195,-0.7591290264647453
1783170484511101700,3.850101806640625,-0.7870949648201465,1.2316555722393094,-0.7863530604116619
1783170484521171700,3.860171630859375,-0.5609335088282823,1.106630870079994,-0.8822099741451441
1783170484531240700,3.87024072265625,-0.2610246795803308,0.9044925331018865,-0.9318356633838265
1783170484541310700,3.880310791015625,-0.04004150300920009,0.6966662136152386,-1.0176309826344252
1783170484551379700,3.890379638671875,0.04624737191200256,0.5433486061684787,-1.0502430662952362
1783170484561449700,3.90044970703125,0.006789221748709678,0.47108270364180205,-0.9950148078091442
1783170484571518700,3.910518798828125,0.004710077387094497,0.5260137327469885,-0.9188114197030663
1783170484581588700,3.920588623046875,0.166317520403862,0.6004306758277118,-0.8089783683914691
1783170484591658000,3.930657958984375,0.36464872018396854,0.5241884170159697,-0.7072591384958475
1783170484601727700,3.940727783203125,0.4643178856819868,0.45283451476767655,-0.6767988260414451
1783170484611796700,3.950796630859375,0.5670715731918812,0.3925450273692608,-0.7083593548227101
1783170484621866800,3.96086669921875,0.6381020887047052,0.2967860210523009,-0.7505510216031223
1783170484631936800,3.970936767578125,0.5925678334981203,0.14911810993030666,-0.7720708525590598
1783170484642005800,3.981005859375,0.4995522806704044,0.048991994445025916,-0.8000546918973326
1783170484652075800,3.99107568359375,0.4422393248647451,0.0028531974740326404,-0.7903706254899502
1783170484662144800,4.001144775390625,0.35087504637539385,-0.03828676829636097,-0.709769148555398
1783170484672214800,4.01121484375,0.2243792487502098,-0.018690525814145802,-0.6099059583226218
1783170484682283800,4.02128369140625,0.16579612687826156,0.07869988109692931,-0.5403829247632995
1783170484692353800,4.031353759765625,0.1334907710790634,0.08406155426055192,-0.4842660834070295
1783170484702422800,4.0414228515625,0.23058920930624008,0.04613426692634821,-0.5253268099287525
1783170484712492800,4.051492919921875,0.4319833037883043,-0.05471227178797126,-0.600033931595087
1783170484722561800,4.061561767578125,0.5650958892047405,-0.19413374809026718,-0.7016825804725288
1783170484732631800,4.0716318359375,0.5858569376826286,-0.3216751092456281,-0.777536351423338
1783170484742701800,4.081701904296875,0.548151184144616,-0.40061099105551834,-0.840544084804505
1783170484752770600,4.0917705078125,0.5638719003677368,-0.4705962352991104,-0.7881940851684659
1783170484762840800,4.1018408203125,0.4463923528909683,-0.47416839469745753,-0.7161706130955368
1783170484772909800,4.111909912109375,0.25104046118259427,-0.3766273272693157,-0.5852456739164889
1783170484782979800,4.121979736328125,0.029300328764319417,-0.2663242472931743,-0.4620947297398001
1783170484793048800,4.132048828125,-0.1468055952042341,-0.20956030367240308,-0.3817235909624025
1783170484803118600,4.14211865234375,-0.2263882504850626,-0.1529886677533388,-0.3685599022783339
1783170484813187800,4.152187744140625,-0.09102584031522273,-0.16852949736490844,-0.4102233074009418
1783170484823257600,4.162257568359375,0.08490355804264545,-0.3039863078199327,-0.5243650156918913
1783170484833326800,4.172326904296875,0.24010873280167577,-0.4586410090893507,-0.614709157353267
1783170484843396600,4.182396728515625,0.29814474218487735,-0.554665972866118,-0.6503460687279701
1783170484853466600,4.192466552734375,0.29808278286457063,-0.6070024554334581,-0.6219897428154945
1783170484863535900,4.202535888671875,0.2632733352899551,-0.6283376505374908,-0.5234446129113436
1783170484873605600,4.212605712890625,0.25512568466961383,-0.5608139741018414,-0.40336105694863944
1783170484883675000,4.2226748046875,0.3359387585282326,-0.4633120696403086,-0.2531338532652706
1783170484893744600,4.23274462890625,0.32901158961355687,-0.46320101048126816,-0.21508482098123058
1783170484903814000,4.24281396484375,0.212851308041811,-0.5033775380469858,-0.3001351305508055
1783170484913883600,4.252883544921875,0.15768413209319113,-0.5294904689468443,-0.4063238888096064
1783170484923953000,4.262952880859375,0.24442776504456995,-0.5869092232145369,-0.44573527722172435
1783170484934022700,4.273022705078125,0.30929040557742116,-0.6440101437047123,-0.4551821008071303
1783170484944092000,4.283091796875,0.30758243261575696,-0.6718002140365541,-0.4647083828369155
1783170484954162000,4.293161865234375,0.3008195143520832,-0.6704923463083803,-0.5157942442886531
1783170484964231700,4.303231689453125,0.2180301719844341,-0.6617366467922926,-0.5377999955980107
1783170484974301000,4.313301025390625,0.11457330464124679,-0.6172209209784865,-0.5639228999026119
1783170484984370700,4.32337060546875,-0.04397708889245987,-0.5728511795066297,-0.5218370681168512
1783170484994440000,4.33343994140625,-0.2717009718954563,-0.5386258154302835,-0.5064791207915171
1783170485004509700,4.343509765625,-0.4326853145778179,-0.43937633664906023,-0.4566262717334553
1783170485014579000,4.353578857421875,-0.45835926953852174,-0.3603298340715468,-0.3869360283810645
1783170485024648700,4.363648681640625,-0.35667934873998164,-0.3375572996407747,-0.29393855919931083
1783170485034717700,4.3737177734375,-0.09779577284157276,-0.4102636394113302,-0.21242668942157178
1783170485044788500,4.38378857421875,0.265196412307024,-0.4862367258928716,-0.2091661532556638
1783170485054857500,4.393857421875,0.3882768485307693,-0.5661446676053107,-0.3137558605536818
1783170485064927500,4.403927490234375,0.07061258236169815,-0.5671932998754083,-0.49201187522821127
1783170485074997500,4.41399755859375,-0.3253068898767233,-0.5655180601395666,-0.6154904439240694
1783170485085066500,4.42406640625,-0.7173211713701486,-0.4583901030682027,-0.5871791992623359
1783170485095136500,4.434136474609375,-0.9182266055524348,-0.21997414565905926,-0.3897611322717741
1783170485105205500,4.44420556640625,-0.9450836328178643,0.019529022464901208,-0.09266041924711316
1783170485115275300,4.454275146484375,-0.8565981246352196,0.2166812415935099,0.11805427862480282
1783170485125344500,4.464344482421875,-0.636647798243165,0.28384543706700205,0.23324578822962938
1783170485135414300,4.474414306640625,-0.27965397672653197,0.18357450628355143,0.3300145195784047
1783170485145483500,4.4844833984375,-0.04305938952565193,-0.03992226054370403,0.32912498686015607
1783170485155553500,4.494553466796875,-0.05694412249326706,-0.14912424741014838,0.33192042626496404
1783170485165622500,4.50462255859375,-0.07971534174978732,-0.09732844759076834,0.3877500847103074
1783170485175692500,4.514692626953125,-0.13997954857647418,0.06308189459592103,0.48255990054365244
1783170485185762300,4.52476220703125,-0.2398947977900505,0.15487302019521593,0.5759606898292898
1783170485195831600,4.53483154296875,-0.32251930498480796,0.22099092148616908,0.6245296365566552
1783170485205901300,4.5449013671875,-0.43521921696960925,0.27386224158257244,0.6058792966224252
1783170485215970600,4.554970458984375,-0.5397761545091867,0.2995389730222523,0.5777172877056523
1783170485226040300,4.565040283203125,-0.5565589470058679,0.3101204266607761,0.5647535420404747
1783170485236109600,4.575109619140625,-0.5517530080288648,0.3066382836334407,0.611608378326334
1783170485246179600,4.5851796875,-0.46420098130404946,0.3727221365243196,0.6841708161141723
1783170485256248600,4.59524853515625,-0.15605799219608307,0.4298332861475646,0.8193992977060377
1783170485266318600,4.605318603515625,0.17643968596756457,0.39682007433995603,0.9148509185742586
1783170485276387300,4.61538720703125,0.30520927374362944,0.3176604667767882,0.9890523922733961
1783170485286457600,4.62545751953125,0.33156068957448004,0.32379122461676596,1.051208842587471
1783170485296526300,4.6355263671875,0.2953483894646168,0.41812268234863875,1.131314352698624
1783170485306596600,4.6455966796875,0.23591771085262297,0.4840001990124583,1.2611578533165155
1783170485316666400,4.655666259765625,0.25548341206610203,0.4943871529921889,1.3551454660467803
1783170485326735600,4.665735595703125,0.35165947475135323,0.49656917320638894,1.3895967478334903
1783170485336805600,4.6758056640625,0.3830190741330385,0.41468160198405385,1.3042723340302704
1783170485346874400,4.685874267578125,0.3476011392712593,0.2700524740360677,1.1357460515357554
1783170485356944600,4.695944580078125,0.3450654833137989,0.10851181264519691,0.9492952591635286
1783170485367013400,4.706013427734375,0.2701110723555088,-0.0032682080157101154,0.8317227727063
1783170485377083600,4.716083740234375,0.17866262271404265,0.0002649345465004444,0.7807491029247641
1783170485387152400,4.72615234375,0.09481061955094337,0.022459815219789743,0.8312532554984092
1783170485397222400,4.736222412109375,-0.052886956056952476,0.05820668977499008,0.8868001514796167
1783170485407291400,4.74629150390625,-0.1025426751077175,0.14214490991681814,0.9297164062075316
1783170485417361400,4.756361328125,-0.04458440713584423,0.18720906339362262,0.9633278031039982
1783170485427431700,4.766431640625,0.024651041653752325,0.19685820461809633,0.9926203138880431
1783170485437500400,4.77650048828125,0.09537000699937342,0.1354053725287318,0.9172862559624015
1783170485447570700,4.78657080078125,0.10257423928976059,0.042152649944275616,0.8270520774815231
1783170485457639400,4.796639404296875,0.08563537944853306,-0.0403635745704174,0.729904612480849
1783170485467709400,4.80670947265625,0.08735095119476317,-0.10561667572557926,0.6001215368133038
1783170485477778400,4.8167783203125,0.09904781872928142,-0.1538601898908615,0.47495848562922327
1783170485487848400,4.826848388671875,0.13576923740506172,-0.17860168630704282,0.3790859724678099
1783170485497917400,4.83691748046875,0.2948404399424791,-0.11344342382848262,0.43255686589255926
1783170485507987500,4.846987548828125,0.4149287086129188,0.03489113450869918,0.6155124365601689
1783170485518056400,4.857056396484375,0.4590151030987501,0.20320655073150992,0.7217883068468421
1783170485528126500,4.86712646484375,0.6297574542075395,0.2783006624214351,0.8233231200862675
1783170485538196500,4.877196533203125,0.7663169652074575,0.19910043058693408,0.77513389339149
1783170485548265500,4.887265380859375,0.7544821505069732,0.09832096575945615,0.6352634312126785
1783170485558335500,4.89733544921875,0.7080126602768898,0.05948036297261715,0.5139554114889353
1783170485568404500,4.907404541015625,0.7137795532405377,0.07934680069833994,0.45444458031281826
1783170485578474500,4.917474609375,0.7437672797471284,0.1438689572304487,0.47800863044746217
1783170485588543500,4.92754345703125,0.7498825477570294,0.20356836978122592,0.5413997736556455
1783170485598613500,4.937613525390625,0.8148533248394727,0.2862101203717291,0.6082705756731331
1783170485608682500,4.9476826171875,0.9526187044978142,0.33759061738848684,0.6347601578656583
1783170485618752500,4.95775244140625,1.0231284110069274,0.28977263515889645,0.6566941225804388
1783170485628821200,4.9678212890625,0.8991150778472423,0.2345427692376077,0.6645660980645567
1783170485638891500,4.9778916015625,0.7253472414374351,0.2489025723710656,0.6695183136444538
1783170485648961500,4.98796142578125,0.5178752883464097,0.2121386297278106,0.6970761826556175
1783170485659030500,4.998030517578125,0.37668461041450496,0.20357962182760236,0.7254714523389935
1783170485669100500,5.0081005859375,0.3141390146523714,0.14761384284719825,0.6645592299323528
1783170485679169500,5.01816943359375,0.23499884244203567,0.027573358841240403,0.556367004630342
1783170485689239600,5.028239501953125,0.19751696078777312,-0.08980287439152598,0.482499439060688
1783170485699308300,5.038308349609375,0.1137882917433977,-0.215578833309561,0.43952633957900106
1783170485709378600,5.048378662109375,-0.14936580108106134,-0.2969777442321181,0.44154425527267155
1783170485719447300,5.058447265625,-0.45203708077967164,-0.34289836840778587,0.5688271481549367
1783170485729517600,5.068517578125,-0.577064559417963,-0.3990070629902184,0.7370014388740063
1783170485739586600,5.078586669921875,-0.4445142840594053,-0.49640857581719755,0.850432441612333
1783170485749656300,5.08865625,-0.3688853348404169,-0.6436888027958572,0.8980456950500607
1783170485759725600,5.0987255859375,-0.5741179845720529,-0.821650729894638,0.7683987399175762
1783170485769795300,5.10879541015625,-1.0387480049431324,-0.9849940567933022,0.6503422693356872
1783170485779865600,5.118865478515625,-1.5447499001443386,-0.9967318408600986,0.6046898676421493
1783170485789934300,5.128934326171875,-1.9954349817931651,-0.8836147263765335,0.5952788094898686
1783170485800004600,5.139004638671875,-2.282480237814784,-0.7032946918442845,0.6471972493082284
1783170485810073300,5.1490732421875,-2.497737437954545,-0.4624294415868819,0.7342297822035848
1783170485820143400,5.159143310546875,-2.4726667095839976,-0.21538944821730255,0.8062458016224205
1783170485830212600,5.169212646484375,-2.243087554103136,-0.011029928058385848,0.8937596152286976
1783170485840282400,5.179282470703125,-1.7778244965255259,0.12056114687919615,0.96438542239815
1783170485850351600,5.1893515625,-1.3074953877300024,0.1654629494011402,0.9472872803419828
1783170485860421400,5.19942138671875,-0.8759346932679414,0.21840324308052658,0.8252106143333018
1783170485870490600,5.20949072265625,-0.4618056106001138,0.1917125122927129,0.6447116430375724
1783170485880560400,5.219560302734375,-0.0453349332422018,0.1644340447448194,0.5429712607560679
1783170485890630400,5.22963037109375,0.4134288254439831,0.1747493947930634,0.4706499747803434
1783170485900699400,5.239699462890625,0.8404869477897882,0.20991671589463948,0.413057288717851
1783170485910769400,5.249769287109375,1.0930734693706035,0.24874285176470876,0.38501627583224324
1783170485920838400,5.25983837890625,1.1373913345247506,0.3198104844175279,0.3649482876524329
1783170485930908400,5.269908447265625,1.1478273883432148,0.37560003004819154,0.4348672617267817
1783170485940977700,5.279977783203125,1.1483183867305518,0.40645986321419475,0.5525083564408123
1783170485951047400,5.29004736328125,1.1327572449833154,0.4679664713174104,0.5889747409095988
1783170485961116700,5.30011669921875,1.0887351479053498,0.5162935721129178,0.6120243021834642
1783170485971186400,5.3101865234375,0.8651298061370849,0.5522638801604509,0.6077962726922705
1783170485981255400,5.32025537109375,0.4537152431249618,0.5940617253176868,0.5779610333336517
1783170485991325400,5.330325439453125,0.010070143115520477,0.6140589498162269,0.4924469787098467
1783170486001394400,5.34039453125,-0.4519669381529092,0.6469692857712507,0.47230676554404194
1783170486011464400,5.35046435546875,-0.751718531012535,0.7429331670105457,0.5304881016820668
1783170486021534500,5.360534423828125,-0.9603700492769479,0.8483401455081999,0.6768710875600576
1783170486031603500,5.370603515625,-1.177587151312828,1.027703025446087,0.8498040805809199
1783170486041672700,5.380672607421875,-1.387995157855749,1.215192951607704,0.9718728555440902
1783170486051741700,5.39074169921875,-1.48327631752789,1.3736324321128428,1.0548858505997807
1783170486061811700,5.400811767578125,-1.3857950174629687,1.436659673912078,1.0396937613606452
1783170486071880700,5.410880615234375,-1.0920102240532636,1.4194719538763165,0.9247153099846094
1783170486081950700,5.42095068359375,-0.6595142945677042,1.3082565813608467,0.7753874297611415
1783170486092019500,5.43101953125,-0.30973288864791393,1.1122663917489348,0.6237265765454619
1783170486102089700,5.44108984375,-0.0976934815108776,0.974421809374541,0.5455252560878172
1783170486112158500,5.451158447265625,0.15099895524084567,0.9654200261428951,0.49592546847537156
1783170486122228700,5.461228759765625,0.40934944717586036,0.9619352527670562,0.47042332641761747
1783170486132297500,5.47129736328125,0.5035007260352373,0.8795778720758854,0.44725273257996884
1783170486142367500,5.481367431640625,0.5169622651547193,0.8434431672468781,0.3361538625836372
1783170486152437800,5.491437744140625,0.4350292473554611,0.7831054567925632,0.21069540864955633
1783170486162506500,5.501506591796875,0.26045827786922454,0.7119545297704637,0.03867293633604422
1783170486172576800,5.51157666015625,0.013286767074465751,0.6531942977659404,-0.17063521920619532
1783170486182645500,5.5216455078125,-0.21010347063839435,0.631368834926933,-0.32012130393236876
1783170486192715500,5.531715576171875,-0.3466407698065042,0.6139725867070257,-0.3739790047176182
1783170486202784500,5.541784423828125,-0.28906127201914783,0.6331016500689088,-0.3542531810389831
1783170486212854500,5.5518544921875,-0.1530845293432474,0.6493038661986589,-0.25963724380992353
1783170486222923500,5.561923583984375,-0.06302782632112502,0.6227421686179936,-0.2011800681388937
1783170486232993500,5.57199365234375,-0.03955401175320148,0.6028175709642469,-0.17108188526146112
1783170486243062500,5.5820625,-0.11456219872534275,0.6077009590916336,-0.12090464482093229
1783170486253132500,5.592132568359375,-0.2301876427680254,0.6314037601098418,-0.06280197254284285
1783170486263201800,5.602201904296875,-0.3317717019766569,0.7212991350904107,0.027542333515314384
1783170486273271600,5.612271484375,-0.3722060036957264,0.8481262104965746,0.062407840392412615
1783170486283341600,5.622341552734375,-0.30949089658558365,0.835825824110955,0.043753217008709905
1783170486293410600,5.63241064453125,-0.1247813949227333,0.7286709790326654,-0.11235185659895651
1783170486303480600,5.64248046875,0.12233984698951243,0.5594429780095815,-0.2601277490069158
1783170486313549600,5.652549560546875,0.39012335318028923,0.389041257032007,-0.29290253068245947
1783170486323619600,5.66261962890625,0.5849053360462189,0.2829372361809015,-0.3017495434775017
1783170486333688600,5.6726884765625,0.7298918991297483,0.24972645597457885,-0.19607198614384977
1783170486343758600,5.682758544921875,0.6693553051024675,0.2879679238244891,-0.045881388143822546
1783170486353827800,5.692827880859375,0.513117280164361,0.3076141429282725,0.09733639343520625
1783170486363897600,5.702897705078125,0.262272049292922,0.28516850236430763,0.2865661490014754
1783170486373966600,5.712966552734375,-0.04355564860999584,0.34510756888985633,0.45042694216929374
1783170486384036600,5.72303662109375,-0.31063012974858284,0.4664842699356377,0.5289277935627847
1783170486394106600,5.733106689453125,-0.6098293494224548,0.5513746762357652,0.5714048531558364
1783170486404175600,5.743175537109375,-0.9469295529454946,0.6248810803428292,0.4814643969245255
1783170486414245600,5.75324560546875,-1.1958949614197014,0.7117363569751382,0.40649299829881635
1783170486424314600,5.763314697265625,-1.2998667925477028,0.8057168093122541,0.41047793974913654
1783170486434384600,5.773384521484375,-1.2615607350289821,0.947807212562859,0.43324736890736965
1783170486444453600,5.78345361328125,-1.2114841602176427,1.1440566376328467,0.5336623478040099
1783170486454523600,5.793523681640625,-1.0699988832533358,1.3241381872341036,0.7464337955426424
1783170486464592600,5.803592529296875,-0.707547965374589,1.4968334259763358,0.9158653563138097
1783170486474662700,5.81366259765625,-0.12907061654925345,1.6049337352111934,1.0805449733175336
1783170486484731600,5.823731689453125,0.5182336002647876,1.6107976588085293,1.1775815252896398
1783170486494801400,5.833801513671875,0.9889777196019888,1.5065587011769412,1.1973051935438066
1783170486504870700,5.84387060546875,1.1963017886549234,1.3566732601359486,1.1540232473086565
1783170486514940400,5.8539404296875,1.1138479618519543,1.223783085298538,1.1105707668121902
1783170486525010700,5.8640107421875,0.8787988505274057,1.1049171980299055,1.0227475219305604
1783170486535079700,5.87407958984375,0.614471037748456,0.9794901986800134,0.9499697974242269
1783170486545149400,5.8841494140625,0.343015565046668,0.9080654231525958,0.7726220567010342
1783170486555218700,5.89421875,0.05407996523380279,0.7662010837428271,0.5676788914352655
1783170486565288400,5.904288330078125,-0.1905944680482149,0.5820837027542293,0.2999311141449958
1783170486575357700,5.914357666015625,-0.3263414936214685,0.4496592457324266,0.13968151547797023
1783170486585427500,5.924427490234375,-0.38651919120848177,0.3305889219328761,0.052749593412876127
1783170486595496700,5.93449658203125,-0.48617900435626504,0.2284311544895172,0.0005699819076806306
1783170486605566500,5.94456640625,-0.5349783988386392,0.09631225628554821,-0.07406834883876144
1783170486615635700,5.9546357421875,-0.5153156669914722,0.06086378015503287,-0.03988813907839358
1783170486625705500,5.96470556640625,-0.49692017860114573,0.12687939011529087,0.11886906560640781
1783170486635774700,5.974774658203125,-0.5202998851448297,0.2425945582680404,0.3299527429211885
1783170486645844700,5.9848447265625,-0.6021458091825247,0.33241365314200516,0.5356823458569124
1783170486655914500,5.99491455078125,-0.6715431705355643,0.3669331778593361,0.6482523113191128
1783170486665983700,6.004983642578125,-0.6689847182244062,0.34113150486573574,0.6324287192434073
1783170486676053500,6.015053466796875,-0.5124333895534277,0.2258091354228556,0.5584799781963229
1783170486686122800,6.025122802734375,-0.20545242996215818,0.062300973351299756,0.45225941829346117
1783170486696192500,6.035192626953125,0.1598772582232952,-0.15409604447335004,0.31586211211793125
1783170486706261800,6.04526171875,0.36751813814044,-0.38538638778626916,0.21372933298535643
1783170486716331500,6.05533154296875,0.39170097776055335,-0.49530806722939014,0.18909210066124796
1783170486726400500,6.065400390625,0.44224575460553167,-0.5332258560828864,0.1731043309997767
1783170486736470800,6.075470703125,0.6229758312433957,-0.5366011777348816,0.2666870892561972
1783170486746539500,6.08553955078125,0.6915022549808025,-0.5906392035230994,0.3825977069158107
1783170486756609800,6.09560986328125,0.6040934361189604,-0.634227000837028,0.44394897832684216
1783170486766678500,6.105678466796875,0.40635786414444447,-0.6346404039435088,0.45808797831647097
1783170486776748500,6.11574853515625,0.236671159568429,-0.6512830573171376,0.3948343804154545
1783170486786818600,6.125818603515625,0.21836042685210705,-0.7271725571684539,0.33757578514553604
1783170486796887600,6.135887451171875,0.2550046886384487,-0.8657759950861335,0.2356931813817471
1783170486806957600,6.14595751953125,0.2526338678538799,-0.9769653563775121,0.14771898372210562
1783170486817026600,6.156026611328125,0.21018764179050922,-1.0711426464609801,0.07334295717366039
1783170486827096600,6.1660966796875,0.20996026277542112,-1.1452962624303995,0.008433627954870461
1783170486837165600,6.17616552734375,0.2596715114057064,-1.1742572762377559,-0.034578269167244435
1783170486847235600,6.186235595703125,0.3064426149308681,-1.1706646585732698,0.0232966313701123
1783170486857304600,6.1963046875,0.26904139729738236,-1.1172576241649688,0.11637670080140232
1783170486867374600,6.20637451171875,0.24229835180044174,-1.0073808067768812,0.23330358283147215
1783170486877443600,6.216443603515625,0.15237725785672665,-0.9196225899554789,0.2772548066303134
1783170486887513600,6.226513671875,0.12542027734816075,-0.8686186711661517,0.23506116708852348
1783170486897582600,6.23658251953125,0.1308937403231859,-0.8988122955083847,0.16072057717964053
1783170486907652600,6.246652587890625,0.16194062049388885,-0.9590620354183018,0.03741875329017639
1783170486917722600,6.25672265625,0.28768472296893594,-1.0010307070977986,-0.022869345868751407
1783170486927791600,6.26679150390625,0.41702421958744523,-1.0107045443721114,-0.0390390479683876
1783170486937861600,6.276861572265625,0.4889338560223579,-0.955569370996952,-0.011258037725836037
1783170486947930600,6.2869306640625,0.47878012627661226,-0.8859208113618194,0.08959222731553018
1783170486958000600,6.297000732421875,0.4346902246594429,-0.8150250281445681,0.1208064999423921
1783170486968069600,6.307069580078125,0.34369828661382196,-0.720674719581753,0.18255137378089129
1783170486978139600,6.3171396484375,0.18980419445335864,-0.56730684325248,0.1784098169967532
1783170486988208600,6.327208740234375,0.0002951835542917251,-0.4194090688973665,0.13269501759149133
1783170486998278700,6.337278564453125,-0.2651046423703432,-0.3406600879617035,0.048246875166147944
1783170487008347400,6.347347412109375,-0.4852618895113468,-0.22050065375119446,-0.018907456500455735
1783170487018417700,6.357417724609375,-0.5726362215816975,-0.08092121040821075,-0.03840191910862922
1783170487028486400,6.367486328125,-0.43174891051054,-0.019603402875363826,-0.025933774940669535
1783170487038557000,6.377556884765625,-0.16389701525866984,0.019678806199133394,0.007204962942749261
1783170487048627200,6.387627197265625,0.13202654374539852,0.034356443110108374,0.0807325559683144
1783170487058696000,6.397696044921875,0.44412440795898434,-0.0033262218132615088,0.11039046599864959
1783170487068766200,6.40776611328125,0.4741285010784864,-0.07415595405697822,0.12418803213946521
1783170487078835000,6.4178349609375,0.30832243732810016,-0.04590688791126012,0.10527787222526967
1783170487088905200,6.4279052734375,0.10540858593285084,-0.12395049705654382,0.028437062998488544
1783170487098974000,6.437973876953125,-0.24179975462853906,-0.014649579860270023,-0.01537548298202455
1783170487109044000,6.4480439453125,-0.4046463840514421,0.13952303698062896,-0.07723718813322485
1783170487119113200,6.45811328125,-0.42684126472473144,0.17214169651269912,-0.05527238988876342
1783170487129183000,6.468182861328125,-0.3900935425639152,0.2349897823527455,-0.06096176063679158
1783170487139252200,6.478252197265625,-0.49374680926203723,0.2934294041007757,-0.07618417194895445
1783170487149322000,6.488322021484375,-0.6783551886379718,0.38602556247264147,-0.10699614738523959
1783170487159391200,6.49839111328125,-0.7278162618994712,0.4772393265753984,-0.11602109229676424
1783170487169461000,6.5084609375,-0.8423848903656005,0.5531216660335659,-0.13676438592225312
1783170487179531000,6.518531005859375,-1.0227356122970581,0.684610157379508,-0.16453246361799537
1783170487189600000,6.52860009765625,-1.020935869398713,0.8534159874677658,-0.19977116945534942
1783170487199670000,6.538669921875,-0.7876677962720394,0.9191583334445953,-0.2691534063044935
1783170487209739300,6.5487392578125,-0.372117156368494,0.8252613216072321,-0.40846806123144924
1783170487219809000,6.55880908203125,0.0037584757506847377,0.6366320161521435,-0.5937010753117501
1783170487229878300,6.568878173828125,0.3057856123268604,0.4832812370881438,-0.7281807112976908
1783170487239948000,6.578947998046875,0.4821475568830967,0.46122634940743445,-0.7808602351490408
1783170487250017300,6.589017333984375,0.476952910849452,0.5451262833654881,-0.7594192415829748
1783170487260087000,6.599087158203125,0.3455757709234953,0.7476859144955873,-0.744243299761042
1783170487270156000,6.609156005859375,0.2282347551345825,0.9260942701876163,-0.7370192667916416
1783170487280226000,6.61922607421875,0.1757850214511156,1.0075544097781182,-0.7356243053019046
1783170487290295000,6.629294921875,0.2209071887254715,0.9964908717110752,-0.8320986933466047
1783170487300365300,6.639365234375,0.3288087605178356,0.8957990851670503,-0.9970325773723423
1783170487310435000,6.64943505859375,0.4184931230962276,0.7624614588230848,-1.171459827538952
1783170487320504000,6.659504150390625,0.36733518278896804,0.6606041356310248,-1.2865871858663855
1783170487330574000,6.669573974609375,0.27022505412399767,0.613973025098443,-1.3214851885072887
1783170487340643000,6.67964306640625,0.16739187163710592,0.6137319098189473,-1.260572308513522
1783170487350713000,6.689713134765625,0.07151976033449173,0.6469084954947233,-1.1677322583831846
1783170487360782000,6.699781982421875,-0.0027542671442031858,0.6726958477020263,-1.1232149981994182
1783170487370852000,6.70985205078125,-0.1596416959017515,0.6453975064098835,-1.124843841510266
1783170487380921000,6.719921142578125,-0.3539928861349821,0.6265127731978893,-1.1572218972194939
1783170487390991000,6.7299912109375,-0.6117115099072457,0.6259978094130754,-1.2093281512275338
1783170487401060000,6.74006005859375,-0.9012070816904306,0.620287907333672,-1.2176448748044668
1783170487411130000,6.750130126953125,-1.0578016649812458,0.6752069537401199,-1.182422535580024
1783170487421199000,6.76019921875,-0.9229308377206324,0.7198536124572158,-1.1281289275955408
1783170487431269000,6.77026904296875,-0.5046697698146104,0.7194386019155383,-1.1473126437541097
1783170487441339100,6.780339111328125,-0.0015682722300291061,0.5997054302930832,-1.1182563528787344
1783170487451408100,6.790408203125,0.3407774307310581,0.4695809207767248,-1.108287770441547
1783170487461478000,6.800477783203125,0.5557593210607766,0.368656640651077,-1.0614631100982428
1783170487471547100,6.810547119140625,0.6685498339384793,0.31994331701695916,-1.0217132835119962
1783170487481617200,6.8206171875,0.7258797408789396,0.27034897276461123,-1.0031424385547638
1783170487491686100,6.83068603515625,0.7563134575873612,0.18087883745878933,-1.0219404433313757
1783170487501756200,6.840756103515625,0.7658540238708257,0.10123948355466127,-1.0349766697108744
1783170487511825200,6.8508251953125,0.7558417484223842,-0.009971505046635866,-1.0390900963790715
1783170487521895200,6.860895263671875,0.8001508457481861,-0.13819631842151284,-1.086385881365463
1783170487531964200,6.870964111328125,0.826705090674758,-0.25155484044551846,-1.1780432975824922
1783170487542034200,6.8810341796875,0.7772668137669563,-0.3303533596113324,-1.1229025712493805
1783170487552103200,6.891103271484375,0.6769201873987912,-0.33971652350127696,-1.0290492524232715
1783170487562173200,6.901173095703125,0.5354945316672325,-0.30669045221209523,-0.8992881693918258
1783170487572242000,6.911241943359375,0.412233478179574,-0.27488369358479975,-0.8539510441925376
1783170487582312200,6.921312255859375,0.312875278326869,-0.28833003513514993,-0.8747174264326691
1783170487592382200,6.93138232421875,0.24953999349176884,-0.3748020115382969,-0.919075039075315
1783170487602451200,6.941451171875,0.1990215201318264,-0.49970191827416416,-0.9812723328564316
1783170487612521200,6.951521240234375,0.14583704243302345,-0.5866733686320483,-1.0102566544741391
1783170487622590000,6.96158984375,0.22350538852512836,-0.6460349275305867,-0.9865741655915975
1783170487632660200,6.97166015625,0.32982992025911806,-0.7376319918625056,-0.9531876634921878
1783170487642729000,6.98172900390625,0.3885258548557758,-0.8359078033059835,-0.9610543052140623
1783170487652799200,6.99179931640625,0.37174072427153587,-0.8787642176054418,-0.9439035561878234
1783170487662868000,7.001867919921875,0.342623935380578,-0.9158056620158255,-0.8893436254173517
1783170487672938000,7.01193798828125,0.32409225338995457,-0.9587962240889668,-0.8660969706688075
1783170487683007000,7.022007080078125,0.18652327308654784,-1.0301967419579625,-0.8891411616478114
1783170487693077000,7.032076904296875,0.18371230731904506,-1.0994617091029881,-0.8766548242360352
1783170487703146000,7.04214599609375,0.23027532105147838,-1.1997248949714003,-0.8268849042210727
1783170487713216000,7.052216064453125,0.17605331699848173,-1.2653640728347002,-0.8335369825214147
1783170487723286300,7.062286376953125,0.028087445843219757,-1.283102558621019,-0.8553729667544364
1783170487733355000,7.07235498046875,-0.12340776848196983,-1.2901229587770997,-0.7793900164660066
1783170487743425000,7.082425048828125,-0.2626718622654676,-1.2199714180558918,-0.7054196481090038
1783170487753494000,7.092493896484375,-0.41962826460599895,-1.1692010157614945,-0.6544678248330951
1783170487763564000,7.10256396484375,-0.6078250238627195,-1.1504974843353033,-0.6008800270304083
1783170487773633000,7.112633056640625,-0.7221323710441588,-1.1046696530096232,-0.5424457390446216
1783170487783703000,7.122703125,-0.7509171515017747,-1.0138497105300426,-0.5073489258959889
1783170487793772000,7.13277197265625,-0.7906716542631387,-0.9961047950029372,-0.5157167951382696
1783170487803842000,7.142842041015625,-0.7588724944204092,-1.0546939082242548,-0.5378508124697953
1783170487813911300,7.152911376953125,-0.37581951801776886,-1.1733258406065403,-0.4752312016233802
1783170487823981000,7.16298095703125,-0.14191080889999866,-1.2485220974966882,-0.543548658785224
1783170487834050300,7.17305029296875,-0.6317804844677448,-1.3452818052887916,-0.7024322297960519
1783170487844120000,7.1831201171875,-1.3554782051324843,-1.3390310743309557,-0.806074098317325
1783170487854189000,7.19318896484375,-1.5557465104550123,-1.1812544416487216,-0.6672044837441296
1783170487864259000,7.203259033203125,-1.7806430610775947,-0.9931639192454517,-0.4729298658784479
1783170487874329000,7.2133291015625,-1.9005115495175122,-0.6889891031160951,-0.43091479777395725
1783170487884398000,7.223398193359375,-1.917918026870489,-0.5700939897529781,-0.4009345239214599
1783170487894468000,7.233468017578125,-1.910249099677801,-0.5085409121595322,-0.463359342848137
1783170487904537000,7.243537109375,-1.8956477428734302,-0.4352366064958274,-0.5895655829422175
1783170487914607000,7.253607177734375,-1.6263801356047392,-0.39627091602459547,-0.5739394131347537
1783170487924676000,7.263676025390625,-1.244781449663639,-0.3680605744540691,-0.5568153329197317
1783170487934746000,7.27374609375,-0.8031482739984989,-0.2470231883652508,-0.5018794084437191
1783170487944815000,7.283815185546875,-0.41383915981054303,-0.09270429492145776,-0.45003005180619654
1783170487954885000,7.293885009765625,-0.17100421691536902,0.051297494908422225,-0.4259870590481907
1783170487964954000,7.3039541015625,-0.004723521390557289,0.13488734000399707,-0.4338677292954176
1783170487975023900,7.31402392578125,0.054956748068332666,0.1871582099892199,-0.49416598452217875
1783170487985093000,7.324093017578125,0.10117021771073341,0.2650534967049956,-0.6120571084745228
1783170487995163100,7.3341630859375,0.18060966512858867,0.4350234021365642,-0.6172625681631266
1783170488005232000,7.344232177734375,0.3845131120830774,0.6112712187938392,-0.554208511422202
1783170488015302100,7.35430224609375,0.6770745011776685,0.7631658077001571,-0.45644949039444327
1783170488025372000,7.364371826171875,0.9912819048911332,0.879793268392235,-0.3876137084469199
1783170488035441200,7.374441162109375,1.1878805817902087,0.9366416754260659,-0.30172471956349906
1783170488045511000,7.384510986328125,1.2259791340380906,0.964152928816527,-0.2278229594632983
1783170488055580000,7.394579833984375,1.1840198147088288,0.9594183015100657,-0.1358961517203599
1783170488065650000,7.40464990234375,1.099866782772541,0.9523416411221027,-0.06259126153476535
1783170488075719200,7.41471923828125,0.9779366856276989,0.9371291666820645,-0.07765519434958695
1783170488085789000,7.424788818359375,0.7652385223209858,0.8812669942066073,-0.21377507182322442
1783170488095858200,7.434858154296875,0.636599282926321,0.7845441112935543,-0.3359370780277997
1783170488105928000,7.444927978515625,0.5087877265274524,0.7258472999140619,-0.3678874829094857
1783170488115997200,7.4549970703125,0.3510749528616667,0.7161956744715571,-0.3669238985743373
1783170488126067000,7.46506689453125,-0.016772271102666853,0.7280366266518831,-0.26902152355313297
1783170488136136000,7.475135986328125,-0.44543607507944105,0.7599503527849912,-0.1658227226242423
1783170488146206000,7.4852060546875,-0.7649047603219747,0.7793421587362885,-0.07729695549644529
1783170488156275000,7.49527490234375,-0.8728343891650437,0.766694566348195,-0.028454087198525664
1783170488166345200,7.50534521484375,-0.8003273713588714,0.7008519748672842,-0.048453065262734886
1783170488176415000,7.5154150390625,-0.7027052015185355,0.5842679149255157,-0.19432452142201362
1783170488186484200,7.525484130859375,-0.5705161606878042,0.47304333619028327,-0.3481190987307578
1783170488196554000,7.535553955078125,-0.4894663554638624,0.4014548945337534,-0.45499249651916324
1783170488206623000,7.545623046875,-0.4635638524442911,0.40997839272916314,-0.5024534820046276
1783170488216693000,7.55569287109375,-0.43239480719864365,0.5711906989485025,-0.47557073577605186
1783170488226762000,7.565761962890625,-0.2777753233730793,0.7020017294242977,-0.40894422737583513
1783170488236832000,7.57583203125,0.022378420546650884,0.7479828516155481,-0.3075724957436323
1783170488246901000,7.58590087890625,0.3507891216576099,0.7107721881181002,-0.30901955274678766
1783170488256971000,7.595970947265625,0.6162240188956261,0.6240872996166348,-0.37279600547812874
1783170488267040000,7.6060400390625,0.7267115155279636,0.5512874363437295,-0.43797224200479684
1783170488277110000,7.616110107421875,0.7002338429689406,0.5158242010354995,-0.48749593217372894
1783170488287179000,7.626178955078125,0.6425263348877429,0.49171004273742436,-0.45076662245243787
1783170488297249000,7.6362490234375,0.6273053848803043,0.516770834235847,-0.454858641006425
1783170488307318000,7.646318115234375,0.5662994197756052,0.49733431235998865,-0.5003642546404152
1783170488317388000,7.656387939453125,0.4833446577131748,0.4465484202355146,-0.5540865655429661
1783170488327457800,7.666457763671875,0.5477496176064014,0.4217556320235133,-0.5751953314799815
1783170488337527000,7.676527099609375,0.6707336077183484,0.42000820383429527,-0.6191495509535074
1783170488347597000,7.68659716796875,0.8293827854514122,0.3971536902084946,-0.5894476556509732
1783170488357666000,7.696666015625,0.9746709618300199,0.34259938546121116,-0.48480208997987206
1783170488367736000,7.706736083984375,1.0640957966893911,0.28216186789423225,-0.32495771111287175
1783170488377805000,7.71680517578125,0.9758306532591581,0.2737669645145535,-0.20678777021914718
1783170488387875000,7.726875,0.8366343640148639,0.27737112648636103,-0.1274858315758407
1783170488397944000,7.736944091796875,0.6936959656327962,0.23973054713904857,-0.07979534818343818
1783170488408014000,7.74701416015625,0.5470224723756313,0.13353577926456928,-0.12484335424304008
1783170488418083000,7.7570830078125,0.415558823210001,0.02223871981501579,-0.153096512041986
1783170488428153000,7.767153076171875,0.23275603195130823,-0.02431318800151348,-0.11551840347163378
1783170488438221800,7.777221923828125,-0.03793313255310058,0.004314648328721523,-0.1062144954882562
1783170488448292000,7.7872919921875,-0.22965865045785902,0.012647007866203784,-0.11844145131148397
1783170488458360800,7.79736083984375,-0.3805056300073862,-0.026014731222391126,-0.14501330495998263
1783170488468431000,7.80743115234375,-0.43474809232652184,-0.05484598117023706,-0.3185435332216322
1783170488478501000,7.817501220703125,-0.44933600512742994,-0.06845949598103761,-0.5002195854727178
1783170488488569900,7.82756982421875,-0.5187485640496016,-0.05101210209578275,-0.6561647649440914
1783170488498640100,7.83764013671875,-0.6010597675114869,-0.002026245130598545,-0.7294182902686297
1783170488508708900,7.847708984375,-0.4266729224205017,0.0496770540997386,-0.6129772920593619
1783170488518779100,7.857779052734375,0.025164836394786835,0.03928250133544206,-0.39211818025931716
1783170488528848000,7.867847900390625,0.4238531888246536,-0.014503157126903534,-0.2822748998146504
1783170488538918100,7.877918212890625,0.3898275851041078,-0.13710837705433368,-0.5537638363946229
1783170488548987000,7.88798681640625,0.08101356486678123,-0.3757775785721838,-0.9234704975552857
1783170488559057000,7.898056884765625,-0.3400760044634342,-0.638500586502999,-1.2453392296768724
1783170488569126100,7.908126220703125,-0.791295923641324,-0.6149782566182315,-1.3815414516717195
1783170488579196000,7.91819580078125,-1.085910738134384,-0.37269875564873217,-1.2020639323782174
1783170488589265200,7.92826513671875,-1.411218212532997,-0.044587622006237504,-1.1846074053384363
1783170488599335000,7.9383349609375,-1.5497493158668278,0.11791136302277445,-1.1274402877442538
1783170488609404200,7.948404052734375,-1.5359060839533805,0.2132951062865555,-1.0388917973279952
1783170488619474000,7.958473876953125,-1.5235557209461927,0.33823870603367684,-0.961919909067452
1783170488629544000,7.9685439453125,-1.4271084401041267,0.45496699675172564,-0.8170122564390301
1783170488639613000,7.978613037109375,-1.236374271324277,0.5696140972815453,-0.6919951530642807
1783170488649683000,7.988682861328125,-1.0208417613744736,0.6794178494334221,-0.5909405976224691
1783170488659752200,7.998752197265625,-0.7748276039212941,0.7690665561765432,-0.6085045670920982
1783170488669822000,8.008822021484375,-0.4449930074870586,0.7907289374083281,-0.6859837107550353
1783170488679891200,8.01889111328125,-0.1430938812047243,0.7719508794412017,-0.7405506557881831
1783170488689961000,8.0289609375,-0.09091828828752041,0.7812604134477674,-0.8247614823263139
1783170488700030200,8.0390302734375,-0.017143442502617835,0.847637696327269,-0.9145636991307139
1783170488710100000,8.049099853515624,0.0590466477304697,0.9280947963550686,-0.8595907305799424
1783170488720169000,8.0591689453125,0.0732289023399353,1.0168521072164178,-0.812996810252592
1783170488730239000,8.069239013671876,0.052930795198678965,1.0914414842545985,-0.8120232159800828
1783170488740308000,8.079307861328125,-0.032334581893682476,1.1533004129268227,-0.796664976393804
1783170488750378200,8.089378173828125,-0.05996025544404983,1.1972352701127529,-0.8836143610503524
1783170488760447000,8.099447021484375,0.06464052221477032,1.1931051845707,-1.0237558221902698
1783170488770517000,8.10951708984375,0.18960078083574772,1.1127902694925664,-1.2384613067314028
1783170488780586000,8.1195859375,0.29600071589350696,1.033230118304491,-1.3957991096049547
1783170488790656000,8.129656005859376,0.2918354129076004,0.9164989049769937,-1.5107468005165456
1783170488800726000,8.13972607421875,0.20716274101138113,0.8511537416242062,-1.6569360173881054
1783170488810795000,8.149794921875,0.1626566598087549,0.8292018759265541,-1.732060816477239
1783170488820865000,8.159864990234375,0.16554712055325507,0.866518191755563,-1.7061669351555406
1783170488830934000,8.16993408203125,0.17454875765442848,0.9549662905372679,-1.5935270827949046
1783170488841004000,8.180004150390625,0.1182715746372938,1.048694813939929,-1.474004485183209
1783170488851073000,8.190072998046874,0.04541033656597137,1.1437022712372242,-1.3367301039122044
1783170488861143000,8.20014306640625,0.06583002426028252,1.187304681598395,-1.2207520470395683
1783170488871212000,8.2102119140625,0.09887947642505168,1.1267436837822198,-1.1761243852838874
1783170488881282000,8.220281982421875,0.1990378867447376,0.9443446510188281,-1.245412587174028
1783170488891351000,8.23035107421875,0.3991366807192564,0.6662224139042199,-1.3883183984607457
1783170488901421000,8.240421142578125,0.53844578268826,0.3983016911998391,-1.502694280833751
1783170488911490000,8.250489990234374,0.6518231555432081,0.20381299219205976,-1.6020613946452735
1783170488921560000,8.26056005859375,0.7509083836734295,0.0431847694709897,-1.5883949806034563
1783170488931629000,8.270629150390626,0.6964005484163761,-0.08676803674027324,-1.5482000405982135
1783170488941699000,8.280698974609376,0.686693393394351,-0.14690174905508757,-1.4816889022059738
1783170488951769000,8.29076904296875,0.7059428682655096,-0.15886764278933405,-1.4303499062433838
1783170488961838000,8.300838134765625,0.6846084038138389,-0.21294643897935747,-1.3617875344097614
1783170488971908000,8.310908203125,0.7245125441789627,-0.25915683988183735,-1.305078974238038
1783170488981977000,8.32097705078125,0.7842518503487109,-0.2900004525654018,-1.2362585359901188
1783170488992047000,8.331047119140624,0.7618880428493022,-0.34197920773625373,-1.1684138109065592
1783170489002115800,8.34111572265625,0.8331254791110754,-0.3803514623589814,-1.1395254970092326
1783170489012186000,8.35118603515625,0.8007301069408654,-0.44294294308945537,-1.082383659986779
1783170489022254800,8.3612548828125,0.542377276918292,-0.4912067693904042,-1.1420187020644545
1783170489032325000,8.3713251953125,0.27537995266914367,-0.5859207966990768,-1.232383886513859
1783170489042393600,8.3813935546875,0.060363575547933576,-0.6678469463661313,-1.2489806549191473
1783170489052463600,8.391463623046874,-0.13470014686882495,-0.6724123545855283,-1.1722102075148373
1783170489062532600,8.40153271484375,-0.3315279563486576,-0.5836952296040951,-1.0669003327161073
1783170489072602600,8.4116025390625,-0.45267304059565067,-0.4676731874592602,-0.9538324642017483
1783170489082671600,8.421671630859375,-0.5190764808297157,-0.39642055362835527,-0.8074257321219891
1783170489092741600,8.43174169921875,-0.50455871065557,-0.3807172269314527,-0.6628753684986383
1783170489102810600,8.441810546875,-0.3693430154800415,-0.4225215018294751,-0.5247613215330987
1783170489112880600,8.451880615234375,-0.1956704561382532,-0.41513899036273355,-0.3496253385752439
1783170489122950700,8.46195068359375,-0.08488309977650642,-0.41415129449963567,-0.20002302532456814
1783170489133019600,8.47201953125,-0.0525415036201477,-0.40286432294026014,-0.07046882650945335
1783170489143089400,8.48208935546875,-0.06704816787838935,-0.42134208278656005,-0.0021211203398182987
1783170489153158700,8.49215869140625,-0.11465747579336166,-0.4726161968193948,0.020650719971209763
1783170489163228700,8.502228759765625,-0.18641279844939707,-0.518808331412822,0.04375095198638737
1783170489173297700,8.512297607421875,-0.18245850786566734,-0.5549802995122969,0.10103745817653834
1783170489183367700,8.52236767578125,-0.1213788930028677,-0.5425443040482699,0.2405668335664086
1783170489193436700,8.532436767578124,-0.19071546407938003,-0.4773315349034965,0.4254954030737281
1783170489203506700,8.542506591796876,-0.2727151173740625,-0.4992744866423309,0.5040737766828388
1783170489213575700,8.55257568359375,-0.2281733803361654,-0.5793503322675824,0.6006869156111031
1783170489223645700,8.562645751953125,0.03281096723377704,-0.7503790991023183,0.7001185460262
1783170489233714700,8.572714599609375,0.3503010458797216,-0.909335004696995,0.769562084608525
1783170489243784700,8.58278466796875,0.42510172758102416,-0.9985368444554508,0.7972762401599437
1783170489253853400,8.592853515625,0.1989163061916828,-1.0654700076520442,0.7188384440653026
1783170489263923700,8.602923828125,-0.09806523743271828,-1.111156676941365,0.6574643763005733
1783170489273993700,8.61299365234375,-0.5289233365833759,-1.132928363766521,0.5873857181524857
1783170489284062700,8.623062744140626,-1.0019956066071987,-1.2063747082494198,0.4750119693821296
1783170489294132700,8.6331328125,-1.3635574666917323,-1.240185207914561,0.3829866331681609
1783170489304201700,8.64320166015625,-1.7496435271799564,-1.1826049794748426,0.12297995325764641
1783170489314271700,8.653271728515625,-2.121231691238284,-1.1138722195103763,-0.156444744757656
1783170489324340500,8.663340576171874,-2.2802602236777543,-1.0528216846115888,-0.2315143978597596
1783170489334410800,8.67341064453125,-2.2092852377444503,-0.9484409804217517,-0.16724617955610155
1783170489344479500,8.6834794921875,-2.041144593566656,-0.6292313845068216,-0.08407030382258818
1783170489354549800,8.6935498046875,-1.8640180943787097,-0.40671661445423957,0.10059112091483548
1783170489364618500,8.703618408203125,-1.7122043156236408,-0.36015944594070315,0.19482874461710453
1783170489374688500,8.7136884765625,-1.6028560521543025,-0.27621581897139547,0.1669975750898942
1783170489384757800,8.7237578125,-1.3945926564246416,-0.18909531553164124,0.22150625059716403
1783170489394827500,8.73382763671875,-1.1636766993820666,-0.09076397450864314,0.22526713750064373
1783170489404896800,8.743896728515624,-0.9506254848539829,0.057403118307143446,0.378239000249654
1783170489414966500,8.753966552734376,-0.7790548662275075,0.1432085936255753,0.44345542265623805
1783170489425035800,8.764035888671875,-0.5458458298116922,0.056565498439222574,0.44363034083172675
1783170489435105500,8.77410546875,-0.28982407308518887,0.03105287152007222,0.39586708446405827
1783170489445174800,8.7841748046875,-0.2966682398915291,0.10439385593235492,0.452992701004073
1783170489455244500,8.79424462890625,-0.35039515390396114,0.3657831310413778,0.6557374794427305
1783170489465314600,8.804314453125,-0.16405892782211304,0.8196125020653009,1.034081255241111
1783170489475383800,8.8143837890625,0.03733867379128933,1.161716212964058,1.4359407119877636
1783170489485453600,8.82445361328125,0.2642313666671514,1.367752580294013,1.8274588805273173
1783170489495522800,8.834522705078125,0.6228992588758469,1.4546071262739597,2.0993898617863653
1783170489505592600,8.844592529296875,0.8440361647039651,1.336727911955118,2.267929149892926
1783170489515661800,8.854661865234375,0.9656851068198681,1.1020986334778369,2.3030074775367972
1783170489525731600,8.864731689453125,0.9110691350132226,0.8474491880178451,2.2284031951904297
1783170489535800600,8.874800537109374,0.5252636450320481,0.6669920831024646,2.1664378835342823
1783170489545870600,8.88487060546875,0.10321545980274677,0.6603285335600376,2.108241569022834
1783170489555939600,8.894939697265626,-0.23186989676654338,0.8142667571231722,2.1194315099485217
1783170489566009900,8.905009765625,-0.4871276833832264,0.9884164324574172,2.1299868062324823
1783170489576078600,8.91507861328125,-0.5492699590414762,0.9866893164038657,2.0169266826331613
1783170489586148900,8.92514892578125,-0.5067319630414248,0.8694434315524995,1.807886457312107
1783170489596217600,8.935217529296875,-0.465253705227375,0.7464968508414924,1.6344989985220133
1783170489606287600,8.94528759765625,-0.4390817376166582,0.6560289366699755,1.539325537008047
1783170489616356600,8.955356689453126,-0.48686464853286743,0.6523040709279477,1.4584111947320402
1783170489626426600,8.965426513671876,-0.45947862895727154,0.7224298926860093,1.3977470288023353
1783170489636496600,8.97549658203125,-0.3804781574785709,0.8084497414074838,1.3508997913010417
1783170489646565600,8.985565673828125,-0.32493805656433106,0.8340016774237156,1.2343383815824984
1783170489656635600,8.9956357421875,-0.09960428356826305,0.8447541037149727,1.0876114045724272
1783170489666704600,9.00570458984375,0.1584440105497837,0.8324858660332858,1.0201716070279478
1783170489676774700,9.015774658203124,0.29506957252323623,0.8538860891975462,1.0640466968506574
1783170489686843600,9.02584375,0.07221709494888782,1.023118181873858,1.1155454134196043
1783170489696913700,9.03591357421875,-0.41314533232748507,1.2371945016659796,1.1808986139483748
1783170489706982700,9.045982666015625,-0.37758302055895326,1.1623662013053893,1.2110346628844737
1783170489717052700,9.056052734375,-0.1139934589266777,1.2851251504898071,0.7938404935576021
1783170489727121700,9.06612158203125,0.22444120807051657,1.0312935972839594,0.7223781624987721
1783170489737191700,9.076191650390625,0.405444840952754,0.9851306887850165,0.6217876443721354
1783170489747260700,9.0862607421875,0.5159890362083912,0.8745647200889884,0.5000154412027448
1783170489757330700,9.09633056640625,0.7091244209110736,0.6910436975583434,0.5896163632813841
