time,seconds_elapsed,z,y,x
1783170480745091600,0.084091552734375,0.054234981536865234,0.1958983689546585,0.3056000769138336
1783170480755161600,0.09416162109375,0.057353366166353226,0.1728833168745041,0.26972460746765137
1783170480765231600,0.104231689453125,0.05762900412082672,0.15269044041633606,0.2614709138870239
1783170480775300600,0.114300537109375,0.056984130293130875,0.14620670676231384,0.29724055528640747
1783170480785370600,0.12437060546875,0.06205905228853226,0.15710356831550598,0.3473500609397888
1783170480795439400,0.134439453125,0.07778095453977585,0.17729085683822632,0.36548227071762085
1783170480805509600,0.144509521484375,0.08646126091480255,0.19594496488571167,0.3426509499549866
1783170480815578600,0.15457861328125,0.08643446862697601,0.20921923220157623,0.2801351845264435
1783170480825648600,0.164648681640625,0.06790179759263992,0.21459056437015533,0.20230937004089355
1783170480835718700,0.17471875,0.039057448506355286,0.19520807266235352,0.15777650475502014
1783170480845787600,0.18478759765625,0.016543885692954063,0.15818746387958527,0.1719581037759781
1783170480855857700,0.194857666015625,0.004253735765814781,0.10310371220111847,0.225346177816391
1783170480865926400,0.204926513671875,0.011213375255465508,0.04263344779610634,0.2686694264411926
1783170480875996700,0.21499658203125,0.034058451652526855,0.013997936621308327,0.2850768566131592
1783170480886065400,0.2250654296875,0.06309036910533905,0.021448662504553795,0.26065728068351746
1783170480896135700,0.2351357421875,0.08058294653892517,0.04202064126729965,0.22679226100444794
1783170480906204700,0.24520458984375,0.0865100771188736,0.06539280712604523,0.19909511506557465
1783170480916274400,0.2552744140625,0.08615142107009888,0.07580044865608215,0.19846443831920624
1783170480926344700,0.2653447265625,0.08667926490306854,0.06706740707159042,0.21252618730068207
1783170480936413400,0.275413330078125,0.07985170185565948,0.05347955971956253,0.23758022487163544
1783170480946483700,0.285483642578125,0.08767074346542358,0.04306979477405548,0.25035861134529114
1783170480956552400,0.295552490234375,0.08191616833209991,0.024704771116375923,0.24255508184432983
1783170480966622500,0.30562255859375,0.06781552731990814,0.021811511367559433,0.20435284078121185
1783170480976691500,0.31569140625,0.03393977880477905,0.028391530737280846,0.14268754422664642
1783170480986761500,0.325761474609375,-0.0004264500457793474,0.05216024070978165,0.06770145893096924
1783170480996831700,0.335831787109375,-0.023491734638810158,0.07933565974235535,0.00036634341813623905
1783170481006900500,0.345900390625,-0.02752748876810074,0.0965103805065155,-0.03141848370432854
1783170481016970800,0.355970703125,-0.011208739131689072,0.09557827562093735,-0.03235096484422684
1783170481027039500,0.36603955078125,0.017404794692993164,0.08354505151510239,-0.012498432770371437
1783170481037106400,0.3761064453125,0.054510120302438736,0.058389097452163696,0.012040575966238976
1783170481047175700,0.38617578125,0.08992883563041687,0.023537641391158104,0.04688910394906998
1783170481057245400,0.396245361328125,0.11154118925333023,-0.015672611072659492,0.07666537910699844
1783170481067315500,0.4063154296875,0.1265837848186493,-0.043378010392189026,0.10211880505084991
1783170481077384700,0.416384765625,0.140663281083107,-0.06588611006736755,0.13310424983501434
1783170481087454500,0.426454345703125,0.14468039572238922,-0.0658956915140152,0.14206472039222717
1783170481097523700,0.436523681640625,0.13503219187259674,-0.039297111332416534,0.11316829174757004
1783170481107593500,0.446593505859375,0.13089816272258759,0.007097552064806223,0.0693473070859909
1783170481117662700,0.456662841796875,0.1277889460325241,0.04199228808283806,0.038689985871315
1783170481127732500,0.466732421875,0.13887222111225128,0.04219415411353111,0.017149804159998894
1783170481137801700,0.4768017578125,0.15209078788757324,0.04757613688707352,0.013600766658782959
1783170481147871500,0.48687158203125,0.17481526732444763,0.056347258388996124,0.00996928010135889
1783170481157941500,0.49694140625,0.18363375961780548,0.05170310288667679,0.005962099879980087
1783170481168010800,0.5070107421875,0.17524108290672302,0.02656206116080284,-0.0044527240097522736
1783170481178080500,0.51708056640625,0.17042337357997894,-0.017244795337319374,-0.014744650572538376
1783170481188149800,0.527149658203125,0.16511009633541107,-0.06956551969051361,0.0023403270170092583
1783170481198219500,0.537219482421875,0.16557922959327698,-0.10505335032939911,0.03453529626131058
1783170481208288800,0.547288818359375,0.17610616981983185,-0.10077790915966034,0.055706895887851715
1783170481218358500,0.557358642578125,0.1858493983745575,-0.07806089520454407,0.05670784413814545
1783170481228428500,0.567428466796875,0.1979188472032547,-0.05219361186027527,0.049001988023519516
1783170481238497500,0.57749755859375,0.19930239021778107,-0.025642691180109978,0.040180910378694534
1783170481248567600,0.587567626953125,0.19365276396274567,-0.014388440176844597,0.024958817288279533
1783170481258636800,0.59763671875,0.1898699253797531,-0.021688684821128845,0.029902461916208267
1783170481268706600,0.60770654296875,0.19091974198818207,-0.05632442608475685,0.05218752846121788
1783170481278775800,0.61777587890625,0.17668993771076202,-0.11676539480686188,0.09544391930103302
1783170481288845600,0.627845458984375,0.15857751667499542,-0.1607469767332077,0.14173445105552673
1783170481298914600,0.63791455078125,0.15133756399154663,-0.15617167949676514,0.17180348932743073
1783170481308984600,0.647984619140625,0.15378926694393158,-0.1200735867023468,0.1911494880914688
1783170481319054600,0.6580546875,0.16887208819389343,-0.07687405496835709,0.2102581411600113
1783170481329123600,0.66812353515625,0.19271697103977203,-0.020614242181181908,0.2408253699541092
1783170481339193600,0.678193603515625,0.21110562980175018,0.002980436198413372,0.2544245421886444
1783170481349262600,0.6882626953125,0.2094677835702896,-0.04467096924781799,0.23710867762565613
1783170481359332600,0.69833251953125,0.1671460121870041,-0.1570819467306137,0.2106848955154419
1783170481369401600,0.708401611328125,0.0905764102935791,-0.2756940722465515,0.19516772031784058
1783170481379471600,0.7184716796875,0.00328482361510396,-0.365326464176178,0.187005415558815
1783170481389541600,0.728541748046875,-0.06839229166507721,-0.39941173791885376,0.1993611454963684
1783170481399610600,0.738610595703125,-0.11550165712833405,-0.40937677025794983,0.20262004435062408
1783170481409680600,0.7486806640625,-0.14985190331935883,-0.3921532928943634,0.1772635579109192
1783170481419749400,0.758749267578125,-0.18054679036140442,-0.36491769552230835,0.13169237971305847
1783170481429819600,0.768819580078125,-0.2275816798210144,-0.35563257336616516,0.0782318189740181
1783170481439888600,0.778888671875,-0.28829535841941833,-0.35553017258644104,0.028712905943393707
1783170481449958700,0.788958740234375,-0.35310977697372437,-0.37074828147888184,-0.014025235548615456
1783170481460028700,0.799028564453125,-0.4178224503993988,-0.4079992473125458,-0.03964999318122864
1783170481470097700,0.80909765625,-0.46963104605674744,-0.4410749077796936,-0.04892631620168686
1783170481480167700,0.819167724609375,-0.5088067054748535,-0.4288528561592102,-0.03490586206316948
1783170481490236400,0.829236328125,-0.521247386932373,-0.33188769221305847,-0.00205017626285553
1783170481500306700,0.839306640625,-0.5075578093528748,-0.1724993735551834,0.04595853388309479
1783170481510375400,0.84937548828125,-0.47994136810302734,-0.004748445935547352,0.09100031107664108
1783170481520445700,0.85944580078125,-0.4452643394470215,0.15641099214553833,0.12984128296375275
1783170481530514700,0.8695146484375,-0.41440948843955994,0.26051798462867737,0.14915479719638824
1783170481540584400,0.87958447265625,-0.4014057219028473,0.3088010847568512,0.1493358463048935
1783170481550654700,0.88965478515625,-0.40868574380874634,0.2748178243637085,0.1250731199979782
1783170481560723500,0.899723388671875,-0.4227498471736908,0.1801510751247406,0.0825912281870842
1783170481570793700,0.909793701171875,-0.4491918385028839,0.03331848978996277,0.05095420777797699
1783170481580862500,0.919862548828125,-0.4822115898132324,-0.11939595639705658,0.026030370965600014
1783170481590932500,0.929932373046875,-0.5228887796401978,-0.25775623321533203,0.047690924257040024
1783170481601001500,0.94000146484375,-0.5697310566902161,-0.3791900873184204,0.10132913291454315
1783170481611071500,0.950071533203125,-0.6135203242301941,-0.4622415602207184,0.14817199110984802
1783170481621140700,0.960140625,-0.6569864153862,-0.4866029620170593,0.15769731998443604
1783170481631210500,0.97021044921875,-0.7031097412109375,-0.4358218014240265,0.12362563610076904
1783170481641280800,0.98028076171875,-0.7521056532859802,-0.34549272060394287,0.06199192255735397
1783170481651349500,0.990349609375,-0.7871216535568237,-0.23787571489810944,-0.003361782990396023
1783170481661419500,1.00041943359375,-0.8026513457298279,-0.1186690479516983,-0.054412659257650375
1783170481671488500,1.010488525390625,-0.7957113981246948,-0.0036077015101909637,-0.09536515176296234
1783170481681558500,1.02055859375,-0.7737182974815369,0.07783737033605576,-0.11691984534263611
1783170481691627500,1.03062744140625,-0.7518438696861267,0.13062308728694916,-0.10502483695745468
1783170481701697500,1.040697509765625,-0.7384844422340393,0.13180020451545715,-0.07129543274641037
1783170481711767600,1.050767578125,-0.7099758386611938,0.09594286233186722,-0.016218336299061775
1783170481721836500,1.06083642578125,-0.6755203008651733,0.035977255553007126,0.037804774940013885
1783170481731906600,1.070906494140625,-0.6333725452423096,-0.027035001665353775,0.0749923512339592
1783170481741975600,1.0809755859375,-0.6042705178260803,-0.039864905178546906,0.08958274126052856
1783170481752045600,1.091045654296875,-0.5869077444076538,-0.004578817635774612,0.0720658004283905
1783170481762114600,1.101114501953125,-0.5848748087882996,0.0814233049750328,0.014980795793235302
1783170481772184600,1.1111845703125,-0.5825900435447693,0.19697946310043335,-0.06029851362109184
1783170481782253600,1.121253662109375,-0.5923028588294983,0.3111252188682556,-0.1349022090435028
1783170481792323600,1.131323486328125,-0.5862652063369751,0.4109479784965515,-0.1761750727891922
1783170481802393600,1.1413935546875,-0.5600298047065735,0.47627368569374084,-0.18703290820121765
1783170481812462600,1.151462646484375,-0.5121339559555054,0.5047551393508911,-0.1803920567035675
1783170481822532600,1.16153271484375,-0.45290979743003845,0.4975234568119049,-0.1736440509557724
1783170481832601600,1.1716015625,-0.4021342396736145,0.47323569655418396,-0.15752527117729187
1783170481842671600,1.181671630859375,-0.3733989894390106,0.4093196988105774,-0.15035879611968994
1783170481852740600,1.19174072265625,-0.36264756321907043,0.3264155089855194,-0.14990125596523285
1783170481862810600,1.201810546875,-0.3405446708202362,0.22916415333747864,-0.16140267252922058
1783170481872879600,1.211879638671875,-0.3068106770515442,0.11391133815050125,-0.19139200448989868
1783170481882949600,1.22194970703125,-0.2747654914855957,-0.011301033198833466,-0.24242687225341797
1783170481893019600,1.23201953125,-0.24868543446063995,-0.1586769074201584,-0.3013785779476166
1783170481903088600,1.242088623046875,-0.23834532499313354,-0.30341798067092896,-0.34297555685043335
1783170481913158700,1.25215869140625,-0.22982719540596008,-0.41830408573150635,-0.3490891456604004
1783170481923227600,1.2622275390625,-0.20203250646591187,-0.47822868824005127,-0.30963149666786194
1783170481933297700,1.272297607421875,-0.1668015420436859,-0.49984925985336304,-0.2530078887939453
1783170481943366400,1.282366455078125,-0.12888453900814056,-0.4796815514564514,-0.18288706243038177
1783170481953436700,1.292436767578125,-0.08328136801719666,-0.42968443036079407,-0.13146941363811493
1783170481963506700,1.302506591796875,-0.03128047659993172,-0.3559194505214691,-0.08133751153945923
1783170481973575700,1.31257568359375,0.03115786612033844,-0.23993156850337982,-0.03540836647152901
1783170481983645700,1.322645751953125,0.09728330373764038,-0.11962713301181793,0.002390106674283743
1783170481993714700,1.332714599609375,0.14314772188663483,-0.01050916500389576,0.028106123208999634
1783170482003784700,1.34278466796875,0.16934970021247864,0.08587276190519333,0.040009163320064545
1783170482013853400,1.352853515625,0.18898065388202667,0.16046124696731567,0.04203423112630844
1783170482023923700,1.362923828125,0.20023231208324432,0.20151574909687042,0.047203369438648224
1783170482033992000,1.372991943359375,0.21024607121944427,0.2167796641588211,0.05163539946079254
1783170482044061700,1.383061767578125,0.22316308319568634,0.22869783639907837,0.039286788552999496
1783170482054131700,1.393131591796875,0.24200254678726196,0.204967200756073,0.008400777354836464
1783170482064200700,1.40320068359375,0.2720889151096344,0.13268208503723145,-0.023921126499772072
1783170482074270700,1.413270751953125,0.2931888997554779,0.05162850767374039,-0.04779982566833496
1783170482084339700,1.423339599609375,0.30000805854797363,-0.02208179049193859,-0.061329491436481476
1783170482094409700,1.43340966796875,0.28996339440345764,-0.08094004541635513,-0.052534133195877075
1783170482104478700,1.443478759765625,0.27418240904808044,-0.102292999625206,-0.044780805706977844
1783170482114548700,1.453548828125,0.2701490521430969,-0.07092602550983429,-0.0596737377345562
1783170482124617700,1.46361767578125,0.2868211567401886,0.0061750151216983795,-0.10629517585039139
1783170482134687700,1.473687744140625,0.3157116770744324,0.07340491563081741,-0.160201296210289
1783170482144757800,1.4837578125,0.3552086353302002,0.08083821088075638,-0.2052813172340393
1783170482154826800,1.49382666015625,0.39668869972229004,0.021358639001846313,-0.21234747767448425
1783170482164896800,1.503896728515625,0.4467028081417084,-0.06485561281442642,-0.17807723581790924
1783170482174965500,1.513965576171875,0.48757967352867126,-0.15008209645748138,-0.10427810996770859
1783170482185035800,1.524035888671875,0.5153898596763611,-0.22046318650245667,-0.019319266080856323
1783170482195104800,1.534104736328125,0.5239095687866211,-0.2334732562303543,0.08385398983955383
1783170482205174800,1.5441748046875,0.5367380380630493,-0.1687902808189392,0.16272784769535065
1783170482215243800,1.554243896484375,0.5583730340003967,-0.030455302447080612,0.19972075521945953
1783170482225313500,1.5643134765625,0.5965627431869507,0.14388254284858704,0.19514988362789154
1783170482235383800,1.5743837890625,0.6386984586715698,0.293579638004303,0.16824422776699066
1783170482245452500,1.58445263671875,0.6786172389984131,0.38127660751342773,0.15138976275920868
1783170482255522800,1.594522705078125,0.6994130611419678,0.4182082712650299,0.17549189925193787
1783170482265591600,1.604591552734375,0.706335186958313,0.4034169316291809,0.22263644635677338
1783170482275661800,1.614661865234375,0.69467693567276,0.3742015063762665,0.25958752632141113
1783170482285730800,1.624730712890625,0.6832112073898315,0.3623649775981903,0.2638663947582245
1783170482295800600,1.634800537109375,0.6806161999702454,0.3577427864074707,0.2320818454027176
1783170482305869800,1.644869873046875,0.6884279847145081,0.346143513917923,0.2059820145368576
1783170482315939600,1.654939697265625,0.718478262424469,0.31689852476119995,0.21274006366729736
1783170482326009900,1.665009765625,0.7530505657196045,0.25797346234321594,0.25449925661087036
1783170482336078600,1.67507861328125,0.7833240628242493,0.17471477389335632,0.2911856174468994
1783170482346148600,1.685148681640625,0.8087338209152222,0.0876387283205986,0.31626489758491516
1783170482356217600,1.695217529296875,0.8291026949882507,-0.010776260867714882,0.3300491273403168
1783170482366287600,1.70528759765625,0.8441394567489624,-0.11261340975761414,0.3395651578903198
1783170482376356900,1.71535693359375,0.8285338878631592,-0.18041695654392242,0.34738871455192566
1783170482386426600,1.725426513671875,0.7863785028457642,-0.21816088259220123,0.3395688533782959
1783170482396496000,1.735495849609375,0.7306894063949585,-0.20637452602386475,0.31852588057518005
1783170482406565600,1.745565673828125,0.6592627167701721,-0.1494332104921341,0.2810947000980377
1783170482416635600,1.7556357421875,0.5927878618240356,-0.06593699008226395,0.23829902708530426
1783170482426704600,1.76570458984375,0.5376872420310974,0.018095973879098892,0.19235163927078247
1783170482436774700,1.775774658203125,0.5045987963676453,0.08193407952785492,0.147218257188797
1783170482446843600,1.78584375,0.49606066942214966,0.11572599411010742,0.12856607139110565
1783170482456913700,1.79591357421875,0.5168825387954712,0.11914895474910736,0.13645808398723602
1783170482466983000,1.80598291015625,0.5508625507354736,0.08850198239088058,0.17235241830348969
1783170482477052700,1.816052734375,0.5843586921691895,0.05064328759908676,0.2104547917842865
1783170482487122000,1.826121826171875,0.5914397239685059,0.02006806619465351,0.2184729278087616
1783170482497191700,1.836191650390625,0.5761275887489319,0.026038873940706253,0.1808011829853058
1783170482507261700,1.84626171875,0.5426453948020935,0.06239381060004234,0.10686507076025009
1783170482517330700,1.85633056640625,0.5026441812515259,0.10966038703918457,0.022456185892224312
1783170482527400700,1.866400634765625,0.4646448493003845,0.13593167066574097,-0.04561927169561386
1783170482537469700,1.8764697265625,0.43869689106941223,0.12435251474380493,-0.0721914991736412
1783170482547539700,1.886539794921875,0.4291253685951233,0.06816460192203522,-0.07768300920724869
1783170482557609000,1.89660888671875,0.43401920795440674,0.00264471722766757,-0.0559055358171463
1783170482567678700,1.9066787109375,0.4429554045200348,-0.06396492570638657,-0.023463299497961998
1783170482577747700,1.916747802734375,0.44555333256721497,-0.10287769883871078,0.0045057497918605804
1783170482587817700,1.926817626953125,0.4371139109134674,-0.10903172194957733,0.008268175646662712
1783170482597887700,1.9368876953125,0.4126264154911041,-0.09259656071662903,-0.004317656625062227
1783170482607956700,1.946956787109375,0.3765462040901184,-0.05477862060070038,-0.015157923102378845
1783170482618026800,1.95702685546875,0.3375258147716522,0.0023688236251473427,-0.01681467518210411
1783170482628095700,1.967095703125,0.31254807114601135,0.06237771362066269,-0.020941074937582016
1783170482638165800,1.977165771484375,0.2967664301395416,0.11422280222177505,-0.007537919096648693
1783170482648234500,1.987234375,0.28819093108177185,0.135736346244812,0.017053112387657166
1783170482658304800,1.9973046875,0.279139906167984,0.1246674433350563,0.02557256631553173
1783170482668373800,2.007373779296875,0.2619702219963074,0.09695711731910706,0.028355799615383148
1783170482678443800,2.01744384765625,0.2401171177625656,0.06065503880381584,0.03779510781168938
1783170482688512800,2.0275126953125,0.2008676826953888,0.010523410513997078,0.038190487772226334
1783170482698582500,2.03758251953125,0.16495281457901,-0.050163641571998596,0.043372735381126404
1783170482708652800,2.04765283203125,0.14255797863006592,-0.10341021418571472,0.05416569113731384
1783170482718721500,2.057721435546875,0.14135104417800903,-0.13271670043468475,0.06993106752634048
1783170482728791800,2.067791748046875,0.1400829255580902,-0.15208758413791656,0.10282710194587708
1783170482738860500,2.077860595703125,0.12581130862236023,-0.1827019602060318,0.1321205496788025
1783170482748930800,2.087930908203125,0.10165463387966156,-0.19390149414539337,0.14432372152805328
1783170482758999800,2.097999755859375,0.07397746294736862,-0.16823287308216095,0.11823487281799316
1783170482769069600,2.108069580078125,0.041830915957689285,-0.12883871793746948,0.05683085322380066
1783170482779138800,2.118138916015625,-0.006474032066762447,-0.08349628001451492,-0.04890117049217224
1783170482789208600,2.12820849609375,-0.07288553565740585,-0.054597534239292145,-0.18320196866989136
1783170482799278800,2.13827880859375,-0.15304109454154968,-0.06462273746728897,-0.3472934365272522
1783170482809347600,2.14834765625,-0.2491711676120758,-0.17186036705970764,-0.5002598762512207
1783170482819417600,2.15841748046875,-0.367620050907135,-0.36128246784210205,-0.6152240037918091
1783170482829486600,2.168486572265625,-0.4780237376689911,-0.5713738203048706,-0.6561084389686584
1783170482839556600,2.178556640625,-0.5155183672904968,-0.6806914806365967,-0.5977092981338501
1783170482849625900,2.1886259765625,-0.47859153151512146,-0.7179082632064819,-0.4772798717021942
1783170482859695600,2.198695556640625,-0.41218268871307373,-0.7090476751327515,-0.36565080285072327
1783170482869764900,2.208764892578125,-0.33711865544319153,-0.5948041677474976,-0.2975805103778839
1783170482879834600,2.218834716796875,-0.27220383286476135,-0.40002432465553284,-0.2968233525753021
1783170482889904600,2.228904541015625,-0.23843109607696533,-0.17092068493366241,-0.35743555426597595
1783170482899973600,2.2389736328125,-0.23468881845474243,0.05188044160604477,-0.42583248019218445
1783170482910043600,2.249043701171875,-0.24162863194942474,0.1902676224708557,-0.4480242431163788
1783170482920112600,2.259112548828125,-0.23461467027664185,0.2514473497867584,-0.3968513309955597
1783170482930182700,2.2691826171875,-0.2064860314130783,0.2681589722633362,-0.29081523418426514
1783170482940252000,2.279251953125,-0.1548963338136673,0.2529248595237732,-0.17708706855773926
1783170482950321700,2.28932177734375,-0.09959083050489426,0.21749910712242126,-0.06537612527608871
1783170482960391000,2.299390869140625,-0.05615653097629547,0.1618954986333847,0.024095971137285233
1783170482970460700,2.309460693359375,-0.025874298065900803,0.07238345593214035,0.08623006939888
1783170482980530700,2.31953076171875,-0.012279924936592579,-0.0407516211271286,0.1071728989481926
1783170482990599700,2.329599609375,-0.02066817507147789,-0.1698671281337738,0.09267876297235489
1783170483000669700,2.339669677734375,-0.04339612275362015,-0.28642570972442627,0.06332886219024658
1783170483010738700,2.34973876953125,-0.09217111021280289,-0.3750624656677246,0.04437505826354027
1783170483020808700,2.35980859375,-0.1530480533838272,-0.46594682335853577,0.02519390732049942
1783170483030878000,2.3698779296875,-0.2181953340768814,-0.5448649525642395,0.009609542787075043
1783170483040948500,2.379948486328125,-0.27641335129737854,-0.5921192765235901,-0.00005693244747817516
1783170483051017500,2.390017578125,-0.3252488672733307,-0.57489413022995,-0.004803772084414959
1783170483061087500,2.40008740234375,-0.3692443072795868,-0.4878218173980713,0.012571755796670914
1783170483071157500,2.410157470703125,-0.3962837755680084,-0.3534449338912964,0.0315057598054409
1783170483081226500,2.4202265625,-0.4085492193698883,-0.17102479934692383,0.05506967380642891
1783170483091296500,2.430296630859375,-0.4068982005119324,0.023934554308652878,0.07084047049283981
1783170483101365500,2.440365478515625,-0.3852328658103943,0.1882247030735016,0.0602799654006958
1783170483111435500,2.450435546875,-0.35678964853286743,0.30222105979919434,0.05058666318655014
1783170483121504500,2.46050439453125,-0.3375491201877594,0.33900782465934753,0.043707720935344696
1783170483131574300,2.47057421875,-0.32097128033638,0.328811377286911,0.05511779338121414
1783170483141643500,2.4806435546875,-0.29798874258995056,0.29574450850486755,0.07582519948482513
1783170483151713300,2.49071337890625,-0.267098605632782,0.2465725690126419,0.07056067138910294
1783170483161782500,2.500782470703125,-0.23596623539924622,0.18983764946460724,0.029599392786622047
1783170483171852500,2.5108525390625,-0.21307846903800964,0.12821316719055176,-0.03870578482747078
1783170483181922600,2.520922607421875,-0.2013821303844452,0.060216277837753296,-0.12204381823539734
1783170483191991600,2.530991455078125,-0.2002740055322647,-0.02891453355550766,-0.1946399211883545
1783170483202061300,2.541061279296875,-0.20364131033420563,-0.11025945842266083,-0.2461092323064804
1783170483212130600,2.551130615234375,-0.19742193818092346,-0.18795864284038544,-0.25617846846580505
1783170483222200300,2.561200439453125,-0.16507917642593384,-0.22973404824733734,-0.23727430403232574
1783170483232269600,2.57126953125,-0.10155665129423141,-0.25154057145118713,-0.20462660491466522
1783170483242339300,2.58133935546875,-0.03136797621846199,-0.25822165608406067,-0.1637745201587677
1783170483252408600,2.59140869140625,0.026692910119891167,-0.2558757960796356,-0.13392892479896545
1783170483262478600,2.601478515625,0.060568321496248245,-0.23530606925487518,-0.11006513237953186
1783170483272548400,2.61154833984375,0.07902655005455017,-0.19996897876262665,-0.09712430834770203
1783170483282617600,2.62161767578125,0.08435234427452087,-0.1353023648262024,-0.08899607509374619
1783170483292687400,2.631687255859375,0.0959601178765297,-0.04721017926931381,-0.10394547134637833
1783170483302756600,2.641756591796875,0.11534766852855682,0.06406840682029724,-0.11790762841701508
1783170483312826400,2.651826416015625,0.15317963063716888,0.14843936264514923,-0.12579022347927094
1783170483322895600,2.6618955078125,0.21935705840587616,0.17987477779388428,-0.10250752419233322
1783170483332965400,2.67196533203125,0.30122676491737366,0.15862314403057098,-0.047589678317308426
1783170483343034600,2.68203466796875,0.3921857178211212,0.10314896702766418,0.02629387006163597
1783170483353104600,2.692104736328125,0.476276159286499,0.02785033918917179,0.09351104497909546
1783170483363174400,2.70217431640625,0.5480709671974182,-0.039880238473415375,0.13628458976745605
1783170483373243600,2.71224365234375,0.6118649840354919,-0.08929572999477386,0.1492886245250702
1783170483383313400,2.7223134765625,0.6666440367698669,-0.11059756577014923,0.16477437317371368
1783170483393382700,2.732382568359375,0.7079933285713196,-0.10757259279489517,0.1788868010044098
1783170483403452400,2.742452392578125,0.7343908548355103,-0.07063747942447662,0.19241192936897278
1783170483413521400,2.752521484375,0.7456507682800293,0.00481305830180645,0.2048320770263672
1783170483423591400,2.76259130859375,0.7557446956634521,0.11627461016178131,0.20466536283493042
1783170483433660400,2.772660400390625,0.7657318711280823,0.22419507801532745,0.17099666595458984
1783170483443730700,2.782730712890625,0.7951545119285583,0.2950551211833954,0.09717010706663132
1783170483453799400,2.79279931640625,0.8500261306762695,0.2597525417804718,-0.015263840556144714
1783170483463869700,2.80286962890625,0.9007012844085693,0.10349530726671219,-0.11709699034690857
1783170483473939500,2.812939453125,0.9370654821395874,-0.1142566055059433,-0.17466890811920166
1783170483484008400,2.823008544921875,0.9632477760314941,-0.29101991653442383,-0.15098515152931213
1783170483494078500,2.833078369140625,0.9851685762405396,-0.3781365752220154,-0.06002747267484665
1783170483504147500,2.8431474609375,1.0220553874969482,-0.41195446252822876,0.047479283064603806
1783170483514217500,2.853217529296875,1.0795007944107056,-0.3540577292442322,0.13407661020755768
1783170483524286500,2.863286376953125,1.145808458328247,-0.16431257128715515,0.18586497008800507
1783170483534356500,2.8733564453125,1.2229355573654175,0.11069022864103317,0.1982245147228241
1783170483544425500,2.883425537109375,1.292436122894287,0.38346555829048157,0.16845595836639404
1783170483554495500,2.89349560546875,1.347458839416504,0.5903506875038147,0.13490687310695648
1783170483564564500,2.903564453125,1.3885583877563477,0.7057079076766968,0.10803797096014023
1783170483574634500,2.913634521484375,1.4187641143798828,0.7326476573944092,0.11533412337303162
1783170483584704500,2.92370458984375,1.4392696619033813,0.6956087350845337,0.15218161046504974
1783170483594773500,2.9337734375,1.4451336860656738,0.6085604429244995,0.1911517232656479
1783170483604843300,2.94384326171875,1.4530645608901978,0.5268045663833618,0.20598579943180084
1783170483614912500,2.95391259765625,1.4874553680419922,0.4669747054576874,0.2054913341999054
1783170483624982300,2.963982177734375,1.5417468547821045,0.4315551817417145,0.20024757087230682
1783170483635051500,2.974051513671875,1.6047217845916748,0.3787645399570465,0.20128943026065826
1783170483645121500,2.98412158203125,1.664871335029602,0.3233470916748047,0.22486773133277893
1783170483655190500,2.9941904296875,1.7036093473434448,0.2891160547733307,0.2589688003063202
1783170483665260500,3.004260498046875,1.728257179260254,0.2692584693431854,0.29348841309547424
1783170483675330300,3.014330322265625,1.747330904006958,0.25702428817749023,0.32050061225891113
1783170483685399600,3.024399658203125,1.7524093389511108,0.2150280922651291,0.33030638098716736
1783170483695469300,3.03446923828125,1.7293087244033813,0.14764824509620667,0.3256208896636963
1783170483705538600,3.04453857421875,1.6894704103469849,0.07360091805458069,0.3258909285068512
1783170483715608300,3.0546083984375,1.6448891162872314,0.020596545189619064,0.3409796953201294
1783170483725677600,3.064677490234375,1.6102789640426636,-0.0038174502551555634,0.3738364577293396
1783170483735747600,3.07474755859375,1.5684006214141846,0.019000783562660217,0.38270580768585205
1783170483745816600,3.084816650390625,1.5311964750289917,0.07628884166479111,0.34183481335639954
1783170483755886600,3.094886474609375,1.4976052045822144,0.1746986359357834,0.2576996088027954
1783170483765956400,3.104956298828125,1.4748458862304688,0.27640289068222046,0.17429472506046295
1783170483776025600,3.115025634765625,1.4643239974975586,0.3452169895172119,0.1289421021938324
1783170483786095400,3.125095458984375,1.46346914768219,0.37882474064826965,0.1445665955543518
1783170483796164600,3.13516455078125,1.4529730081558228,0.3934040665626526,0.20116311311721802
1783170483806234400,3.145234375,1.4424508810043335,0.39997249841690063,0.24857591092586517
1783170483816303600,3.1553037109375,1.4414629936218262,0.42026033997535706,0.2604958415031433
1783170483826373600,3.16537353515625,1.4439375400543213,0.45191866159439087,0.22435301542282104
1783170483836442400,3.1754423828125,1.4575655460357666,0.4770128130912781,0.16226647794246674
1783170483846512600,3.1855126953125,1.4685345888137817,0.48900744318962097,0.11096520721912384
1783170483856581400,3.195581298828125,1.4805593490600586,0.4769611656665802,0.09898212552070618
1783170483866651600,3.205651611328125,1.4949103593826294,0.4413195252418518,0.10862543433904648
1783170483876721400,3.215721435546875,1.5168571472167969,0.41127827763557434,0.125707745552063
1783170483886790400,3.225790283203125,1.5397342443466187,0.40026557445526123,0.13297231495380402
1783170483896860400,3.2358603515625,1.5610625743865967,0.4176720082759857,0.10656589269638062
1783170483906929400,3.245929443359375,1.5802645683288574,0.44516515731811523,0.06806483864784241
1783170483916999700,3.255999755859375,1.5920500755310059,0.4495391249656677,0.04038424789905548
1783170483927068400,3.266068359375,1.5931249856948853,0.4270985424518585,0.03720230236649513
1783170483937138400,3.276138427734375,1.5923837423324585,0.3659106492996216,0.062425024807453156
1783170483947207400,3.28620751953125,1.5964418649673462,0.3051469027996063,0.1232961043715477
1783170483957277400,3.29627734375,1.6015536785125732,0.2669934034347534,0.178618922829628
1783170483967346400,3.306346435546875,1.609407901763916,0.2519894242286682,0.2090356945991516
1783170483977416400,3.31641650390625,1.6124968528747559,0.2726652920246124,0.2068963348865509
1783170483987486500,3.326486572265625,1.6064256429672241,0.3156162202358246,0.18297316133975983
1783170483997555500,3.336555419921875,1.5941522121429443,0.36632877588272095,0.1538785845041275
1783170484007625500,3.34662548828125,1.5648001432418823,0.39798232913017273,0.12389032542705536
1783170484017694500,3.356694580078125,1.5368434190750122,0.4248929023742676,0.10726454854011536
1783170484027764500,3.366764404296875,1.5107166767120361,0.4437757730484009,0.10628796368837357
1783170484037832700,3.376832763671875,1.4875273704528809,0.4303048253059387,0.11639322340488434
1783170484047902700,3.38690283203125,1.4610638618469238,0.3957950472831726,0.14247862994670868
1783170484057971700,3.3969716796875,1.4199130535125732,0.3555949032306671,0.1705881804227829
1783170484068041700,3.407041748046875,1.3808772563934326,0.31281253695487976,0.1959443986415863
1783170484078110700,3.41711083984375,1.3495184183120728,0.2943958640098572,0.2105458378791809
1783170484088180700,3.4271806640625,1.316921591758728,0.3068799674510956,0.21134690940380096
1783170484098250800,3.437250732421875,1.2821526527404785,0.3352680504322052,0.20676280558109283
1783170484108319700,3.44731982421875,1.243035078048706,0.3913813829421997,0.20182956755161285
1783170484118389800,3.4573896484375,1.2010960578918457,0.49527236819267273,0.19150224328041077
1783170484128458800,3.467458740234375,1.1730588674545288,0.6271026134490967,0.1515476405620575
1783170484138528800,3.47752880859375,1.153039813041687,0.6771290898323059,0.07808326929807663
1783170484148597800,3.48759765625,1.1268084049224854,0.6506897807121277,0.002381584607064724
1783170484158667800,3.497667724609375,1.087066650390625,0.5916473865509033,-0.048084747046232224
1783170484168736800,3.50773681640625,1.0386762619018555,0.5142740607261658,-0.06367995589971542
1783170484178806800,3.517806884765625,0.9932822585105896,0.44737061858177185,-0.07486210763454437
1783170484188876800,3.527876708984375,0.9542757272720337,0.39115262031555176,-0.11377888172864914
1783170484198945800,3.53794580078125,0.914617121219635,0.33013561367988586,-0.19417473673820496
1783170484209015800,3.548015869140625,0.8785541653633118,0.2887785732746124,-0.2859081029891968
1783170484219084800,3.558084716796875,0.8508268594741821,0.27603045105934143,-0.3424714207649231
1783170484229154800,3.56815478515625,0.8118110299110413,0.2676260471343994,-0.3325639069080353
1783170484239223800,3.578223876953125,0.7847985625267029,0.30783259868621826,-0.2705700397491455
1783170484249293800,3.5882939453125,0.7730337977409363,0.34856778383255005,-0.20475880801677704
1783170484259362800,3.59836279296875,0.7899873852729797,0.3815245032310486,-0.1732349693775177
1783170484269432800,3.608432861328125,0.8279661536216736,0.4038394093513489,-0.13741013407707214
1783170484279501600,3.61850146484375,0.879566490650177,0.43460288643836975,-0.09695965051651001
1783170484289571800,3.62857177734375,0.9475844502449036,0.4328018128871918,-0.05500021204352379
1783170484299641900,3.638641845703125,1.0043575763702393,0.40202951431274414,-0.023841530084609985
1783170484309710800,3.6487109375,1.0459688901901245,0.3365250527858734,0.0058607058599591255
1783170484319780900,3.65878076171875,1.0544997453689575,0.27838805317878723,0.027613654732704163
1783170484329849600,3.668849609375,1.0191047191619873,0.269849956035614,0.0364588126540184
1783170484339920000,3.678919921875,0.9656886458396912,0.29398149251937866,0.015093691647052765
1783170484349988600,3.688988525390625,0.9180806279182434,0.34991347789764404,-0.021119439974427223
1783170484360059000,3.699058837890625,0.8711649179458618,0.43824636936187744,-0.05866282433271408
1783170484370127600,3.709127685546875,0.8575484156608582,0.4939709007740021,-0.07218928635120392
1783170484380198000,3.719197998046875,0.8847271203994751,0.5078126788139343,-0.06253346055746078
1783170484390266600,3.7292666015625,0.9340842962265015,0.4617820680141449,-0.03558652475476265
1783170484400336600,3.739336669921875,0.982097864151001,0.3615480065345764,-0.0018366286531090736
1783170484410407000,3.749406982421875,1.0172231197357178,0.24191375076770782,0.017312299460172653
1783170484420475600,3.7594755859375,1.0245758295059204,0.12615878880023956,0.028469420969486237
1783170484430546000,3.7695458984375,1.0104693174362183,0.03737299144268036,0.01765618845820427
1783170484440614700,3.77961474609375,0.9871562123298645,-0.02302629128098488,-0.009324719198048115
1783170484450684700,3.7896845703125,0.9628114104270935,-0.045993655920028687,-0.03326041251420975
1783170484460753700,3.799753662109375,0.9465970396995544,-0.039656661450862885,-0.04378564655780792
1783170484470823700,3.80982373046875,0.9527286887168884,-0.010198108851909637,-0.032853104174137115
1783170484480892700,3.819892578125,0.9781047701835632,0.011572272516787052,-0.019448723644018173
1783170484490962700,3.829962646484375,1.0041534900665283,0.029137417674064636,0.0063631669618189335
1783170484501032700,3.84003271484375,1.028245449066162,0.04632268473505974,0.03619087487459183
1783170484511101700,3.850101806640625,1.0477904081344604,0.07922657579183578,0.04904062673449516
1783170484521171700,3.860171630859375,1.049545168876648,0.10773995518684387,0.033295754343271255
1783170484531240700,3.87024072265625,1.0352435111999512,0.14792439341545105,0.000891475472599268
1783170484541310700,3.880310791015625,1.0032614469528198,0.17954879999160767,-0.0283530093729496
1783170484551379700,3.890379638671875,0.9722282290458679,0.2098446488380432,-0.04417751356959343
1783170484561449700,3.90044970703125,0.9548620581626892,0.2444087415933609,-0.033676277846097946
1783170484571518700,3.910518798828125,0.9584479928016663,0.275733083486557,-0.02299940027296543
1783170484581588700,3.920588623046875,0.9683422446250916,0.28199657797813416,-0.01424536481499672
1783170484591658000,3.930657958984375,0.9761810302734375,0.2563982903957367,-0.0042984578758478165
1783170484601727700,3.940727783203125,0.9746707081794739,0.20008839666843414,0.012035511434078217
1783170484611796700,3.950796630859375,0.9641592502593994,0.14400675892829895,0.015693362802267075
1783170484621866800,3.96086669921875,0.9422779679298401,0.0949028804898262,0.009101995266973972
1783170484631936800,3.970936767578125,0.9082561135292053,0.08405236154794693,0.00010983156971633434
1783170484642005800,3.981005859375,0.8722134232521057,0.10738764703273773,-0.023096652701497078
1783170484652075800,3.99107568359375,0.8366525173187256,0.13136328756809235,-0.045768942683935165
1783170484662144800,4.001144775390625,0.8132159113883972,0.15700340270996094,-0.052840013056993484
1783170484672214800,4.01121484375,0.8085481524467468,0.17324894666671753,-0.039421409368515015
1783170484682283800,4.02128369140625,0.8167615532875061,0.1713145673274994,-0.003522945800796151
1783170484692353800,4.031353759765625,0.8221429586410522,0.15357790887355804,0.029535138979554176
1783170484702422800,4.0414228515625,0.8177273273468018,0.1329093724489212,0.04686227813363075
1783170484712492800,4.051492919921875,0.7921884059906006,0.11555008590221405,0.026050738990306854
1783170484722561800,4.061561767578125,0.7525218725204468,0.128755122423172,-0.0039766766130924225
1783170484732631800,4.0716318359375,0.7049698233604431,0.1685294359922409,-0.041237227618694305
1783170484742701800,4.081701904296875,0.6529611349105835,0.19193607568740845,-0.0843157172203064
1783170484752770600,4.0917705078125,0.605934739112854,0.20583884418010712,-0.10476800054311752
1783170484762840800,4.1018408203125,0.5763207077980042,0.20248085260391235,-0.09833981096744537
1783170484772909800,4.111909912109375,0.5692670941352844,0.1824490875005722,-0.058755651116371155
1783170484782979800,4.121979736328125,0.5748372077941895,0.15482066571712494,-0.0024332161992788315
1783170484793048800,4.132048828125,0.5893530249595642,0.15530988574028015,0.06576314568519592
1783170484803118600,4.14211865234375,0.6025637984275818,0.16324050724506378,0.11125096678733826
1783170484813187800,4.152187744140625,0.6023677587509155,0.1797156184911728,0.12151771783828735
1783170484823257600,4.162257568359375,0.5795034766197205,0.21360182762145996,0.09880578517913818
1783170484833326800,4.172326904296875,0.5397478342056274,0.25240886211395264,0.06706729531288147
1783170484843396600,4.182396728515625,0.501860499382019,0.28311604261398315,0.03493865579366684
1783170484853466600,4.192466552734375,0.46853184700012207,0.30388152599334717,0.014660816639661789
1783170484863535900,4.202535888671875,0.45648011565208435,0.3052000403404236,0.01929783821105957
1783170484873605600,4.212605712890625,0.46391618251800537,0.27544721961021423,0.017825908958911896
1783170484883675000,4.2226748046875,0.48103761672973633,0.22871793806552887,0.017966214567422867
1783170484893744600,4.23274462890625,0.4974117875099182,0.18471398949623108,0.04086646810173988
1783170484903814000,4.24281396484375,0.4982795715332031,0.16115713119506836,0.06678302586078644
1783170484913883600,4.252883544921875,0.4988415241241455,0.13735592365264893,0.07467636466026306
1783170484923953000,4.262952880859375,0.4922298192977905,0.1113850325345993,0.06724341213703156
1783170484934022700,4.273022705078125,0.4782836437225342,0.09580527245998383,0.04462731257081032
1783170484944092000,4.283091796875,0.45615795254707336,0.09051371365785599,0.009519127197563648
1783170484954162000,4.293161865234375,0.43554961681365967,0.10584713518619537,-0.02364308573305607
1783170484964231700,4.303231689453125,0.41405296325683594,0.11881899833679199,-0.04771152138710022
1783170484974301000,4.313301025390625,0.40341681241989136,0.10981564968824387,-0.06039455905556679
1783170484984370700,4.32337060546875,0.3903920650482178,0.09621381759643555,-0.03318941965699196
1783170484994440000,4.33343994140625,0.38564950227737427,0.07530321180820465,0.02499319426715374
1783170485004509700,4.343509765625,0.40342777967453003,0.054468750953674316,0.09270349889993668
1783170485014579000,4.353578857421875,0.4288710951805115,0.04069914668798447,0.14522182941436768
1783170485024648700,4.363648681640625,0.46455061435699463,0.0404120609164238,0.16678567230701447
1783170485034717700,4.3737177734375,0.48854517936706543,0.017297685146331787,0.13051608204841614
1783170485044788500,4.38378857421875,0.49583467841148376,-0.041900910437107086,0.048023372888565063
1783170485054857500,4.393857421875,0.4887751638889313,-0.11747689545154572,-0.01136538665741682
1783170485064927500,4.403927490234375,0.45531055331230164,-0.1942375898361206,-0.04163407161831856
1783170485074997500,4.41399755859375,0.4126075506210327,-0.24301259219646454,-0.026862848550081253
1783170485085066500,4.42406640625,0.38341638445854187,-0.24474869668483734,0.009992636740207672
1783170485095136500,4.434136474609375,0.39254143834114075,-0.1935315877199173,0.052481509745121
1783170485105205500,4.44420556640625,0.44235914945602417,-0.09648758918046951,0.09223580360412598
1783170485115275300,4.454275146484375,0.5025658011436462,0.02550302818417549,0.12406563758850098
1783170485125344500,4.464344482421875,0.5341267585754395,0.10695060342550278,0.12629631161689758
1783170485135414300,4.474414306640625,0.5282781720161438,0.12003471702337265,0.10434386879205704
1783170485145483500,4.4844833984375,0.5041621923446655,0.08051604777574539,0.09709196537733078
1783170485155553500,4.494553466796875,0.4796485900878906,0.030242493376135826,0.10583432763814926
1783170485165622500,4.50462255859375,0.4723379611968994,-0.008519662544131279,0.11388909816741943
1783170485175692500,4.514692626953125,0.4868828356266022,-0.03404579311609268,0.11640764772891998
1783170485185762300,4.52476220703125,0.5054137706756592,-0.056910768151283264,0.12287232279777527
1783170485195831600,4.53483154296875,0.5169562101364136,-0.05895927548408508,0.13053475320339203
1783170485205901300,4.5449013671875,0.5209134817123413,-0.02290073223412037,0.13255038857460022
1783170485215970600,4.554970458984375,0.5164777040481567,0.05555892363190651,0.11889157444238663
1783170485226040300,4.565040283203125,0.5016645193099976,0.17003808915615082,0.09222184121608734
1783170485236109600,4.575109619140625,0.4965459406375885,0.30749234557151794,0.06915034353733063
1783170485246179600,4.5851796875,0.508576512336731,0.4282344877719879,0.025320690125226974
1783170485256248600,4.59524853515625,0.5275028347969055,0.503943920135498,-0.012307379394769669
1783170485266318600,4.605318603515625,0.5421795845031738,0.5098524689674377,-0.039340175688266754
1783170485276387300,4.61538720703125,0.5531715154647827,0.4846009612083435,-0.03939690440893173
1783170485286457600,4.62545751953125,0.582765519618988,0.445197731256485,-0.026827998459339142
1783170485296526300,4.6355263671875,0.629526674747467,0.39468690752983093,0.0036505484022200108
1783170485306596600,4.6455966796875,0.6874602437019348,0.33427485823631287,0.0461093969643116
1783170485316666400,4.655666259765625,0.7516725063323975,0.2725036144256592,0.07719407975673676
1783170485326735600,4.665735595703125,0.8060423731803894,0.22119835019111633,0.09323384612798691
1783170485336805600,4.6758056640625,0.8443666100502014,0.18149834871292114,0.09616971015930176
1783170485346874400,4.685874267578125,0.8507113456726074,0.14673703908920288,0.07848917692899704
1783170485356944600,4.695944580078125,0.8369960784912109,0.13008934259414673,0.051922816783189774
1783170485367013400,4.706013427734375,0.8167897462844849,0.12762285768985748,0.02645234204828739
1783170485377083600,4.716083740234375,0.802286684513092,0.14148621261119843,0.01128324493765831
1783170485387152400,4.72615234375,0.8005995154380798,0.15920501947402954,0.016033411026000977
1783170485397222400,4.736222412109375,0.8113810420036316,0.16138482093811035,0.036594610661268234
1783170485407291400,4.74629150390625,0.8344587683677673,0.1418803632259369,0.06253909319639206
1783170485417361400,4.756361328125,0.8700844049453735,0.11378666758537292,0.08547955751419067
1783170485427431700,4.766431640625,0.8984429240226746,0.07743985205888748,0.10133503377437592
1783170485437500400,4.77650048828125,0.9122835993766785,0.05678331106901169,0.1113051101565361
1783170485447570700,4.78657080078125,0.911275327205658,0.060155801475048065,0.11687906831502914
1783170485457639400,4.796639404296875,0.896694004535675,0.09508714824914932,0.1043318510055542
1783170485467709400,4.80670947265625,0.8671389222145081,0.1638513058423996,0.07149723917245865
1783170485477778400,4.8167783203125,0.8250144124031067,0.24451738595962524,0.034842558205127716
1783170485487848400,4.826848388671875,0.7866632342338562,0.3211977779865265,-0.0042930906638503075
1783170485497917400,4.83691748046875,0.7781533598899841,0.35142678022384644,-0.03411836549639702
1783170485507987500,4.846987548828125,0.790463387966156,0.34350401163101196,-0.030827341601252556
1783170485518056400,4.857056396484375,0.8174084424972534,0.30773991346359253,-0.01840795762836933
1783170485528126500,4.86712646484375,0.8440156579017639,0.2528003454208374,-0.013942636549472809
1783170485538196500,4.877196533203125,0.8488293290138245,0.221883162856102,-0.020491350442171097
1783170485548265500,4.887265380859375,0.8390753269195557,0.22302594780921936,-0.033223312348127365
1783170485558335500,4.89733544921875,0.8295995593070984,0.23124365508556366,-0.05629187822341919
1783170485568404500,4.907404541015625,0.8140000104904175,0.22957278788089752,-0.08340483903884888
1783170485578474500,4.917474609375,0.807672381401062,0.22131991386413574,-0.10598471760749817
1783170485588543500,4.92754345703125,0.817338228225708,0.22178532183170319,-0.13197386264801025
1783170485598613500,4.937613525390625,0.8344308733940125,0.22327961027622223,-0.16913694143295288
1783170485608682500,4.9476826171875,0.8473994135856628,0.2078961282968521,-0.22089850902557373
1783170485618752500,4.95775244140625,0.856502890586853,0.17470835149288177,-0.25796785950660706
1783170485628821200,4.9678212890625,0.8615204691886902,0.11570773273706436,-0.26459208130836487
1783170485638891500,4.9778916015625,0.8666987419128418,0.047756120562553406,-0.24204976856708527
1783170485648961500,4.98796142578125,0.8790923953056335,-0.01569261960685253,-0.20388302206993103
1783170485659030500,4.998030517578125,0.88764888048172,-0.06408704817295074,-0.180833101272583
1783170485669100500,5.0081005859375,0.885590672492981,-0.06606991589069366,-0.18294672667980194
1783170485679169500,5.01816943359375,0.8758533596992493,-0.04460856318473816,-0.21952950954437256
1783170485689239600,5.028239501953125,0.8539562821388245,-0.018849540501832962,-0.27009016275405884
1783170485699308300,5.038308349609375,0.8296498656272888,-0.008237376809120178,-0.302616149187088
1783170485709378600,5.048378662109375,0.8096441626548767,-0.009137263521552086,-0.28875333070755005
1783170485719447300,5.058447265625,0.8043921589851379,-0.01150614582002163,-0.24537894129753113
1783170485729517600,5.068517578125,0.8168425559997559,-0.023999687284231186,-0.2271454930305481
1783170485739586600,5.078586669921875,0.8315291404724121,-0.06551970541477203,-0.2520146369934082
1783170485749656300,5.08865625,0.8275613188743591,-0.13918262720108032,-0.2823336124420166
1783170485759725600,5.0987255859375,0.7892067432403564,-0.2163573056459427,-0.2951087951660156
1783170485769795300,5.10879541015625,0.7343697547912598,-0.27753570675849915,-0.2749616801738739
1783170485779865600,5.118865478515625,0.6886829733848572,-0.28069794178009033,-0.22742211818695068
1783170485789934300,5.128934326171875,0.6539503931999207,-0.21906238794326782,-0.18497052788734436
1783170485800004600,5.139004638671875,0.6397064924240112,-0.08563084155321121,-0.13717132806777954
1783170485810073300,5.1490732421875,0.654525101184845,0.09300028532743454,-0.09052582830190659
1783170485820143400,5.159143310546875,0.6924381256103516,0.2820990979671478,-0.04628220200538635
1783170485830212600,5.169212646484375,0.7516092658042908,0.4227433204650879,-0.004803580231964588
1783170485840282400,5.179282470703125,0.8074376583099365,0.4960034191608429,0.04736854508519173
1783170485850351600,5.1893515625,0.8599181771278381,0.5260619521141052,0.11398710310459137
1783170485860421400,5.19942138671875,0.8868454098701477,0.5619725584983826,0.17812027037143707
1783170485870490600,5.20949072265625,0.8973528742790222,0.6057843565940857,0.21523018181324005
1783170485880560400,5.219560302734375,0.906783938407898,0.6499747633934021,0.2231016755104065
1783170485890630400,5.22963037109375,0.9030148386955261,0.6853171586990356,0.20329579710960388
1783170485900699400,5.239699462890625,0.9046939611434937,0.6988675594329834,0.1765717715024948
1783170485910769400,5.249769287109375,0.9111065864562988,0.69029301404953,0.16332174837589264
1783170485920838400,5.25983837890625,0.9240397214889526,0.6391525864601135,0.17170590162277222
1783170485930908400,5.269908447265625,0.9405825734138489,0.5439489483833313,0.1827848106622696
1783170485940977700,5.279977783203125,0.9604907631874084,0.4179729223251343,0.18684080243110657
1783170485951047400,5.29004736328125,0.9859196543693542,0.29612693190574646,0.15561619400978088
1783170485961116700,5.30011669921875,1.0058622360229492,0.19964192807674408,0.10818582773208618
1783170485971186400,5.3101865234375,1.0204224586486816,0.13141320645809174,0.05549190938472748
1783170485981255400,5.32025537109375,1.0246158838272095,0.11101604253053665,0.0123542919754982
1783170485991325400,5.330325439453125,1.0171821117401123,0.13277927041053772,-0.01867511123418808
1783170486001394400,5.34039453125,1.0215885639190674,0.16803233325481415,-0.04645773768424988
1783170486011464400,5.35046435546875,1.046931266784668,0.21289993822574615,-0.06675844639539719
1783170486021534500,5.360534423828125,1.0881551504135132,0.2466919869184494,-0.06929697096347809
1783170486031603500,5.370603515625,1.1599417924880981,0.286457896232605,-0.046401698142290115
1783170486041672700,5.380672607421875,1.2500362396240234,0.3391898274421692,0.004658288322389126
1783170486051741700,5.39074169921875,1.3434102535247803,0.42442870140075684,0.06475772708654404
1783170486061811700,5.400811767578125,1.4367519617080688,0.5207919478416443,0.09344450384378433
1783170486071880700,5.410880615234375,1.5140857696533203,0.6104986667633057,0.09561692178249359
1783170486081950700,5.42095068359375,1.5708909034729004,0.6709809303283691,0.07999108731746674
1783170486092019500,5.43101953125,1.6079922914505005,0.6970294713973999,0.06926152110099792
1783170486102089700,5.44108984375,1.6549091339111328,0.7060732841491699,0.05868104472756386
1783170486112158500,5.451158447265625,1.7081735134124756,0.6685558557510376,0.04311726242303848
1783170486122228700,5.461228759765625,1.7596240043640137,0.5882639288902283,0.036394644528627396
1783170486132297500,5.47129736328125,1.8063440322875977,0.4726651906967163,0.0451141782104969
1783170486142367500,5.481367431640625,1.8349692821502686,0.3318590819835663,0.06520985811948776
1783170486152437800,5.491437744140625,1.8519037961959839,0.22956198453903198,0.06753502041101456
1783170486162506500,5.501506591796875,1.8482606410980225,0.19573743641376495,0.06341297924518585
1783170486172576800,5.51157666015625,1.83389151096344,0.23017027974128723,0.04559803381562233
1783170486182645500,5.5216455078125,1.8154349327087402,0.3032394349575043,0.028061121702194214
1783170486192715500,5.531715576171875,1.800968050956726,0.37437522411346436,0.004329843446612358
1783170486202784500,5.541784423828125,1.79380464553833,0.4265207350254059,-0.02470979653298855
1783170486212854500,5.5518544921875,1.7896977663040161,0.4465058743953705,-0.04282678663730621
1783170486222923500,5.561923583984375,1.783414602279663,0.43247610330581665,-0.039718613028526306
1783170486232993500,5.57199365234375,1.7757205963134766,0.3920536935329437,-0.01682395115494728
1783170486243062500,5.5820625,1.773074984550476,0.3537108302116394,0.02536052092909813
1783170486253132500,5.592132568359375,1.7921364307403564,0.3363819122314453,0.06599225103855133
1783170486263201800,5.602201904296875,1.8224292993545532,0.33920326828956604,0.12034470587968826
1783170486273271600,5.612271484375,1.847546935081482,0.3802111744880676,0.15454483032226562
1783170486283341600,5.622341552734375,1.8628973960876465,0.44346362352371216,0.16776876151561737
1783170486293410600,5.63241064453125,1.8468644618988037,0.5134396553039551,0.15337783098220825
1783170486303480600,5.64248046875,1.8095003366470337,0.5694805383682251,0.12238316982984543
1783170486313549600,5.652549560546875,1.753400206565857,0.5939986705780029,0.07329065352678299
1783170486323619600,5.66261962890625,1.6944825649261475,0.5982251167297363,0.011388400569558144
1783170486333688600,5.6726884765625,1.6498229503631592,0.591742753982544,-0.046852536499500275
1783170486343758600,5.682758544921875,1.616645336151123,0.5618343949317932,-0.08900664746761322
1783170486353827800,5.692827880859375,1.5874236822128296,0.5217507481575012,-0.11511547863483429
1783170486363897600,5.702897705078125,1.5635981559753418,0.4669061303138733,-0.11310505867004395
1783170486373966600,5.712966552734375,1.5549968481063843,0.40326786041259766,-0.10149656981229782
1783170486384036600,5.72303662109375,1.5498337745666504,0.34562215209007263,-0.08584544062614441
1783170486394106600,5.733106689453125,1.5352367162704468,0.3338939845561981,-0.08207367360591888
1783170486404175600,5.743175537109375,1.5173847675323486,0.3883015811443329,-0.0951942726969719
1783170486414245600,5.75324560546875,1.4968721866607666,0.4827468693256378,-0.1195487305521965
1783170486424314600,5.763314697265625,1.4906915426254272,0.6167286038398743,-0.16302403807640076
1783170486434384600,5.773384521484375,1.4946740865707397,0.7631363868713379,-0.19010667502880096
1783170486444453600,5.78345361328125,1.5227304697036743,0.8901846408843994,-0.17806199193000793
1783170486454523600,5.793523681640625,1.5681654214859009,0.9850850701332092,-0.14264065027236938
1783170486464592600,5.803592529296875,1.63643217086792,1.028441309928894,-0.1060035452246666
1783170486474662700,5.81366259765625,1.7150428295135498,1.0243488550186157,-0.09158501029014587
1783170486484731600,5.823731689453125,1.783174753189087,0.9756902456283569,-0.10912805050611496
1783170486494801400,5.833801513671875,1.8394609689712524,0.8882511258125305,-0.14869444072246552
1783170486504870700,5.84387060546875,1.887897253036499,0.7532506585121155,-0.15459148585796356
1783170486514940400,5.8539404296875,1.9250614643096924,0.5699881315231323,-0.12433359771966934
1783170486525010700,5.8640107421875,1.9582489728927612,0.3689834177494049,-0.06166461855173111
1783170486535079700,5.87407958984375,1.9800028800964355,0.18840697407722473,0.0002150705549865961
1783170486545149400,5.8841494140625,1.9829744100570679,0.04249025136232376,0.05918890982866287
1783170486555218700,5.89421875,1.9449708461761475,-0.02484511025249958,0.09022960811853409
1783170486565288400,5.904288330078125,1.8784104585647583,-0.006238670088350773,0.07911304384469986
1783170486575357700,5.914357666015625,1.7978515625,0.05006200075149536,0.03809351101517677
1783170486585427500,5.924427490234375,1.7003982067108154,0.11008486151695251,0.0047272988595068455
1783170486595496700,5.93449658203125,1.5856486558914185,0.178491473197937,-0.0276445671916008
1783170486605566500,5.94456640625,1.4668186902999878,0.2552451193332672,-0.062451016157865524
1783170486615635700,5.9546357421875,1.3736231327056885,0.33787527680397034,-0.11580566316843033
1783170486625705500,5.96470556640625,1.3208023309707642,0.4212180972099304,-0.1678861677646637
1783170486635774700,5.974774658203125,1.304695963859558,0.4738168716430664,-0.18394674360752106
1783170486645844700,5.9848447265625,1.3124462366104126,0.4971381723880768,-0.1472206860780716
1783170486655914500,5.99491455078125,1.3316892385482788,0.505151093006134,-0.0895017758011818
1783170486665983700,6.004983642578125,1.3420385122299194,0.5024858117103577,-0.03231251984834671
1783170486676053500,6.015053466796875,1.3449369668960571,0.48510217666625977,0.003284021746367216
1783170486686122800,6.025122802734375,1.3289659023284912,0.4603329002857208,0.009585327468812466
1783170486696192500,6.035192626953125,1.2892963886260986,0.42675840854644775,-0.00565545167773962
1783170486706261800,6.04526171875,1.235245943069458,0.4173888862133026,-0.024383865296840668
1783170486716331500,6.05533154296875,1.1766399145126343,0.4417252540588379,-0.04858146235346794
1783170486726400500,6.065400390625,1.1330770254135132,0.4626307785511017,-0.08020170032978058
1783170486736470800,6.075470703125,1.1047141551971436,0.458719402551651,-0.11476808786392212
1783170486746539500,6.08553955078125,1.0882952213287354,0.41527101397514343,-0.11613855510950089
1783170486756609800,6.09560986328125,1.0783753395080566,0.352435439825058,-0.07860685139894485
1783170486766678500,6.105678466796875,1.0714154243469238,0.2960613965988159,-0.017969606444239616
1783170486776748500,6.11574853515625,1.064751386642456,0.2524974048137665,0.03170458972454071
1783170486786818600,6.125818603515625,1.0506627559661865,0.23837441205978394,0.05083620548248291
1783170486796887600,6.135887451171875,1.0259019136428833,0.24050147831439972,0.0583915188908577
1783170486806957600,6.14595751953125,0.9937140941619873,0.25400128960609436,0.05582902580499649
1783170486817026600,6.156026611328125,0.9457330107688904,0.2690131366252899,0.05898692458868027
1783170486827096600,6.1660966796875,0.8947334885597229,0.2889021337032318,0.06229750066995621
1783170486837165600,6.17616552734375,0.8457449674606323,0.28472283482551575,0.06547221541404724
1783170486847235600,6.186235595703125,0.8090498447418213,0.2602185606956482,0.0822402760386467
1783170486857304600,6.1963046875,0.7819134593009949,0.21502581238746643,0.1098698154091835
1783170486867374600,6.20637451171875,0.7706744074821472,0.17937806248664856,0.15015998482704163
1783170486877443600,6.216443603515625,0.7569196224212646,0.16306337714195251,0.18014663457870483
1783170486887513600,6.226513671875,0.7351810336112976,0.1611834615468979,0.19543051719665527
1783170486897582600,6.23658251953125,0.6988750100135803,0.17185264825820923,0.19921547174453735
1783170486907652600,6.246652587890625,0.6494211554527283,0.18305604159832,0.18667252361774445
1783170486917722600,6.25672265625,0.5903655290603638,0.19583731889724731,0.1494080126285553
1783170486927791600,6.26679150390625,0.5392791628837585,0.2191580832004547,0.09572401642799377
1783170486937861600,6.276861572265625,0.49024879932403564,0.21710452437400818,0.04921882972121239
1783170486947930600,6.2869306640625,0.44902464747428894,0.1777597814798355,0.02690846472978592
1783170486958000600,6.297000732421875,0.4125833809375763,0.09930053353309631,0.027313951402902603
1783170486968069600,6.307069580078125,0.38337624073028564,0.025110725313425064,0.03845369070768356
1783170486978139600,6.3171396484375,0.36356228590011597,-0.03606703132390976,0.06674611568450928
1783170486988208600,6.327208740234375,0.3341796398162842,-0.0622355155646801,0.09971179068088531
1783170486998278700,6.337278564453125,0.30788949131965637,-0.04513722285628319,0.1279287487268448
1783170487008347400,6.347347412109375,0.29131799936294556,0.014122374355793,0.1504705399274826
1783170487018417700,6.357417724609375,0.2770618796348572,0.08742417395114899,0.1571521908044815
1783170487028486400,6.367486328125,0.26623931527137756,0.17618520557880402,0.12476202100515366
1783170487038557000,6.377556884765625,0.2633947730064392,0.23761461675167084,0.08569219708442688
1783170487048627200,6.387627197265625,0.2584253251552582,0.21430769562721252,0.036318518221378326
1783170487058696000,6.397696044921875,0.24399758875370026,0.11785715818405151,0.01222405768930912
1783170487068766200,6.40776611328125,0.2343446910381317,-0.000505971722304821,0.01553143747150898
1783170487078835000,6.4178349609375,0.18072813749313354,-0.15730102360248566,0.02959723211824894
1783170487088905200,6.4279052734375,0.13993915915489197,-0.20135769248008728,0.05053713545203209
1783170487098974000,6.437973876953125,0.10787749290466309,-0.17353203892707825,0.025764143094420433
1783170487109044000,6.4480439453125,0.084898941218853,-0.08771035075187683,-0.03021949529647827
1783170487119113200,6.45811328125,0.05803794413805008,-0.019083794206380844,-0.11166711896657944
1783170487129183000,6.468182861328125,0.0481291189789772,0.020129121840000153,-0.17690683901309967
1783170487139252200,6.478252197265625,0.04178733006119728,0.015130668878555298,-0.19058135151863098
1783170487149322000,6.488322021484375,0.03692226856946945,-0.013220277614891529,-0.1756892204284668
1783170487159391200,6.49839111328125,0.04459789767861366,-0.03820965811610222,-0.14354194700717926
1783170487169461000,6.5084609375,0.05903675779700279,-0.03711483255028725,-0.0749405175447464
1783170487179531000,6.518531005859375,0.09080047160387039,0.0049969106912612915,0.0035434020683169365
1783170487189600000,6.52860009765625,0.13177108764648438,0.06744803488254547,0.07674757391214371
1783170487199670000,6.538669921875,0.15670402348041534,0.11230726540088654,0.11426018178462982
1783170487209739300,6.5487392578125,0.14968739449977875,0.14906181395053864,0.1247975081205368
1783170487219809000,6.55880908203125,0.11888871341943741,0.15702402591705322,0.10978135466575623
1783170487229878300,6.568878173828125,0.07544057071208954,0.1320885717868805,0.0744132474064827
1783170487239948000,6.578947998046875,0.036668434739112854,0.09194846451282501,0.04676556587219238
1783170487250017300,6.589017333984375,0.023624803870916367,0.05962727963924408,0.044479772448539734
1783170487260087000,6.599087158203125,0.02891635335981846,0.02613137662410736,0.060688383877277374
1783170487270156000,6.609156005859375,0.04029124602675438,-0.008388517424464226,0.09155308455228806
1783170487280226000,6.61922607421875,0.04233736917376518,-0.03584211319684982,0.11568311601877213
1783170487290295000,6.629294921875,0.03172920271754265,-0.05050520971417427,0.11174163967370987
1783170487300365300,6.639365234375,0.0024365042336285114,-0.04564294591546059,0.07635165005922318
1783170487310435000,6.64943505859375,-0.03761850297451019,-0.030768927186727524,0.021581610664725304
1783170487320504000,6.659504150390625,-0.078669972717762,-0.02258489280939102,-0.029433483257889748
1783170487330574000,6.669573974609375,-0.11039621382951736,-0.029877960681915283,-0.061196744441986084
1783170487340643000,6.67964306640625,-0.1353624314069748,-0.058012403547763824,-0.07076353579759598
1783170487350713000,6.689713134765625,-0.14585980772972107,-0.09577549248933792,-0.08331022411584854
1783170487360782000,6.699781982421875,-0.1520231068134308,-0.11979185044765472,-0.10155583918094635
1783170487370852000,6.70985205078125,-0.16152232885360718,-0.1428106129169464,-0.11494328826665878
1783170487380921000,6.719921142578125,-0.1726958006620407,-0.1526787132024765,-0.1103656217455864
1783170487390991000,6.7299912109375,-0.18475858867168427,-0.13937115669250488,-0.08995142579078674
1783170487401060000,6.74006005859375,-0.18918533623218536,-0.0915173590183258,-0.058403998613357544
1783170487411130000,6.750130126953125,-0.1806192696094513,-0.004006683826446533,-0.03185707703232765
1783170487421199000,6.76019921875,-0.16551610827445984,0.09751726686954498,-0.04248567670583725
1783170487431269000,6.77026904296875,-0.15182346105575562,0.17014485597610474,-0.08618202805519104
1783170487441339100,6.780339111328125,-0.14599524438381195,0.1909705400466919,-0.13191789388656616
1783170487451408100,6.790408203125,-0.14031793177127838,0.16446781158447266,-0.1537933647632599
1783170487461478000,6.800477783203125,-0.12512880563735962,0.11213256418704987,-0.15432198345661163
1783170487471547100,6.810547119140625,-0.10816312581300735,0.04789844527840614,-0.14345361292362213
1783170487481617200,6.8206171875,-0.09250319004058838,0.003858150914311409,-0.12507282197475433
1783170487491686100,6.83068603515625,-0.07850641012191772,-0.023370541632175446,-0.12165650725364685
1783170487501756200,6.840756103515625,-0.07407430559396744,-0.04080170392990112,-0.11631530523300171
1783170487511825200,6.8508251953125,-0.08046349883079529,-0.045876361429691315,-0.13573001325130463
1783170487521895200,6.860895263671875,-0.09115201979875565,-0.029900070279836655,-0.16934341192245483
1783170487531964200,6.870964111328125,-0.09862165153026581,-0.02041921764612198,-0.21117502450942993
1783170487542034200,6.8810341796875,-0.09633438289165497,-0.03743254393339157,-0.2189885377883911
1783170487552103200,6.891103271484375,-0.08911535143852234,-0.08249349892139435,-0.20502132177352905
1783170487562173200,6.901173095703125,-0.07283314317464828,-0.12679503858089447,-0.17214447259902954
1783170487572242000,6.911241943359375,-0.04892301559448242,-0.15417660772800446,-0.13941049575805664
1783170487582312200,6.921312255859375,-0.041022781282663345,-0.17009007930755615,-0.11395028233528137
1783170487592382200,6.93138232421875,-0.04316742718219757,-0.1566845327615738,-0.10718239098787308
1783170487602451200,6.941451171875,-0.05352352559566498,-0.12452326714992523,-0.10742314904928207
1783170487612521200,6.951521240234375,-0.06783988326787949,-0.0852871909737587,-0.11393697559833527
1783170487622590000,6.96158984375,-0.08223893493413925,-0.05304493382573128,-0.12575100362300873
1783170487632660200,6.97166015625,-0.0978783443570137,-0.041239406913518906,-0.13390161097049713
1783170487642729000,6.98172900390625,-0.11745594441890717,-0.050556622445583344,-0.12792852520942688
1783170487652799200,6.99179931640625,-0.12909476459026337,-0.07691872119903564,-0.10274141281843185
1783170487662868000,7.001867919921875,-0.1405651867389679,-0.1033330112695694,-0.07627255469560623
1783170487672938000,7.01193798828125,-0.15783019363880157,-0.11494679003953934,-0.04641479253768921
1783170487683007000,7.022007080078125,-0.18023589253425598,-0.11504478007555008,-0.027955617755651474
1783170487693077000,7.032076904296875,-0.20066261291503906,-0.11575397849082947,-0.027298083528876305
1783170487703146000,7.04214599609375,-0.22934776544570923,-0.10857264697551727,-0.044593531638383865
1783170487713216000,7.052216064453125,-0.26545488834381104,-0.08818082511425018,-0.05456174165010452
1783170487723286300,7.062286376953125,-0.29864081740379333,-0.07683311402797699,-0.059849727898836136
1783170487733355000,7.07235498046875,-0.31908589601516724,-0.0769665390253067,-0.05365175008773804
1783170487743425000,7.082425048828125,-0.33548372983932495,-0.09066969901323318,-0.038616035133600235
1783170487753494000,7.092493896484375,-0.34548869729042053,-0.10526355355978012,-0.010962303727865219
1783170487763564000,7.10256396484375,-0.3531433939933777,-0.1210775151848793,0.027061179280281067
1783170487773633000,7.112633056640625,-0.3607983887195587,-0.13049045205116272,0.05517643690109253
1783170487783703000,7.122703125,-0.3710673451423645,-0.11982731521129608,0.0716983750462532
1783170487793772000,7.13277197265625,-0.38104167580604553,-0.031693730503320694,0.06714383512735367
1783170487803842000,7.142842041015625,-0.3818628191947937,0.033647604286670685,0.0069394707679748535
1783170487813911300,7.152911376953125,-0.3961211144924164,-0.029009651392698288,-0.08167241513729095
1783170487823981000,7.16298095703125,-0.4310632050037384,-0.12884224951267242,-0.12738101184368134
1783170487834050300,7.17305029296875,-0.4763108193874359,-0.19350565969944,-0.11252936720848083
1783170487844120000,7.1831201171875,-0.5263391137123108,-0.2331935167312622,-0.10503663122653961
1783170487854189000,7.19318896484375,-0.5365983843803406,-0.1831817477941513,-0.10557033121585846
1783170487864259000,7.203259033203125,-0.5171344876289368,-0.08837629109621048,-0.10920745134353638
1783170487874329000,7.2133291015625,-0.4927244484424591,0.014718400314450264,-0.11037604510784149
1783170487884398000,7.223398193359375,-0.4721461534500122,0.10448169708251953,-0.0873311460018158
1783170487894468000,7.233468017578125,-0.459945410490036,0.16781193017959595,-0.02915492281317711
1783170487904537000,7.243537109375,-0.451835036277771,0.19552254676818848,0.04444800689816475
1783170487914607000,7.253607177734375,-0.4439350366592407,0.21364082396030426,0.11120466887950897
1783170487924676000,7.263676025390625,-0.43273061513900757,0.21225982904434204,0.154760479927063
1783170487934746000,7.27374609375,-0.39976629614830017,0.22148236632347107,0.17357704043388367
1783170487944815000,7.283815185546875,-0.3570779860019684,0.2261696457862854,0.1947280913591385
1783170487954885000,7.293885009765625,-0.3046821653842926,0.20954087376594543,0.22576484084129333
1783170487964954000,7.3039541015625,-0.2648833692073822,0.17653605341911316,0.2752039134502411
1783170487975023900,7.31402392578125,-0.24997074902057648,0.134930819272995,0.33954164385795593
1783170487985093000,7.324093017578125,-0.24621088802814484,0.12201353907585144,0.3997734487056732
1783170487995163100,7.3341630859375,-0.2492239773273468,0.13733656704425812,0.4372028410434723
1783170488005232000,7.344232177734375,-0.24037328362464905,0.181721493601799,0.4474346935749054
1783170488015302100,7.35430224609375,-0.22589313983917236,0.2252631038427353,0.41632309556007385
1783170488025372000,7.364371826171875,-0.2051267772912979,0.23928824067115784,0.3627801239490509
1783170488035441200,7.374441162109375,-0.19178301095962524,0.21149761974811554,0.3187223970890045
1783170488045511000,7.384510986328125,-0.1850777417421341,0.13684241473674774,0.2991434633731842
1783170488055580000,7.394579833984375,-0.17729277908802032,0.033863313496112823,0.29091694951057434
1783170488065650000,7.40464990234375,-0.1707199066877365,-0.07534065842628479,0.2945263683795929
1783170488075719200,7.41471923828125,-0.18663708865642548,-0.15755298733711243,0.2934967875480652
1783170488085789000,7.424788818359375,-0.2233794629573822,-0.2118079662322998,0.27973735332489014
1783170488095858200,7.434858154296875,-0.2620839774608612,-0.2413751780986786,0.21910354495048523
1783170488105928000,7.444927978515625,-0.29253724217414856,-0.2704940438270569,0.15963523089885712
1783170488115997200,7.4549970703125,-0.3228333592414856,-0.31430545449256897,0.12941421568393707
1783170488126067000,7.46506689453125,-0.33678364753723145,-0.3568495512008667,0.13757547736167908
1783170488136136000,7.475135986328125,-0.3378760814666748,-0.36531227827072144,0.1651940643787384
1783170488146206000,7.4852060546875,-0.32972463965415955,-0.33984073996543884,0.19526179134845734
1783170488156275000,7.49527490234375,-0.32956644892692566,-0.29508233070373535,0.20096547901630402
1783170488166345200,7.50534521484375,-0.3442850410938263,-0.22736895084381104,0.18516398966312408
1783170488176415000,7.5154150390625,-0.3819296360015869,-0.1435036063194275,0.15248993039131165
1783170488186484200,7.525484130859375,-0.43736839294433594,-0.0730520710349083,0.11718734353780746
1783170488196554000,7.535553955078125,-0.4899173676967621,-0.012249977327883244,0.09247027337551117
1783170488206623000,7.545623046875,-0.5212598443031311,0.050645094364881516,0.0781886875629425
1783170488216693000,7.55569287109375,-0.5214199423789978,0.10154715925455093,0.07872718572616577
1783170488226762000,7.565761962890625,-0.5095118880271912,0.11975958943367004,0.08539741486310959
1783170488236832000,7.57583203125,-0.4924676716327667,0.10433268547058105,0.08623817563056946
1783170488246901000,7.58590087890625,-0.4817736744880676,0.0754963681101799,0.06779953837394714
1783170488256971000,7.595970947265625,-0.47780874371528625,0.05904948338866234,0.03670899569988251
1783170488267040000,7.6060400390625,-0.47323036193847656,0.03907538950443268,0.013304194435477257
1783170488277110000,7.616110107421875,-0.47688233852386475,0.008220536634325981,0.013686091639101505
1783170488287179000,7.626178955078125,-0.47259265184402466,-0.022342538461089134,0.011669820174574852
1783170488297249000,7.6362490234375,-0.45946434140205383,-0.03415711969137192,0.011166216805577278
1783170488307318000,7.646318115234375,-0.4583466649055481,-0.02996158041059971,0.01266135461628437
1783170488317388000,7.656387939453125,-0.4569903314113617,-0.015194619074463844,0.011525781825184822
1783170488327457800,7.666457763671875,-0.45661285519599915,0.008779811672866344,-0.004271673038601875
1783170488337527000,7.676527099609375,-0.45256271958351135,0.027512753382325172,-0.027252357453107834
1783170488347597000,7.68659716796875,-0.44796663522720337,0.0217970572412014,-0.047569889575242996
1783170488357666000,7.696666015625,-0.44330665469169617,-0.03140171617269516,-0.05482780560851097
1783170488367736000,7.706736083984375,-0.4321027994155884,-0.09148234128952026,-0.05592326447367668
1783170488377805000,7.71680517578125,-0.4095980226993561,-0.13768340647220612,-0.049746859818696976
1783170488387875000,7.726875,-0.38402074575424194,-0.1745050698518753,-0.04849117994308472
1783170488397944000,7.736944091796875,-0.364850789308548,-0.20608510076999664,-0.04184845834970474
1783170488408014000,7.74701416015625,-0.36012616753578186,-0.25503984093666077,-0.031070992350578308
1783170488418083000,7.7570830078125,-0.3536698520183563,-0.3101281225681305,-0.012805435806512833
1783170488428153000,7.767153076171875,-0.33463186025619507,-0.35697194933891296,0.014459199272096157
1783170488438221800,7.777221923828125,-0.3067688047885895,-0.393203467130661,0.046308208256959915
1783170488448292000,7.7872919921875,-0.2911461293697357,-0.415918231010437,0.06756734848022461
1783170488458360800,7.79736083984375,-0.28569144010543823,-0.4260832369327545,0.07766924798488617
1783170488468431000,7.80743115234375,-0.3010734021663666,-0.42650896310806274,0.06633319705724716
1783170488478501000,7.817501220703125,-0.3320139944553375,-0.4053272306919098,0.051845334470272064
1783170488488569900,7.82756982421875,-0.37322431802749634,-0.35760748386383057,0.03646966442465782
1783170488498640100,7.83764013671875,-0.3962787687778473,-0.2750425934791565,0.01661659963428974
1783170488508708900,7.847708984375,-0.3931248188018799,-0.2356673628091812,-0.026080835610628128
1783170488518779100,7.857779052734375,-0.3671600818634033,-0.3142239451408386,-0.0841076597571373
1783170488528848000,7.867847900390625,-0.3538574278354645,-0.44120293855667114,-0.14308837056159973
1783170488538918100,7.877918212890625,-0.3874715566635132,-0.583779513835907,-0.17942240834236145
1783170488548987000,7.88798681640625,-0.47765401005744934,-0.7136975526809692,-0.21361044049263
1783170488559057000,7.898056884765625,-0.5953555703163147,-0.7838997840881348,-0.24877960979938507
1783170488569126100,7.908126220703125,-0.6924821734428406,-0.7933129072189331,-0.3095037341117859
1783170488579196000,7.91819580078125,-0.7463437914848328,-0.7012109160423279,-0.3552917242050171
1783170488589265200,7.92826513671875,-0.7810459136962891,-0.5727524161338806,-0.4090655446052551
1783170488599335000,7.9383349609375,-0.800632119178772,-0.4465921223163605,-0.4484262466430664
1783170488609404200,7.948404052734375,-0.8154686093330383,-0.34840163588523865,-0.4490513205528259
1783170488619474000,7.958473876953125,-0.8277209997177124,-0.29813286662101746,-0.41590720415115356
1783170488629544000,7.9685439453125,-0.8300822973251343,-0.27083903551101685,-0.36078503727912903
1783170488639613000,7.978613037109375,-0.8188760280609131,-0.2604290246963501,-0.28931725025177
1783170488649683000,7.988682861328125,-0.8073758482933044,-0.23695233464241028,-0.22179573774337769
1783170488659752200,7.998752197265625,-0.8026910424232483,-0.20676806569099426,-0.17669564485549927
1783170488669822000,8.008822021484375,-0.8096643686294556,-0.1878693550825119,-0.16550813615322113
1783170488679891200,8.01889111328125,-0.8325276374816895,-0.16783545911312103,-0.15987421572208405
1783170488689961000,8.0289609375,-0.8638460040092468,-0.14442679286003113,-0.15162084996700287
1783170488700030200,8.0390302734375,-0.892146110534668,-0.14465557038784027,-0.14241190254688263
1783170488710100000,8.049099853515624,-0.9054679870605469,-0.1527186781167984,-0.12628774344921112
1783170488720169000,8.0591689453125,-0.9076374173164368,-0.1628381609916687,-0.10172275453805923
1783170488730239000,8.069239013671876,-0.897277295589447,-0.1872032880783081,-0.059439368546009064
1783170488740308000,8.079307861328125,-0.8797507286071777,-0.21340399980545044,-0.001706029986962676
1783170488750378200,8.089378173828125,-0.862067699432373,-0.2537594139575958,0.041062623262405396
1783170488760447000,8.099447021484375,-0.862748920917511,-0.2777574062347412,0.05214856564998627
1783170488770517000,8.10951708984375,-0.8797309994697571,-0.2913503348827362,0.029557641595602036
1783170488780586000,8.1195859375,-0.9171351194381714,-0.3037255108356476,-0.0023430348373949528
1783170488790656000,8.129656005859376,-0.9728529453277588,-0.309344619512558,-0.02248895727097988
1783170488800726000,8.13972607421875,-1.0411401987075806,-0.2978442907333374,-0.051627665758132935
1783170488810795000,8.149794921875,-1.1039955615997314,-0.2762841582298279,-0.10303930938243866
1783170488820865000,8.159864990234375,-1.1495801210403442,-0.25018250942230225,-0.15652889013290405
1783170488830934000,8.16993408203125,-1.1783795356750488,-0.23346692323684692,-0.20404699444770813
1783170488841004000,8.180004150390625,-1.1870994567871094,-0.2221687287092209,-0.22810226678848267
1783170488851073000,8.190072998046874,-1.1703274250030518,-0.21534022688865662,-0.21995693445205688
1783170488861143000,8.20014306640625,-1.129345417022705,-0.22929280996322632,-0.18662135303020477
1783170488871212000,8.2102119140625,-1.0878981351852417,-0.24397748708724976,-0.14649131894111633
1783170488881282000,8.220281982421875,-1.0648788213729858,-0.25464504957199097,-0.12656182050704956
1783170488891351000,8.23035107421875,-1.0635749101638794,-0.25310173630714417,-0.12726721167564392
1783170488901421000,8.240421142578125,-1.071498155593872,-0.2366151511669159,-0.1318582445383072
1783170488911490000,8.250489990234374,-1.0863171815872192,-0.21402478218078613,-0.14791026711463928
1783170488921560000,8.26056005859375,-1.103204369544983,-0.2042160928249359,-0.13643522560596466
1783170488931629000,8.270629150390626,-1.1207804679870605,-0.2172127217054367,-0.10988994687795639
1783170488941699000,8.280698974609376,-1.1346887350082397,-0.23128566145896912,-0.08598648011684418
1783170488951769000,8.29076904296875,-1.141632318496704,-0.2394956648349762,-0.06048569828271866
1783170488961838000,8.300838134765625,-1.1367616653442383,-0.24338150024414062,-0.046268947422504425
1783170488971908000,8.310908203125,-1.1248080730438232,-0.2663295269012451,-0.04571601748466492
1783170488981977000,8.32097705078125,-1.1175525188446045,-0.3065840005874634,-0.042691729962825775
1783170488992047000,8.331047119140624,-1.108178734779358,-0.36431920528411865,-0.042452212423086166
1783170489002115800,8.34111572265625,-1.106370449066162,-0.4429301619529724,-0.0475740022957325
1783170489012186000,8.35118603515625,-1.1172144412994385,-0.5090833306312561,-0.04032639414072037
1783170489022254800,8.3612548828125,-1.1447608470916748,-0.5391272306442261,-0.03289564326405525
1783170489032325000,8.3713251953125,-1.1876249313354492,-0.5226441025733948,-0.04879935458302498
1783170489042393600,8.3813935546875,-1.2306832075119019,-0.4638098478317261,-0.07447382807731628
1783170489052463600,8.391463623046874,-1.262573480606079,-0.377064973115921,-0.10305371880531311
1783170489062532600,8.40153271484375,-1.2631593942642212,-0.2706921696662903,-0.12743017077445984
1783170489072602600,8.4116025390625,-1.240229606628418,-0.17059527337551117,-0.13668309152126312
1783170489082671600,8.421671630859375,-1.2131415605545044,-0.09030389785766602,-0.11995711177587509
1783170489092741600,8.43174169921875,-1.1758040189743042,-0.047455910593271255,-0.08934126049280167
1783170489102810600,8.441810546875,-1.1350877285003662,-0.031035922467708588,-0.06089923530817032
1783170489112880600,8.451880615234375,-1.0776692628860474,-0.03159426152706146,-0.02821270376443863
1783170489122950700,8.46195068359375,-1.0113059282302856,-0.026061013340950012,0.002161978278309107
1783170489133019600,8.47201953125,-0.9366602301597595,-0.014979184605181217,0.03235474228858948
1783170489143089400,8.48208935546875,-0.8659266829490662,0.00771680660545826,0.06232542172074318
1783170489153158700,8.49215869140625,-0.7991659045219421,0.03710063546895981,0.09264229238033295
1783170489163228700,8.502228759765625,-0.740893542766571,0.04052945226430893,0.11908135563135147
1783170489173297700,8.512297607421875,-0.6837695837020874,0.03572246432304382,0.12736289203166962
1783170489183367700,8.52236767578125,-0.6100165247917175,0.030516251921653748,0.12929953634738922
1783170489193436700,8.532436767578124,-0.5401320457458496,0.035083167254924774,0.13321620225906372
1783170489203506700,8.542506591796876,-0.4577085077762604,0.067559614777565,0.13081084191799164
1783170489213575700,8.55257568359375,-0.3746548295021057,0.07242683321237564,0.09203359484672546
1783170489223645700,8.562645751953125,-0.2959240674972534,0.042796771973371506,0.007688356097787619
1783170489233714700,8.572714599609375,-0.22463394701480865,-0.08579850941896439,-0.07498747855424881
1783170489243784700,8.58278466796875,-0.17357821762561798,-0.28892526030540466,-0.11963430792093277
1783170489253853400,8.592853515625,-0.14622361958026886,-0.5293310880661011,-0.13673770427703857
1783170489263923700,8.602923828125,-0.1432214379310608,-0.7749924659729004,-0.15388447046279907
1783170489273993700,8.61299365234375,-0.17792901396751404,-0.951412558555603,-0.17024827003479004
1783170489284062700,8.623062744140626,-0.22424058616161346,-1.0102553367614746,-0.20419931411743164
1783170489294132700,8.6331328125,-0.2759719789028168,-0.9556312561035156,-0.23997661471366882
1783170489304201700,8.64320166015625,-0.3460850119590759,-0.7956141829490662,-0.25148439407348633
1783170489314271700,8.653271728515625,-0.4067111909389496,-0.5843192934989929,-0.24738779664039612
1783170489324340500,8.663340576171874,-0.44551822543144226,-0.38709574937820435,-0.2255197912454605
1783170489334410800,8.67341064453125,-0.47777310013771057,-0.22936631739139557,-0.18350976705551147
1783170489344479500,8.6834794921875,-0.47215917706489563,-0.13335616886615753,-0.12747259438037872
1783170489354549800,8.6935498046875,-0.44284531474113464,-0.08905968070030212,-0.07139323651790619
1783170489364618500,8.703618408203125,-0.4076060950756073,-0.08871746808290482,-0.022961517795920372
1783170489374688500,8.7136884765625,-0.3708250820636749,-0.08363549411296844,0.0037037900183349848
1783170489384757800,8.7237578125,-0.33438026905059814,-0.05147303268313408,0.009511345997452736
1783170489394827500,8.73382763671875,-0.2638798654079437,-0.02019939199090004,0.01660441793501377
1783170489404896800,8.743896728515624,-0.2065577358007431,0.02143913321197033,0.05834600701928139
1783170489414966500,8.753966552734376,-0.18750110268592834,0.09810353815555573,0.10425204783678055
1783170489425035800,8.764035888671875,-0.21457505226135254,0.18612420558929443,0.11152566969394684
1783170489435105500,8.77410546875,-0.25512129068374634,0.2776297628879547,0.10692320764064789
1783170489445174800,8.7841748046875,-0.2855827808380127,0.3779353201389313,0.11196962743997574
1783170489455244500,8.79424462890625,-0.27146533131599426,0.4701085388660431,0.112177275121212
1783170489465314600,8.804314453125,-0.20533746480941772,0.5471420884132385,0.1173483356833458
1783170489475383800,8.8143837890625,-0.09387216717004776,0.5898824334144592,0.12485036998987198
1783170489485453600,8.82445361328125,0.041183121502399445,0.5868507027626038,0.105030857026577
1783170489495522800,8.834522705078125,0.18626883625984192,0.5498479604721069,0.06132672354578972
1783170489505592600,8.844592529296875,0.3121093213558197,0.4431247115135193,0.013508068397641182
1783170489515661800,8.854661865234375,0.4008101224899292,0.2883404493331909,-0.025891652330756187
1783170489525731600,8.864731689453125,0.4412499666213989,0.10134287923574448,-0.028155339881777763
1783170489535800600,8.874800537109374,0.46163931488990784,-0.07016056776046753,-0.02457023411989212
1783170489545870600,8.88487060546875,0.4934619665145874,-0.16048114001750946,0.017399851232767105
1783170489555939600,8.894939697265626,0.5784043669700623,-0.18532563745975494,0.09262099862098694
1783170489566009900,8.905009765625,0.6741777658462524,-0.1385032683610916,0.16064558923244476
1783170489576078600,8.91507861328125,0.7372930645942688,-0.03614361211657524,0.18942971527576447
1783170489586148900,8.92514892578125,0.7802456021308899,0.07154610008001328,0.17999093234539032
1783170489596217600,8.935217529296875,0.7971017360687256,0.16219836473464966,0.1641947627067566
1783170489606287600,8.94528759765625,0.7948023080825806,0.21938921511173248,0.15897417068481445
1783170489616356600,8.955356689453126,0.7971553802490234,0.2760903239250183,0.1410972625017166
1783170489626426600,8.965426513671876,0.8186632990837097,0.32909494638442993,0.10415416210889816
1783170489636496600,8.97549658203125,0.8443453907966614,0.3848160207271576,0.06766718626022339
1783170489646565600,8.985565673828125,0.8649308085441589,0.46735110878944397,0.024270176887512207
1783170489656635600,8.9956357421875,0.8940591216087341,0.5405610203742981,-0.017855744808912277
1783170489666704600,9.00570458984375,0.9180182218551636,0.5285429954528809,-0.05385209619998932
1783170489676774700,9.015774658203124,0.9429736137390137,0.43743404746055603,-0.02431218884885311
1783170489686843600,9.02584375,0.96470046043396,0.28028279542922974,0.15990586578845978
1783170489696913700,9.03591357421875,1.0267560482025146,0.17414212226867676,0.24268247187137604
1783170489706982700,9.045982666015625,1.0708496570587158,0.26518571376800537,0.2986823618412018
1783170489717052700,9.056052734375,1.0827581882476807,0.272259920835495,0.33697766065597534
1783170489727121700,9.06612158203125,1.0866844654083252,0.26957544684410095,0.35904887318611145
1783170489737191700,9.076191650390625,1.0757057666778564,0.29812103509902954,0.38318923115730286
1783170489747260700,9.0862607421875,1.0263959169387817,0.2314072698354721,0.3671082854270935
1783170489757330700,9.09633056640625,0.9815205931663513,0.13899505138397217,0.3234991729259491
