time,seconds_elapsed,z,y,x
1783169799914841300,0.06884130859375,0.039758302153646945,0.03666588909626007,-0.04227302492093295
1783169799924911400,0.078911376953125,0.0771262020394206,0.05959259117543697,-0.02324997921679169
1783169799934981400,0.0889814453125,0.05194996746778488,0.08243453758060931,-0.019372324932692572
1783169799945051400,0.099051513671875,0.03917524156868458,0.11911445520222186,0.02153531165285967
1783169799955120400,0.109120361328125,0.021698329328000546,0.0859293939590454,0.06495324142575264
1783169799965190400,0.1191904296875,-0.012456745991110801,0.06437631832063198,0.08205484494748524
1783169799975260200,0.12926025390625,-0.01867956602871418,0.13456395326852796,0.10441240536919795
1783169799985330400,0.139330322265625,-0.05300210686922073,0.11921966914236545,0.06451956271622329
1783169799995400400,0.149400390625,-0.07088555408418178,0.0674468118071556,0.03454226627210155
1783169800005469400,0.159469482421875,-0.11808481989353894,0.0661924278318882,0.023648915406502782
1783169800015539500,0.16953955078125,-0.07145370936095714,0.06093114630281925,-0.0007619608158245683
1783169800025609200,0.179609130859375,-0.02757043623179197,0.06575871258974075,-0.047085695032821964
1783169800035679200,0.18967919921875,-0.038191491228342055,0.08051964386999606,-0.05205302598346025
1783169800045749500,0.19974951171875,-0.029792496195435524,0.0904693754762411,-0.06378276374111883
1783169800055818200,0.209818359375,-0.05885755489915609,0.07234685880839824,-0.0778137641784735
1783169800065888500,0.219888427734375,-0.08147942881286144,0.05359539658725261,-0.10452794890711084
1783169800075958300,0.229958251953125,-0.10279928021728992,0.05247895977795124,-0.0856018790377304
1783169800086028300,0.2400283203125,-0.041708559438586236,0.07274667178094386,-0.05686743139470927
1783169800096098300,0.250098388671875,-0.06485211913883686,0.08352233281731605,-0.04642314860401675
1783169800106168300,0.260168212890625,-0.04654956972897052,0.07080255197584628,-0.029255238380422814
1783169800116237300,0.2702373046875,-0.04775719195306301,0.07252981415987014,-0.04684930159421637
1783169800126307300,0.280307373046875,-0.05033142635524273,0.03756137663125991,-0.019106559269130227
1783169800136377300,0.29037744140625,-0.03761369134038686,0.03305295929610729,-0.0005812065545935184
1783169800146447400,0.300447265625,-0.0606087824806571,0.05067512522637844,-0.033410129570169374
1783169800156517400,0.310517333984375,-0.09488134669959544,0.0648719928830862,-0.011836942725488915
1783169800166586400,0.32058642578125,-0.06673427962362766,0.04280161537230014,-0.019044170690560712
1783169800176656100,0.33065625,-0.06068798519670963,0.03617605975270271,0.015975549500714985
1783169800186726400,0.340726318359375,-0.0366775795340538,0.05885317098498344,0.03207268868763931
1783169800196796400,0.35079638671875,-0.015981412985920904,0.10037409889698028,0.03914004239114001
1783169800206866200,0.3608662109375,0.024727029499411583,0.10216682753264904,0.04312625334993936
1783169800216935400,0.370935302734375,0.013587211325764655,0.08754384341835975,0.03259938857601955
1783169800227005200,0.381005126953125,-0.036463644522428514,0.11272972260117531,-0.002060311796981841
1783169800237075500,0.391075439453125,-0.08582184193134307,0.09341127414703368,0.0015711126410868019
1783169800247145500,0.4011455078125,-0.0996364322721958,0.08480945001840591,-0.030953685461916028
1783169800257215200,0.41121533203125,-0.07500117270946502,0.0709147801786661,-0.013871946551278233
1783169800267285200,0.42128515625,-0.09326777402311563,0.06777940476238727,-0.05023414912638254
1783169800277354200,0.431354248046875,-0.10667173773646355,0.05804360816776752,-0.05739434134564362
1783169800287424300,0.44142431640625,-0.07220569677203893,0.06058569386601448,-0.05662440728591755
1783169800297494500,0.45149462890625,-0.04245236354321241,0.028841479080915448,-0.058348847325192764
1783169800307564300,0.461564208984375,-0.04687222581207752,0.03657704176902771,-0.05428091289969161
1783169800317634300,0.47163427734375,-0.033570845690369604,0.059357613375782964,-0.066224247742258
1783169800327703300,0.481703369140625,0.029570962399244307,0.02764496277272701,-0.05151195050985552
1783169800337773300,0.491773193359375,0.00019318448454141616,0.01504442439675331,-0.03356837060549296
1783169800347843300,0.50184326171875,-0.08218962290883064,0.06591419541239738,-0.03586406206092797
1783169800357913300,0.511913330078125,-0.03142652713805437,0.08012333802878856,-0.04020673090773634
1783169800367983400,0.5219833984375,-0.025953356423974037,0.07453764685094356,-0.00556573523520492
1783169800378052400,0.53205224609375,-0.07814648499786854,0.07819500031471252,0.0022441804639063774
1783169800388122400,0.542122314453125,-0.07429068635255098,0.0981727894604206,0.016124803511984646
1783169800398192400,0.5521923828125,-0.06719283704608678,0.12161211723685264,0.0349020942941308
1783169800408262100,0.56226220703125,-0.05316606525927782,0.12225626035928726,-0.0014077113734558223
1783169800418332400,0.57233251953125,-0.03869038066118955,0.08840601320564746,-0.00912106222975999
1783169800428402400,0.58240234375,-0.033956337876617906,0.08043664176166057,-0.01590732483640313
1783169800438471400,0.592471435546875,-0.026944997809827325,0.07428513339459895,-0.06716825059410184
1783169800448541400,0.60254150390625,-0.017174422162771225,0.04656067564487457,-0.0671652914520353
1783169800458611200,0.612611083984375,-0.04017711208760738,0.06029167935550212,-0.07388009625766426
1783169800468681200,0.62268115234375,-0.059069151823222636,0.054608373022079465,-0.06128646254651248
1783169800478751500,0.63275146484375,-0.05572042591720819,0.06179916130900383,-0.03621467473004013
1783169800488820200,0.6428203125,-0.05499941816627979,0.07507306890189647,0.007784808657318353
1783169800498890500,0.652890380859375,-0.06656652184128761,0.07668225766420364,0.007228855274990201
1783169800508960300,0.662960205078125,-0.008063187207281589,0.12089315531253814,-0.0063742477396503084
1783169800519030300,0.6730302734375,-0.002783200977742672,0.11851473574340343,-0.0658127260656096
1783169800529100500,0.6831005859375,-0.010723930849134922,0.09544950197637081,-0.013710070520453154
1783169800539169300,0.693169189453125,-0.01063859065324068,0.08096855668127537,-0.030940972110815344
1783169800549239300,0.7032392578125,-0.018196458686888215,0.056773442101478576,0.02099497596477158
1783169800559309300,0.713309326171875,-0.010982874046266078,0.07435527602136134,0.031112730214837937
1783169800569379300,0.72337939453125,-0.01926817957162857,0.09776771579086779,0.0362203829516191
1783169800579449300,0.733449462890625,0.037274084122478957,0.07600538131594657,0.06593422442027368
1783169800589519400,0.743519287109375,0.06209931329935789,0.08025017927885054,0.020807837628526612
1783169800599588400,0.75358837890625,0.07071808856278658,0.06576338876485824,0.018826728547597302
1783169800609658400,0.763658447265625,0.08487433194816112,0.05078209273219108,-0.03641111061759293
1783169800619728400,0.773728271484375,0.09401537752002477,0.03266775937080383,-0.10009880735324696
1783169800629798400,0.78379833984375,0.12456044564843177,-0.013329437172412872,-0.17191828128667547
1783169800639868200,0.7938681640625,0.1224415537983179,-0.03944295259416103,-0.17094852293906732
1783169800649937400,0.8039375,0.09920710094422101,-0.009098083212971687,-0.18166996957017106
1783169800660007200,0.814007080078125,0.03472498416155576,-0.024021511578559872,-0.17342956263246015
1783169800670077400,0.824077392578125,-0.03434738302081823,-0.036975101175904274,-0.08903185348641127
1783169800680147500,0.8341474609375,-0.01886164459735155,-0.017083236747980117,-0.010770528203528374
1783169800690217200,0.84421728515625,0.006011515374481678,-0.014942717587947844,0.029848427633754906
1783169800700286500,0.854286376953125,-0.011833353395760058,0.009715922850370406,0.0674271572586149
1783169800710356200,0.864356201171875,0.016806173372268675,0.03138064216971397,0.10129685803139582
1783169800720426200,0.87442626953125,-0.022135843962430953,0.03512041321992874,0.11156442341515793
1783169800730496500,0.88449658203125,-0.01785042172819376,0.026548984229564664,0.13378182644750922
1783169800740566300,0.894566162109375,-0.01857493661046028,0.031651860326528544,0.06717592244390398
1783169800750635300,0.90463525390625,-0.06796469820141791,0.056385904088616365,0.02800822486085817
1783169800760705300,0.914705322265625,-0.06634498804509639,0.07198445523679256,0.00463461926439777
1783169800770775300,0.924775390625,-0.03194762840270996,0.06565583673715591,-0.017082542628236115
1783169800780845300,0.93484521484375,-0.02692833893597126,0.03210194218158722,-0.014741879519913344
1783169800790915300,0.944915283203125,-0.08014847247004508,0.056908466657996176,-0.07482497589234262
1783169800800985300,0.9549853515625,-0.06127133804261684,0.08369242868721484,-0.07583186964625492
1783169800811054300,0.965054443359375,-0.04082593138515949,0.06270809284746647,-0.09366079192869364
1783169800821124400,0.975124267578125,-0.018919220003485678,0.1075841764062643,-0.05467115432629362
1783169800831193600,0.985193603515625,-0.0014566285490989685,0.11240122129917145,-0.041835291090793904
1783169800841263900,0.995263916015625,-0.008038929548859595,0.12503157029151915,-0.06104501847345382
1783169800851334000,1.005333984375,0.01031184291690588,0.12343173387944698,-0.04451419144384563
1783169800861402600,1.015402587890625,0.050065176634490484,0.04881225396394729,-0.035353454790823156
1783169800871473000,1.025472900390625,0.019634967057406902,0.013187398353219032,-0.01846616074005142
1783169800881543000,1.03554296875,-0.047670390452444554,0.010386953979730605,-0.017975947804003953
1783169800891612700,1.04561279296875,-0.014182546870410442,-0.005386369213461876,0.018337602456938475
1783169800901683000,1.055682861328125,-0.0536155625924468,0.0033878888726234435,0.012796353209018707
1783169800911751700,1.065751708984375,-0.10524725789129734,0.03658580959737301,0.007059015133418142
1783169800921822000,1.075822021484375,-0.07529372591525316,0.06297405030727386,0.01326177876368165
1783169800931892000,1.08589208984375,-0.04012099798619747,0.07160042435526848,-0.0012043890873901545
1783169800941961700,1.095961669921875,-0.017858897295594214,0.05259235702455044,-0.03209273596182465
1783169800952031700,1.10603173828125,0.007927870389819144,0.03784720783531666,0.00034881343767046927
1783169800962100700,1.116100830078125,0.024036416886746882,-0.01833528263568878,-0.030925774541683493
1783169800972170800,1.126170654296875,-0.00875379981994629,-0.018732172998785972,-0.04231213308861479
1783169800982241000,1.136240966796875,-0.00739741677492857,0.021160276928544042,-0.0327367512200959
1783169800992310800,1.146310791015625,0.002616319978237152,0.07608195368349552,-0.04310154816694557
1783169801002380800,1.156380859375,-0.03068096946775913,0.09023381315469742,-0.0561768644478172
1783169801012449800,1.16644970703125,-0.028588381102681158,0.08894728047549724,-0.06374686131067574
1783169801022519800,1.176519775390625,-0.04198153116106987,0.09501227960288525,-0.06640252691861241
1783169801032589800,1.18658984375,-0.09252981513738631,0.09409282667040825,-0.06256477538663893
1783169801042659800,1.196659912109375,-0.08745938000530004,0.07570610610842704,-0.05240766637371853
1783169801052729900,1.206729736328125,-0.06164864692240953,0.10364625243544578,-0.005606386906001717
1783169801062798800,1.216798828125,-0.0489493243470788,0.11706395241320132,-0.021986882212106137
1783169801072868900,1.226868896484375,-0.06887012260854244,0.11131576415002345,-0.013556487393938004
1783169801082939000,1.23693896484375,-0.05570435156524181,0.10917524498999118,-0.020623484904412178
1783169801093008600,1.247008544921875,-0.035733576682209965,0.0862432822138071,-0.028873974844720214
1783169801103079000,1.257078857421875,-0.06139642572700977,0.05786708255708217,-0.05047713670255616
1783169801113147600,1.267147705078125,-0.120585696798563,0.062032970064878463,-0.0822065557773225
1783169801123218000,1.277218017578125,-0.117577454893291,0.08108487653732299,-0.08835433781733736
1783169801133288000,1.287287841796875,-0.053959845985472196,0.08449439271986484,-0.04419622980216518
1783169801143357700,1.297357666015625,-0.0628986469835043,0.09746960962712764,-0.029376590604614464
1783169801153427700,1.307427734375,-0.06021101533472538,0.10314940882921218,0.004850070379674434
1783169801163496700,1.31749658203125,-0.010690613101422787,0.08748656027317046,-0.0033630649586208162
1783169801173566700,1.327566650390625,0.012907412368059158,0.04201835604012012,0.018370006889197973
1783169801183637000,1.337636962890625,0.0064680269703269,-0.01094751047194004,0.041404790719039734
1783169801193706800,1.347706787109375,-0.03702566231936216,-0.0017938976794481276,-0.005037300047464668
1783169801203776800,1.35777685546875,-0.01658376279324293,-0.0010772738426923752,0.0036302462611347433
1783169801213845800,1.367845703125,-0.015599720191955565,0.0065963295251131055,0.026181082498934118
1783169801223915800,1.377915771484375,-0.015777999368309974,0.055288171979784966,0.01940868402086198
1783169801233985800,1.38798583984375,-0.0187809805765748,0.08158522727489471,0.014649050137307494
1783169801244055800,1.398055908203125,0.016261398971080778,0.10664134259819984,0.003220131090283394
1783169801254125800,1.408125732421875,0.034844226627051826,0.12596037557423115,0.0026712833021767437
1783169801264194800,1.41819482421875,0.04849602762162685,0.11803893492519855,0.010018686922919004
1783169801274264800,1.428264892578125,0.020474340490996838,0.07306114455759524,0.01147286778660491
1783169801284334800,1.4383349609375,-0.008109948958456516,0.05441022010147571,-0.015209935423079878
1783169801294404900,1.44840478515625,-0.034842765322327614,0.041328035688400266,-0.03451364296581596
1783169801304475000,1.458474853515625,-0.060361821982264516,0.06875730988383293,-0.032397911187168206
1783169801314545000,1.468544921875,-0.10657909101694822,0.03920739027261734,-0.04607952279811725
1783169801324614000,1.47861376953125,-0.09293810367733239,0.04660451478660106,-0.04861936174035072
1783169801334684000,1.488683837890625,-0.08517302263379097,0.05026245277225971,-0.05630712149767205
1783169801344753700,1.498753662109375,-0.08571282859891653,0.059065936952829357,-0.027052732500620184
1783169801354824000,1.508823974609375,-0.02981032411307096,0.03003448825776577,-0.002555858495272696
1783169801364894000,1.51889404296875,-0.016178689123690127,0.05194353772699833,0.0332167532893829
1783169801374962700,1.528962646484375,0.03607347616106271,0.06252046132087707,0.044400173142738635
1783169801385033000,1.539032958984375,0.01760726062208414,0.07732815435230732,0.04137620394537225
1783169801395102700,1.549102783203125,0.01839022769331932,0.08059037101864815,0.03326585312811658
1783169801405172700,1.5591728515625,0.06578735416233539,0.04562368705570698,0.022242519207298753
1783169801415243000,1.569242919921875,0.05231587817072868,0.01735153229534626,-0.000013316139299422502
1783169801425311700,1.579311767578125,0.006395546256005764,-0.002980477115511894,-0.02166260042749345
1783169801435382000,1.589382080078125,0.01612023693472147,-0.021023498806357382,-0.015884948607813566
1783169801445451800,1.59945166015625,0.035008185017108916,-0.017213585129380225,-0.020125234792381524
1783169801455521800,1.609521728515625,0.02069645880907774,0.021081950995326042,-0.00642853521015495
1783169801465591800,1.619591796875,0.01845510962307453,0.07941372845470905,0.0112631888249889
1783169801475660800,1.629660888671875,-0.003701777127385139,0.11338146450817585,-0.0063719461847096676
1783169801485730800,1.639730712890625,0.049349429580569266,0.10525018050074576,0.003652056234143674
1783169801495800800,1.64980078125,0.035030396848917005,0.0702612847059965,-0.02661253271875903
1783169801505870800,1.659870849609375,-0.03225830178707838,0.05856500169336795,-0.010735931814182548
1783169801515940900,1.66994091796875,-0.019210896426439285,0.034226679250597955,-0.01031947823408991
1783169801526009900,1.680009765625,0.0324731135815382,-0.0031739538609981536,0.02019912201249972
1783169801536080000,1.690079833984375,-0.020881459987163543,0.015688567519187926,0.024503851735405622
1783169801546149600,1.700149658203125,-0.04685352111160755,0.030303952848911284,0.002334543894790113
1783169801556220000,1.710219970703125,-0.07001637003421783,0.061445525565743446,0.026836368069890884
1783169801566290000,1.7202900390625,-0.09135024996399879,0.06545768381655216,0.01196311725527048
1783169801576359000,1.73035888671875,-0.051500470134615894,0.06278349617123603,0.017428798782639206
1783169801586429000,1.740428955078125,-0.028739772272109984,0.05348550647199154,-0.016627346206642687
1783169801596498700,1.750498779296875,-0.02053308494091034,0.056281859192252155,-0.010195851854421198
1783169801606568700,1.760568603515625,0.01492985810637474,0.03922258784174919,-0.018624913232028483
1783169801616639000,1.770638916015625,-0.011061492240428924,0.025198738664388654,-0.051559744307491925
1783169801626707700,1.780707763671875,0.006965747359395026,0.04248421998620033,-0.017272110383585094
1783169801636778000,1.790778076171875,0.012308569692075251,0.016775778234004973,-0.040461061861831696
1783169801646847700,1.80084765625,-0.032577450738847255,0.020734160470962524,-0.04782665872639045
1783169801656917800,1.810917724609375,-0.034169980627298355,0.018647417324781417,-0.01178306624693796
1783169801666987800,1.82098779296875,-0.0034057167902588844,0.03809095346331596,0.02618042491180822
1783169801677056800,1.831056884765625,0.006602759265899658,0.06649345660507679,0.020895050121098754
1783169801687126800,1.841126708984375,-0.03672638711184263,0.06928630219399928,0.03715821179100312
1783169801697196800,1.85119677734375,-0.045782384748756885,0.1018587844967842,0.028350937351305037
1783169801707266800,1.861266845703125,-0.03252922768294811,0.10467501096129417,-0.005297476220456883
1783169801717335800,1.871335693359375,0.0071843585461378095,0.09453414069712161,-0.029388080113008617
1783169801727405800,1.88140576171875,0.015225918443500994,0.06373334424197673,-0.05880269203991629
1783169801737475800,1.891475830078125,0.006956687270104885,0.0643190351754427,-0.06368534951494075
1783169801747545600,1.901545654296875,-0.043942894361913204,0.09275017988979815,-0.0712186858955305
1783169801757615900,1.911615966796875,-0.053554772315919395,0.12006430327296257,-0.0901411390357185
1783169801767684600,1.9216845703125,-0.02014379336237907,0.11183715767562388,-0.09626103755496442
1783169801777755000,1.9317548828125,-0.032981355364620685,0.09337503378987312,-0.08534431494693272
1783169801787825000,1.941824951171875,-0.06211977156549692,0.07919394822418689,-0.055263932587672024
1783169801797894700,1.951894775390625,-0.10544453402906656,0.05669219355881214,-0.031352119328128175
1783169801807965000,1.96196484375,-0.12022563131451607,0.07177928805351257,-0.00010206300183199345
1783169801818033700,1.97203369140625,-0.09071925858408213,0.06824293062090873,0.03473370632412843
1783169801828105000,1.98210498046875,-0.09518909747451543,0.06961889514923095,0.050300702423416076
1783169801838175000,1.992175048828125,-0.07200549802482127,0.10686579900383948,0.022704008372360838
1783169801848245000,2.002244873046875,-0.050776832035183905,0.11762509342730045,0.005122010055696591
1783169801858315000,2.01231494140625,-0.009091068950295447,0.08229542137086392,0.04231115584108047
1783169801868384000,2.022384033203125,-0.008915712383389472,0.0539665679872036,0.053804061768716195
1783169801878454000,2.0324541015625,-0.022867665368318555,0.09265782543122768,-0.0038096853481139987
1783169801888524000,2.04252392578125,0.013140052080154419,0.07877016985416412,-0.04868687401860952
1783169801898593800,2.05259375,-0.022888708156347273,0.05848258410692215,-0.08678456774996593
1783169801908664000,2.0626640625,-0.09278875833451747,0.07679390134513378,-0.11767201957525684
1783169801918732800,2.07273291015625,-0.10861848789006472,0.0816337425917387,-0.12265168941766023
1783169801928803000,2.082802978515625,-0.0748059423983097,0.035541853502392765,-0.10777283084616064
1783169801938873000,2.092873046875,-0.06385170992463826,0.030991350591182708,-0.03771253033867106
1783169801948942800,2.10294287109375,-0.05698182415515184,0.06577215659320354,0.014189378469996154
1783169801959012900,2.113012939453125,-0.044944472619891165,0.1205202303469181,0.05058770267125219
1783169801969081900,2.123081787109375,-0.014571546187996864,0.12682722153663634,0.09053321622638032
1783169801979152000,2.13315185546875,-0.013396072667837142,0.15288228476941584,0.08601698091095313
1783169801989222100,2.14322216796875,-0.03947393225431442,0.13027648520767687,0.03807962835170328
1783169801999292000,2.1532919921875,-0.05257072971463203,0.09477204110622406,-0.01670196407912299
1783169802009362000,2.16336181640625,-0.042299803330004215,0.0362678296893835,-0.05236167180752382
1783169802019431000,2.173430908203125,-0.06619739626795053,-0.008510054191946982,-0.08177885015085339
1783169802029501000,2.1835009765625,-0.017715981693565846,-0.020910101559758185,-0.086439060514234
1783169802039571000,2.193571044921875,-0.041808512681722636,0.008390227204561233,-0.07207282763998955
1783169802049641000,2.203640869140625,-0.08002280026376248,0.06077975513339042,-0.07670414070244878
1783169802059711000,2.2137109375,-0.039166473740339276,0.06178454826176166,-0.002193418391048908
1783169802069780000,2.223780029296875,-0.004413140267133712,0.07057809557020664,-0.0010687069437466561
1783169802079850000,2.23385009765625,-0.038029870925843715,0.06913257293701172,0.025677973548695443
1783169802089920000,2.243919921875,-0.031028759992122647,0.04447393249869346,0.08554634945821017
1783169802099990000,2.253989990234375,0.004931611183285713,0.07500351079702376,0.09397807771693914
1783169802110060000,2.26406005859375,-0.007261515435576438,0.10147650718092918,0.05439823740273714
1783169802120128800,2.274128662109375,-0.029358780953288078,0.09878010770380496,-0.0009402765247970819
1783169802130199000,2.284198974609375,-0.012019231356680392,0.062143444702029225,-0.010313633015193044
1783169802140269000,2.29426904296875,-0.011798282082378864,0.02698503755927086,-0.06365640654824674
1783169802150338800,2.3043388671875,-0.04090776444971561,0.020374094986915586,-0.08514607982793822
1783169802160409000,2.3144091796875,-0.049241000770032406,0.05267886626422405,-0.08746853142613545
1783169802170477800,2.324477783203125,-0.041433249628543854,0.046913142344355584,-0.057754014104045924
1783169802180547800,2.3345478515625,-0.044564241130650044,0.07634323496818542,-0.03875515299309045
1783169802190618000,2.3446181640625,-0.0882584214285016,0.12358721670210361,-0.03587713160505518
1783169802200687900,2.35468798828125,-0.09897124636173248,0.12539222029745578,-0.019362342394795267
1783169802210757000,2.364757080078125,-0.0495136802315712,0.13036883966624735,0.03413578609675169
1783169802220827000,2.374826904296875,-0.015908347749710082,0.10528992798924446,0.0727894149441272
1783169802230897000,2.38489697265625,-0.044804187366366384,0.09686813660264014,0.06574760667383671
1783169802240967000,2.394966796875,-0.02691869432479143,0.0696732556849718,0.05067832183046266
1783169802251037000,2.405036865234375,-0.006258768133819103,0.06212474000155925,0.013851031627412885
1783169802261106000,2.41510595703125,-0.060112523396313185,0.05806757356524467,-0.018924243238475174
1783169802271176000,2.425176025390625,-0.05979863514155149,0.030854572468996047,-0.01999168980689719
1783169802281246000,2.435245849609375,-0.0639767976090312,0.025766309419274328,-0.043584929503407324
1783169802291316000,2.44531591796875,-0.05806757356524467,0.05747428384721279,-0.022509170786850153
1783169802301386000,2.455385986328125,-0.040407413712143896,0.09306406814455985,-0.01819068653322756
1783169802311455000,2.465455078125,-0.05675152253061533,0.102028880366683,0.010772720160614698
1783169802321524700,2.475524658203125,-0.017153379374742508,0.06988952878415584,-0.00011100436011329293
1783169802331595000,2.485594970703125,-0.00014086977541446686,0.04084872773885727,0.006068469726108014
1783169802341665000,2.4956650390625,-0.008990531185269355,0.031073768177628514,0.0044917036623694
1783169802351734800,2.50573486328125,0.004685819728672504,0.0037777649730443954,0.009561828267201781
1783169802361804000,2.515803955078125,0.006570026040077209,-0.010661094745993614,0.02425513767134398
1783169802371873800,2.525873779296875,0.005535130034387111,-0.005478139150142669,0.041233799799997355
1783169802381944000,2.535944091796875,-0.01625175435990095,0.024420155507326124,0.026275829843990503
1783169802392014000,2.54601416015625,-0.03016951281428337,0.08540916947722435,-0.0044646512586623424
1783169802402083800,2.556083740234375,0.014067396058142185,0.08495441144704818,-0.003945029565040022
1783169802412153000,2.566153076171875,0.023886779282987117,0.0864046102553606,-0.024667079473100602
1783169802422222800,2.576222900390625,0.010818623395264147,0.06169336284697056,-0.042251123616378755
1783169802432292900,2.58629296875,0.05646539906561374,0.04979132812917232,-0.033731534411106254
1783169802442363100,2.596363037109375,0.014394436055421829,0.03206394825875759,-0.025621329724323003
1783169802452433000,2.606432861328125,-0.02134557036757469,0.01695405741035938,-0.03186409657141193
1783169802462502000,2.616501953125,-0.03993979620039463,0.036923078727722165,-0.030713593095727264
1783169802472572200,2.626572265625,-0.04352729929834604,0.07761983077526093,-0.03399802159387618
1783169802482642000,2.636641845703125,-0.06485650305300951,0.07170213116407394,-0.043916773539967834
1783169802492712000,2.6467119140625,-0.059895081253349775,0.08653028246164321,-0.02543722359538078
1783169802502781000,2.656781005859375,-0.06871873143911361,0.08649462662637233,-0.0002878404980525374
1783169802512851000,2.666850830078125,-0.03986088574528694,0.08279109593331814,0.009042973758559673
1783169802522921000,2.6769208984375,-0.015278525413572787,0.06261106221377849,0.03864303438812494
1783169802532991000,2.686990966796875,-0.0011570610806345939,0.08059154006242751,0.018205975433904675
1783169802543061000,2.69706103515625,-0.007557868033647537,0.06760521723926068,0.009855568783078342
1783169802553130000,2.7071298828125,-0.006016483810544013,0.04574351404309272,-0.01325394251709804
1783169802563200000,2.717199951171875,0.001403144796192646,0.05235504113733768,-0.03167807248001918
1783169802573270000,2.72727001953125,0.0022328736186027526,0.04663900157809257,-0.04055542561439797
1783169802583340000,2.737340087890625,0.0021738369077444076,0.06998597489595412,-0.06333510217200965
1783169802593410000,2.74741015625,0.022766543081402777,0.058688335812091826,-0.01925530182374641
1783169802603478800,2.757478759765625,0.023686872796714303,0.05186287370622158,-0.020753504492249338
1783169802613549000,2.767549072265625,0.034978958922624585,0.03126315326988697,-0.008072630889061837
1783169802623619000,2.777619140625,0.06241816999018192,0.03149053228497505,-0.004210128508321941
1783169802633688800,2.787688720703125,0.05678893193155527,0.04007014458179474,-0.008870101409684866
1783169802643759000,2.797759033203125,0.02305705046057701,0.03393909448087215,-0.016748707563988864
1783169802653827800,2.807827880859375,-0.021356676283478735,0.018411270481348038,-0.04069910840140655
1783169802663898000,2.817898193359375,-0.04476093274652958,0.010034487280249594,-0.028495277725439517
1783169802673968000,2.827968017578125,-0.037459962083399294,-0.011487608698010444,-0.009139785196539013
1783169802684038000,2.838037841796875,-0.004744564178586006,0.007236965516209602,0.010376067259535193
1783169802694107100,2.848107177734375,0.0042108956933021545,0.035876200023293496,0.0662913398954086
1783169802704177000,2.858177001953125,0.008752046254277229,0.06764028855264187,0.0802467634790577
1783169802714247000,2.868246826171875,0.015793196937441824,0.10315350048243999,0.0657249016516842
1783169802724317200,2.878317138671875,-0.001983575032651424,0.12439736404120921,0.047814730826579034
1783169802734387000,2.888386962890625,-0.01547755511701107,0.09803191968500613,-0.009883552768547087
1783169802744456000,2.8984560546875,-0.009437982691824436,0.05000643218457698,-0.04410455119702965
1783169802754526000,2.90852587890625,-0.0403048301205039,0.06357026263475418,-0.06867067277999594
1783169802764596000,2.918595947265625,-0.06375847868323326,0.05329904398918152,-0.05824746017679572
1783169802774666000,2.928666015625,-0.07351765615344047,0.06202011058330536,-0.07225605698609724
1783169802784736000,2.938736083984375,-0.0922778862029314,0.07144318796694278,-0.07507896891972049
1783169802794805000,2.948804931640625,-0.06534457883089781,0.07882160778045653,-0.06284160130033269
1783169802804875000,2.958875,-0.03715951783210039,0.09172785110473632,-0.03740865202127024
1783169802814945000,2.968945068359375,-0.044974575497210026,0.06756196261942386,-0.01677250856468454
1783169802825015000,2.97901513671875,-0.0701160310164094,0.07336100428700447,0.006371361662819981
1783169802835084300,2.989084228515625,-0.057386313302814955,0.10110358221530914,-0.0018319646675139664
1783169802845153300,2.9991533203125,-0.012718904058635233,0.08186930491328238,0.0038094570192508397
1783169802855223300,3.009223388671875,0.01903641664236784,0.0864700767070055,0.0011842413485050201
1783169802865293300,3.019293212890625,0.012043196754157543,0.08264379641711711,0.005033025731146335
1783169802875363300,3.02936328125,-0.0007817980274558067,0.05742986018359661,-0.008220514927152544
1783169802885433000,3.03943310546875,-0.02961567832380533,0.05124854120016098,-0.004018368795886636
1783169802895502300,3.04950244140625,-0.02964958059340715,0.036214638197422024,0.012059782562777399
1783169802905572400,3.059572265625,-0.02482727500349283,0.0088578447163105,0.021870489290822297
1783169802915642400,3.069642333984375,-0.038759354244172574,0.01867079820036888,0.002286046844255179
1783169802925712400,3.07971240234375,-0.07636895393133163,0.041088966235518457,0.02203990930728614
1783169802935781000,3.089781005859375,-0.0520122190490365,0.0457400069117546,0.014716471084021032
1783169802945851400,3.099851318359375,-0.017881693649291992,0.07514964126944541,0.012290321649331599
1783169802955921400,3.10992138671875,-0.01911181996613741,0.09807926595807075,0.00451992510985583
1783169802965991200,3.1199912109375,-0.012744915282726288,0.10728197858929633,-0.008228789565153419
1783169802976061400,3.1300615234375,0.005414718525111675,0.07961538850665092,-0.0019962335848249494
1783169802986130200,3.140130126953125,0.01894523122757673,0.06672784988284111,-0.003460442652180791
1783169802996200400,3.150200439453125,-0.031819910369813444,0.05946574992537498,-0.04109868391193449
1783169803006270500,3.1602705078125,-0.03095598701685667,0.04173778553307056,-0.05294307015836239
1783169803016340200,3.17034033203125,-0.025514672745764255,0.01368073482811451,-0.04922120009101927
1783169803026409500,3.180409423828125,-0.035173020190000535,0.007294833183288574,-0.0423854723194614
1783169803036479200,3.190479248046875,-0.06605126579552889,0.03769873927533626,-0.03995999873820692
1783169803046549200,3.20054931640625,-0.06391717637628316,0.0747580116033554,-0.03419535253057256
1783169803056619500,3.21061962890625,-0.0042807460591197015,0.09054185619056224,-0.020114348072186112
1783169803066689300,3.220689208984375,0.02319382858276367,0.026400515669584273,-0.0007604447121731937
1783169803076758300,3.23075830078125,-0.010011983187496661,0.02988543517589569,0.015099022394511847
1783169803086828300,3.240828369140625,0.022225568072497842,0.04505144012570381,0.019438147577363996
1783169803096898300,3.250898193359375,0.04728080661296844,0.02057575503885746,0.04452080384772271
1783169803106968300,3.26096826171875,0.06801321351826191,0.03674187694191933,0.0023443163701333102
1783169803117038300,3.271038330078125,0.02675824306607246,0.04363923524022102,0.0026226035885512826
1783169803127107300,3.281107421875,0.02575958741754293,0.0402764808088541,0.023484135032538322
1783169803137177300,3.29117724609375,0.0471387677937746,0.03768938692510128,0.020466358113940805
1783169803147247400,3.301247314453125,0.031048049214482305,0.059306175449490545,-0.0019587511186487973
1783169803157317400,3.3113173828125,-0.011599836900830269,0.06628712037801743,-0.003993124756775796
1783169803167387100,3.32138720703125,-0.05358809006363153,0.07715396682918071,0.0004472688434645533
1783169803177456400,3.331456298828125,-0.04568389281034469,0.08241174122691154,-0.025501831530500202
1783169803187526100,3.341526123046875,-0.05164104764908552,0.050288756257295605,-0.02740961964689195
1783169803197596400,3.351596435546875,-0.07867109339386225,0.06275485459864139,-0.028463256885670123
1783169803207666400,3.36166650390625,-0.05947510227560997,0.05880465566813945,-0.04920492480965331
1783169803217735200,3.371735107421875,-0.054689037042856214,0.0658130731254816,-0.04379880971610546
1783169803227805400,3.381805419921875,-0.03587795358896255,0.08370937982201576,-0.02662137361234054
1783169803237875200,3.391875244140625,-0.0315887319624424,0.08329495380222797,-0.04761999370576814
1783169803247945200,3.4019453125,-0.008578443253040312,0.12302432212233542,-0.05270158955268561
1783169803258015500,3.412015380859375,0.03241816852390766,0.09509586623311042,-0.020054452844802288
1783169803268084200,3.422084228515625,0.025815993779897687,0.08065174581706523,-0.005355645281635225
1783169803278154500,3.432154541015625,0.00855856950879097,0.07275602413117885,0.003328925227001309
1783169803288224300,3.442224365234375,0.017635609933733937,0.0495265397131443,0.010416673264559358
1783169803298294300,3.452294189453125,0.010956278300285338,0.05309095419645309,-0.0027056239631958303
1783169803308364300,3.4623642578125,0.07593436190634965,0.03645429217219352,-0.016864205436129123
1783169803318433300,3.472433349609375,0.0701613314628601,0.002766542103886604,-0.008424056408926845
1783169803328503300,3.48250341796875,0.028053543573617935,-0.01677811632156372,-0.019183076837752014
1783169803338573300,3.4925732421875,-0.018532851034402845,-0.01993044287264347,0.02473632705071941
1783169803348643300,3.502643310546875,-0.033623452660441394,0.0005278232663869858,0.042054961723461744
1783169803358712300,3.51271240234375,0.005504734896123409,0.03390753029882908,0.040613494210876525
1783169803368782300,3.5227822265625,-0.01836012481600046,0.06446867277920246,0.00988722429666668
1783169803378852400,3.532852294921875,-0.04107230736166238,0.0658954907119274,-0.03829045809078961
1783169803388922000,3.542922119140625,-0.027803368204832077,0.0452566073089838,-0.07598720633843913
1783169803398992400,3.552992431640625,-0.02130465383529663,0.01745733075737953,-0.052577451716363424
1783169803409061000,3.56306103515625,-0.0698176325917244,0.027813889598846436,-0.05039703893736004
1783169803419131400,3.57313134765625,-0.07164601706266403,0.04391103791892528,-0.0035450704620219767
1783169803429201400,3.583201416015625,-0.012144026780128478,0.07793079642057418,0.0030511129326187074
1783169803439271200,3.593271240234375,-0.009797463653981686,0.09324117827713489,0.007599643082451075
1783169803449341200,3.603341064453125,0.0048012628018856045,0.11553718123733997,0.014556038091611117
1783169803459410200,3.61341015625,0.01083119061589241,0.07389467277228831,-0.010417915373574942
1783169803469480200,3.623480224609375,-0.021670272277295587,0.07074468430876732,0.00348413405502215
1783169803479550500,3.633550537109375,-0.034063597643375396,0.06589958236515521,-0.052930082812625914
1783169803489620200,3.6436201171875,-0.042595279145240784,0.0818079301148653,-0.04271136153927073
1783169803499689200,3.653689208984375,-0.027144612035155294,0.09308686449825763,-0.05617715670876205
1783169803509759200,3.66375927734375,-0.048285892002284524,0.08653203602731227,-0.05405762553783133
1783169803519829200,3.673829345703125,-0.02497808165103197,0.08197861050665378,-0.042164614376705135
1783169803529899300,3.683899169921875,-0.021499591885507107,0.035165421405434605,-0.04103732737982645
1783169803539969300,3.69396923828125,-0.0006549567773938179,0.010241992551088333,-0.01942028312711045
1783169803550038300,3.704038330078125,0.005056991128623485,0.011995558220148085,-0.009821830910257994
1783169803560108300,3.7141083984375,-0.008923603428900242,0.026291210076212882,-0.013562990199960767
1783169803570178300,3.72417822265625,-0.004165595246851444,0.047158641538023946,-0.007025131130125374
1783169803580248300,3.734248291015625,0.0027642040163278576,0.10121697946190833,0.002268054529838264
1783169803590317300,3.7443173828125,0.030641514240205288,0.0861778157621622,-0.01624021005257964
1783169803600387300,3.75438720703125,0.0052586511805653565,0.0656213499456644,-0.012673146954458207
1783169803610457300,3.764457275390625,-0.01344020407050848,0.07074293074309826,-0.037951490193698555
1783169803620527400,3.77452734375,0.0018766075268387794,0.05476268680095672,-0.019452468363661317
1783169803630597400,3.784597412109375,-0.025062252803146837,0.05092763868272304,-0.021939992596767842
1783169803640666400,3.794666259765625,-0.02259615495055914,0.024749825853109357,-0.017104151671845466
1783169803650736400,3.804736328125,-0.03240267869383096,0.025403905847668645,-0.013257285251654684
1783169803660806400,3.814806396484375,-0.046395255950093264,0.040625440376996995,-0.013954528534505515
1783169803670876200,3.824876220703125,-0.033336452412605286,0.04037409596443176,-0.0011933197041042148
1783169803680946400,3.834946533203125,-0.06304536197781563,0.03300269041359424,0.010886957657430321
1783169803691015200,3.84501513671875,-0.07189034721255302,0.06128419752418995,0.020280443620402364
1783169803701085400,3.85508544921875,-0.035007015973329544,0.06612520781457423,0.030499585018865762
1783169803711155500,3.865155517578125,-0.019344167417287825,0.10071604420244692,0.028965982243418693
1783169803721225200,3.87522509765625,-0.027646131816506384,0.1010527288109064,0.0015952698348090052
1783169803731294500,3.88529443359375,-0.011628186212480067,0.08063830181360244,-0.030337581123877314
1783169803741364200,3.8953642578125,-0.03509966269284487,0.04388590347766876,-0.03187122043194249
1783169803751434200,3.905434326171875,-0.028773090019822117,0.0163999306589365,-0.04041347812674939
1783169803761504500,3.91550439453125,-0.014355857610702514,0.0414355877161026,-0.07121487737009301
1783169803771574300,3.92557421875,-0.019117957445979116,0.043023733690381046,-0.034011812657210976
1783169803781643300,3.935643310546875,-0.05107289237231016,0.04220189591348171,-0.015948058705590663
1783169803791713300,3.94571337890625,-0.07516717692613602,0.04057926314771175,0.012520550208631902
1783169803801783300,3.955783203125,-0.027127076378464697,0.05647708950340748,0.03139255180321634
1783169803811853300,3.965853271484375,0.0114960842654109,0.06392857455313206,0.00945447716889903
1783169803821923300,3.97592333984375,-0.00959375777542591,0.08205693643987179,0.0014563545544631778
1783169803831992300,3.985992431640625,-0.029124095414578912,0.11690087080597877,0.004050079108402133
1783169803842062600,3.9960625,-0.024259411987662315,0.11887597027122973,-0.0003697831604629755
1783169803852132600,4.006132568359375,-0.03155950586795807,0.09847031110227107,-0.009843969676829874
1783169803862202400,4.016202392578125,-0.04220218817442655,0.06740414170920848,-0.014855075837112963
1783169803872271600,4.026271728515625,-0.08722878611981869,0.02923895396590233,-0.021123634712584317
1783169803882341400,4.03634130859375,-0.09059154055118561,0.025744682109355925,0.011203585858549922
1783169803892411400,4.046411376953125,-0.07789104893207549,0.038974166038632393,0.007529208194743842
1783169803902481700,4.056481689453125,-0.08701338980346918,0.05016133048534393,0.027516112228669225
1783169803912550400,4.06655029296875,-0.0659460518553853,0.10379238290786742,0.02396558014024049
1783169803922620400,4.076620361328125,-0.02877922749966383,0.11276537843644618,0.022347039027698336
1783169803932690400,4.0866904296875,0.012190204009413718,0.08773673564195632,-0.005204181046970189
1783169803942760400,4.096760498046875,-0.0033989947885274883,0.050775078469514845,-0.022274046856723725
1783169803952830500,4.10683056640625,-0.042080607621371745,0.028123101678490636,-0.027173838129639624
1783169803962899500,4.1168994140625,-0.047454701875150204,0.04358429018259048,-0.030404399282392112
1783169803972969500,4.126969482421875,-0.06513853486478328,0.06294540873467921,-0.030819519421923902
1783169803983039500,4.13703955078125,-0.027202479702234265,0.08821136741638183,-0.006367470938991755
1783169803993109500,4.147109619140625,0.023168401880562305,0.11453180358707904,0.025437844649888575
1783169804003179500,4.157179443359375,0.05018792623132467,0.1055582235366106,0.03959783262861892
1783169804013248500,4.16724853515625,0.03555091359168291,0.091894439843297,0.05192950920164585
1783169804023318500,4.177318603515625,0.03690232820063829,0.060895490467548365,0.03365877970214933
1783169804033388300,4.18738818359375,0.026650398777425286,0.06185410636663437,0.018122991591878235
1783169804043458600,4.19745849609375,0.004931611183285713,0.0303992299169302,-0.002477569094672799
1783169804053527300,4.20752734375,-0.013946984548866748,0.024008652096986768,-0.007682024136278778
1783169804063597600,4.21759765625,-0.05766629928797483,0.003847907599806785,-0.01178098388770595
1783169804073667600,4.22766748046875,-0.034786358959972855,0.012578326544165611,0.02379837034717202
1783169804083737300,4.2377373046875,-0.011928922724723815,0.051801498907804486,0.03578826601151377
1783169804093807400,4.247807373046875,0.002898351790010929,0.08229366780519486,0.00884893075749278
1783169804103876400,4.25787646484375,-0.03365910849571228,0.08120821065604686,-0.017070285934861748
1783169804113946400,4.2679462890625,-0.03502396710813045,0.06082300975322723,-0.04343229622496292
1783169804124016600,4.2780166015625,-0.016557751569151877,0.03396422892212868,-0.04613645888343453
1783169804134086400,4.28808642578125,-0.03451367949843406,0.04347556911110878,-0.03834047124497592
1783169804144155400,4.2981552734375,-0.007694938416779041,0.03254617881774902,-0.010134495322313159
1783169804154225700,4.3082255859375,0.05024637842029333,0.017365560820698737,0.02941436533173546
1783169804164295400,4.31829541015625,0.0711158557087183,0.0490559995919466,0.045675124981999396
1783169804174365400,4.328365478515625,0.09330839829444884,0.05412964959442615,0.07620028283353894
1783169804184435500,4.338435546875,0.06994535062462091,0.05764028806388378,0.09813523392900823
1783169804194504400,4.34850439453125,0.05231821625828743,0.053524669438600535,0.0966032385887578
1783169804204574500,4.358574462890625,-0.00006955810487270355,0.04557400269508362,0.04263712725928053
1783169804214644500,4.36864453125,-0.05080138195455074,0.03509820138812065,0.014809446597099303
1783169804224714500,4.378714599609375,-0.0038841479569673536,0.0003758475750684738,0.0005529942402616143
1783169804234783500,4.388783447265625,-0.023567630331218243,-0.007528057417273521,-0.032004783683735875
1783169804244853500,4.398853515625,-0.06805792944282293,0.012007248657941817,-0.08121409240756183
1783169804254923500,4.408923583984375,-0.05057721780985593,0.028946108499169346,-0.07718251707023009
1783169804264993500,4.41899365234375,-0.04487082286179066,0.0530208115696907,-0.0543021200845018
1783169804275063600,4.4290634765625,-0.014606325240433215,0.056906713092327116,0.002804408162552863
1783169804285132300,4.43913232421875,0.01687777730375528,0.07854805153608321,0.015019837944768369
1783169804295202600,4.44920263671875,0.02167757880091667,0.09204583101272583,0.0330020510927774
1783169804305272600,4.4592724609375,0.034741643035411836,0.10060498504340648,0.07411001428971066
1783169804315342300,4.46934228515625,0.0413289124712348,0.06647884355783462,0.013435874955262987
1783169804325411600,4.47941162109375,-0.016312836897373197,0.05146130716800689,-0.0056834707302041345
1783169804335481300,4.4894814453125,-0.017367022125422953,0.04624912547767162,-0.041628863532189274
1783169804345551600,4.499551513671875,-0.013503916956484317,0.03859247324466705,-0.04512382950847968
1783169804355621600,4.50962158203125,0.02467617609500885,0.04025251541137695,-0.028386593186575916
1783169804365691400,4.51969140625,0.05407762714624405,0.056989130678772926,-0.036403603164572265
1783169804375760600,4.5297607421875,0.041356092739105225,0.06040566112399101,-0.0230780841154512
1783169804385830400,4.539830322265625,0.02957826892286539,0.0480973836928606,0.027753546846890822
1783169804395900400,4.549900390625,0.013627251075208187,0.05286474422514438,0.02074689208837226
1783169804405970700,4.559970703125,0.017221768435835838,0.048644496181607245,0.031767029405105854
1783169804416039400,4.570039306640625,-0.034600480999052524,0.07250000354349613,0.015707582746911794
1783169804426109400,4.580109375,-0.0384969039157033,0.07339373751282692,-0.015632526483014227
1783169804436179500,4.590179443359375,-0.07385755563229322,0.06604045214056968,-0.00515221339771524
1783169804446249500,4.60024951171875,-0.10889672030955552,0.07497253113687039,-0.03352136225914582
1783169804456319500,4.610319580078125,-0.09960048417598008,0.08482581663131714,-0.04037141081700101
1783169804466388500,4.620388427734375,-0.07200520576387644,0.08877250843048096,-0.05297348356293514
1783169804476458500,4.63045849609375,-0.03555208263546228,0.10502747766077518,-0.07810766909113154
1783169804486528500,4.640528564453125,-0.0003264554753899574,0.07090601235032082,-0.05905705952662974
1783169804496598500,4.6505986328125,-0.015821546249091625,0.051149172478914255,-0.07421499076783657
1783169804506667300,4.660667236328125,-0.034467502269148825,0.063085693988204,-0.05853330964716151
1783169804516737500,4.670737548828125,0.003085398794710636,0.04554828373193741,-0.013479823694843797
1783169804526807600,4.6808076171875,0.007893968120217323,0.04468786751031875,0.022125742693524807
1783169804536877300,4.690877197265625,-0.010115735822916031,0.03946808703541756,0.037790929337125266
1783169804546947600,4.700947509765625,0.005987549977004528,0.04983516727089882,0.035752719774097205
1783169804557016300,4.711016357421875,0.050936406511068344,0.07407470551431179,0.017265388381853698
1783169804567086300,4.72108642578125,0.022232582335174084,0.03626139994859695,0.028975973914470522
1783169804577156600,4.731156494140625,-0.0076338558793067925,0.0288391409933567,0.004553498585894704
1783169804587226400,4.741226318359375,0.026656536257266997,0.05460018971562385,0.016345971981994806
1783169804597295600,4.751295654296875,0.009576514379680157,0.08673720321059226,-0.01023631172897294
1783169804607365400,4.761365478515625,-0.0011997311785817146,0.054338323909044264,-0.04102616666499525
1783169804617435400,4.771435302734375,-0.06414835478365422,-0.0043622868627309795,-0.03716910764435306
1783169804627505700,4.781505615234375,-0.01954611973017454,0.023795886129140853,-0.020653898308984935
1783169804637574400,4.791574462890625,-0.005584814395010471,0.06293138020932675,-0.04596219829507172
1783169804647644400,4.80164453125,-0.012080021633207797,0.0589683217972517,-0.03532084942916408
1783169804657714400,4.81171435546875,-0.040420273193717,0.05586743317246437,-0.003798698163218796
1783169804667784400,4.821784423828125,-0.01763473315089941,0.09275660963058471,-0.0030052096979692575
1783169804677854500,4.8318544921875,0.03409720765203237,0.08725918125808238,-0.009827438667137174
1783169804687923500,4.84192333984375,0.052722705405950546,0.0492301871150732,-0.018796525205578653
1783169804697993500,4.851993408203125,0.016880115391314027,0.0064256491333246225,-0.03255235283020884
1783169804708063500,4.8620634765625,0.019116788402199745,0.03120820821225643,-0.047555404036957766
1783169804718133500,4.872133544921875,0.014040215790271758,0.019970774883031842,-0.04179190860679373
1783169804728202500,4.882202392578125,0.01572422335445881,0.061008303192257876,-0.02955477844942361
1783169804738272500,4.8922724609375,0.011733400152623653,0.04587327790260315,-0.029857451190426945
1783169804748342500,4.902342529296875,-0.017745792309939862,0.028097382715344427,0.007383790108375251
1783169804758412300,4.912412353515625,0.022358839063346386,0.0245300456225872,0.013311481390614062
1783169804768482600,4.922482666015625,0.02123188086003065,0.028435236367583272,-0.009884064225200563
1783169804778551600,4.932551513671875,0.01096972230374813,0.060596215260028834,-0.039071397601719945
1783169804788621300,4.942621337890625,0.04023381071090698,0.034192192459106444,-0.06406115142423659
1783169804798691600,4.952691650390625,0.019319325236976145,0.011088380247354507,-0.03951307695461437
1783169804808761300,4.96276123046875,0.0030552959173917767,0.0105178868830204,-0.016474365868326277
1783169804818830600,4.97283056640625,-0.011502514006197452,0.056548985695838924,0.01450509335566312
1783169804828899600,4.982899658203125,0.0323117855399847,0.091894439843297,0.019812131988909094
1783169804838969600,4.992969482421875,0.04878624273985624,0.09506547109484673,0.03063473743954673
1783169804849040000,5.003039794921875,0.024157997439801692,0.1032838488638401,0.025412965936958787
1783169804859109600,5.013109619140625,0.022069208467006683,0.08529635675251483,-0.008915383589826523
1783169804869179000,5.023178955078125,0.009580313771963118,0.058795887839794156,-0.0016825097268447279
1783169804879248600,5.03324853515625,-0.018600947834551334,0.050932314857840534,-0.012750559572223574
1783169804889318700,5.043318603515625,-0.05110971725136041,0.04946048873960972,-0.030687618404254314
1783169804899388700,5.053388671875,-0.050663434788584705,0.07346855631470679,-0.04492163973357528
1783169804909457700,5.063457763671875,-0.0637087943226099,0.07103986786305903,-0.050516098739765584
1783169804919527700,5.073527587890625,-0.08156009283363819,0.09213526286184787,-0.06419168246872722
1783169804929597700,5.08359765625,-0.06909340997040271,0.08299918572604656,-0.06697734939819201
1783169804939667700,5.093667724609375,-0.050342240010201926,0.028575521621108053,-0.055384179700165986
1783169804949737000,5.103737060546875,-0.039104222159087654,0.012440963900089263,-0.03420258598895743
1783169804959806700,5.113806640625,-0.027973756335675715,0.007746668604016304,-0.007878441757522524
1783169804969876700,5.123876708984375,0.0022159224838018414,0.022580080598592758,-0.003338076647836715
1783169804979946500,5.133946533203125,0.020687106458842752,0.050824178308248515,0.007758048514556139
1783169804990016800,5.144016845703125,0.011453121906518935,0.05207447063028812,0.027930136389657852
1783169805000085800,5.154085693359375,0.007142857491970062,0.08012392255067825,0.00627873320961371
1783169805010155800,5.16415576171875,0.003359247300028801,0.10103343958854674,-0.008823102196492254
1783169805020225800,5.174225830078125,0.01905073742866516,0.07647942856848239,-0.0010108758092857897
1783169805030295600,5.184295654296875,0.03401683589220047,0.051859951096773146,-0.005831921023875475
1783169805040364800,5.19436474609375,0.009644903440773487,0.037464345997571945,-0.01555620984379202
1783169805050434800,5.204434814453125,-0.04563859236389398,0.015447159978747366,-0.03166892105918377
1783169805060504600,5.214504638671875,-0.004272562752664089,0.029703064346313476,-0.008061324043758212
1783169805070574800,5.224574951171875,-0.0028352234259247776,0.044237201133370395,-0.023327446633484215
1783169805080644600,5.23464453125,-0.06494272003173827,0.07456278129220008,0.0006456226934678852
1783169805090713900,5.2447138671875,-0.07419862415492534,0.10912029993236064,0.0005855082703754306
1783169805100783900,5.254783935546875,-0.06271978328526019,0.10111468813121319,-0.02051357652284205
1783169805110853600,5.264853515625,-0.059252691696584224,0.0818038384616375,-0.021979648753721267
1783169805120923600,5.274923583984375,-0.054231940925121305,0.07652034510076046,-0.03434217712273821
1783169805130992600,5.28499267578125,-0.03861234698891639,0.09915595527887344,-0.03324765988430008
1783169805141062700,5.295062744140625,-0.034899756206572055,0.059570963865518564,-0.019178930385597048
1783169805151133000,5.3051328125,-0.04605711003690958,0.08820376863181591,-0.017195976407453416
1783169805161200600,5.31520068359375,-0.04503478125184774,0.08782382940351963,-0.017221202180255205
1783169805171269600,5.32526953125,-0.0028799393504858016,0.0730588064700365,-0.014115874842368065
1783169805181339600,5.335339599609375,0.011500175918638705,0.060137365576624864,0.0034111053514294326
1783169805191410000,5.345409912109375,-0.033115503138303755,0.00589724134504795,0.016451076324284077
1783169805201479700,5.355479736328125,0.008223638466000556,0.007241057169437408,0.005708130247425287
1783169805211549000,5.365548828125,0.0123129536062479,0.059684945634007454,-0.000512844892963767
1783169805221618700,5.37561865234375,0.021266659912467,0.0706494072407484,-0.020309487051796166
1783169805231688700,5.385688720703125,0.03144873896986246,0.05372983662188053,-0.018181845639646053
1783169805241758700,5.3957587890625,0.02291764198988676,0.031683424508571624,-0.015978673039563
1783169805251827700,5.40582763671875,0.02359422607719898,0.049671501141786575,-0.02254438823070377
1783169805261897700,5.415897705078125,0.019679682981967924,0.02346446221768856,0.003439016271661967
1783169805271967700,5.4259677734375,0.039354689788818356,0.019544658425450324,0.003565400863997638
1783169805282037800,5.436037841796875,0.000533083963394165,0.011247370201349258,-0.0016314371267333626
1783169805292107800,5.446107666015625,-0.00909223799407482,0.02761982833147049,-0.02556446670424193
1783169805302176800,5.4561767578125,0.010372048671543597,0.009101590344309806,-0.014509586867690086
1783169805312246800,5.466246826171875,-0.017316460981965064,0.04271978230774402,0.01960451712021604
1783169805322316500,5.476316650390625,-0.03323825273513794,0.09026128568351269,0.0052763147014193235
1783169805332386800,5.48638671875,0.004401742090284824,0.08361760988533497,0.005376432341337204
1783169805342455600,5.49645556640625,0.014542027832567691,0.059092240437865255,0.01010534229306504
1783169805352525800,5.50652587890625,0.024304127912223337,0.047235213905572886,0.0266288810653612
1783169805362595800,5.516595947265625,0.004553425520658493,0.04902677349746227,-0.004166088437195867
1783169805372665600,5.52666552734375,-0.03958762176185846,0.08906710746288299,-0.02889563868725672
1783169805382734800,5.53673486328125,-0.007448562440276145,0.07609890481829643,-0.0203562853355892
1783169805392804600,5.5468046875,-0.02288286293745041,0.07336509594023227,-0.04643686660211533
1783169805402874600,5.55687451171875,-0.048179509018361565,0.09526420853734016,-0.01905811701752245
1783169805412945000,5.56694482421875,-0.03427987074255943,0.05950023671686649,-0.007667484154272824
1783169805423014700,5.5770146484375,-0.0192798700094223,0.035329672056436535,0.02812231622720137
1783169805433083600,5.587083740234375,-0.022216507983207703,0.03260112387537956,0.030879414649307727
1783169805443153700,5.597153564453125,-0.033011458241939545,0.06466624117791653,0.03927956045968458
1783169805453223700,5.6072236328125,-0.03128828771114349,0.09210895937681197,0.014833411994576454
1783169805463293700,5.617293701171875,-0.022689093931019304,0.09058861794173717,-0.02264620463736355
1783169805473362700,5.62736279296875,-0.0307671864464879,0.05457213266491889,-0.04034709835965186
1783169805483432700,5.6374326171875,-0.027221184402704237,0.01273088675737381,-0.05622477697646245
1783169805493502700,5.647502685546875,-0.0029600188493728637,-0.019741057780385016,-0.030253994493652132
1783169805503572700,5.65757275390625,-0.008690379194915294,-0.0023018472015857694,-0.009954937504325061
1783169805513641700,5.667641845703125,-0.024182547359168527,0.04327741619050503,0.04334427088163793
1783169805523711700,5.677711669921875,0.00395487510561943,0.060628948485851285,0.04696856232602149
1783169805533781800,5.68778173828125,-0.01049129113703966,0.10200491496920586,0.10194562253002076
1783169805543853800,5.697853759765625,-0.02732347573339939,0.10660977841615676,0.0444265679593198
1783169805553923600,5.707923583984375,-0.02003507229089737,0.09738953012824057,0.018116452253237367
1783169805563992800,5.717992919921875,-0.0051142742738127705,0.05778232688307762,-0.013062456799298523
1783169805574062800,5.728062744140625,-0.02896072154641151,0.043186230775713916,-0.026025270882714537
1783169805584132600,5.738132568359375,-0.061437634520232674,0.06176058286428451,-0.048273763173073525
1783169805594203000,5.748202880859375,-0.042350948995351786,0.07276011578440665,-0.06565057604014873
1783169805604272600,5.758272705078125,-0.07322656425237656,0.06382452965676784,-0.036698677121009673
1783169805614341600,5.768341552734375,-0.09261632437705992,0.04866144731640815,-0.0487876857782714
1783169805624412000,5.778411865234375,-0.07245353405326604,0.05370353313684463,-0.02815620023049414
1783169805634481700,5.788481689453125,-0.038138299736380575,0.0733288555830717,0.003981068992801011
1783169805644551700,5.7985517578125,0.00006342062503099441,0.07159750174582004,-0.024513386748731134
1783169805654620700,5.80862060546875,-0.01662964776158333,0.047855391630530354,0.03148689728947356
1783169805664690700,5.818690673828125,-0.03834171335399151,0.06738835961818694,0.04375442258510738
1783169805674760700,5.8287607421875,0.0063785951212048525,0.0927308906674385,0.04297114498661831
1783169805684830700,5.838830810546875,0.018535481382906435,0.09999942036569118,0.010968078335933386
1783169805694899700,5.848899658203125,0.045024259857833385,0.06281622939705848,0.0391673139905557
1783169805704969700,5.8589697265625,0.02229892556965351,0.06147533618211746,0.020513960115332155
1783169805715039700,5.869039794921875,0.020047054989635944,0.04938157828450203,0.030074308811500666
1783169805725109800,5.87910986328125,0.007281096918880939,0.0502455016374588,-0.0000032148703932762145
1783169805735179800,5.8891796875,0.006819616886973381,0.06283142696619033,-0.0015507365733385084
1783169805745248800,5.899248779296875,0.0077437459945678706,0.05488952805101871,-0.04039433503486216
1783169805755318500,5.909318603515625,-0.013543664444983004,0.037004327270388604,-0.02111347864475101
1783169805765388800,5.919388916015625,-0.04099310464560985,0.05120704014599323,0.009153631058800965
1783169805775458800,5.929458740234375,-0.03183306211233139,0.0643318946570158,-0.007627663600537926
1783169805785527800,5.93952783203125,-0.04423018687069416,0.09118132313787937,0.0029254955252632497
1783169805795597800,5.949597900390625,-0.05067863235771656,0.051534956926107406,0.012864486541785299
1783169805805667600,5.95966748046875,-0.061087213647365565,0.044266427227854725,0.017578290255926547
1783169805815737600,5.969737548828125,-0.037517537489533424,0.01830956367254257,0.030777397313248363
1783169805825806600,5.979806640625,-0.014897709402441978,0.007844283759593963,0.03749260397767648
1783169805835877600,5.989877685546875,-0.011370412059128284,0.01170914249420166,0.04049662636555731
1783169805845947400,5.999947509765625,-0.045993104889988895,0.033031331986188885,0.01747886673575267
1783169805856017700,6.010017578125,-0.062380760589241975,0.06893442001640797,0.017370602321997285
1783169805866087700,6.020087646484375,-0.011802958257496356,0.0933586671769619,0.012165745421592145
1783169805876156700,6.03015673828125,0.023642741394042967,0.053874213528633114,-0.0031370741830207406
1783169805886226700,6.040226806640625,0.021383272029459475,0.039544659402966496,-0.01113835686892271
1783169805896296400,6.05029638671875,0.03167874833345413,0.04079670529067516,-0.002492857995349914
1783169805906366500,6.060366455078125,0.007778232786059379,0.05569499921500683,-0.029141649337578564
1783169805916435500,6.070435546875,0.00336363121420145,0.08599602945446967,-0.06176365160420537
1783169805926505500,6.08050537109375,-0.0033671383455395696,0.08125088075399399,-0.06075657518720254
1783169805936575700,6.09057568359375,0.006708849988877773,0.07160685409605502,-0.04377765733022242
1783169805946645500,6.1006455078125,0.0183496034219861,0.045078328132629394,-0.011282788574602454
1783169805956714800,6.11071484375,0.01339051970988512,0.02467968322634697,0.010856690383329986
1783169805966784500,6.120784423828125,0.0003542202651500702,0.028308395117521284,0.047599334510229525
1783169805976854500,6.1308544921875,-0.004129647150635719,0.028674305820465085,0.04790434533879161
1783169805986924500,6.140924560546875,0.0040469373032450675,0.03901858970224857,0.06883632993679493
1783169805996993500,6.15099365234375,-0.0029269933626055716,0.054955579024553294,0.02940936036305502
1783169806007063600,6.1610634765625,0.0009898878201842307,0.04214052111506462,-0.012879245719499886
1783169806017133800,6.1711337890625,0.04033580978065729,0.020459435182809828,-0.06367350381352008
1783169806027203600,6.18120361328125,0.048997839663922786,0.017824995025992392,-0.06727068805526942
1783169806037273600,6.191273681640625,0.07944967655092477,0.010601473513245582,-0.07130388909410684
1783169806047342600,6.201342529296875,0.07391805364787578,0.009646364745497703,-0.06475404732553287
1783169806057412600,6.21141259765625,-0.0008624620482325554,0.04505845438838005,-0.02074961376842111
1783169806067482600,6.221482666015625,-0.002297171026468277,0.0756517455726862,-0.00736879346864298
1783169806077552600,6.231552734375,0.03391425230056047,0.0730588064700365,0.020017828895151614
1783169806087621600,6.24162158203125,0.016537001042068004,0.0865051480203867,0.0514859849515371
1783169806097691600,6.251691650390625,0.02761807476580143,0.09383271442949771,0.037306890413537616
1783169806107761700,6.26176171875,0.017081483182311057,0.08403262042701244,-0.00856302648819983
1783169806117831700,6.271831787109375,0.0058513563767075534,0.07118482929170131,-0.006750972097553313
1783169806127900700,6.281900634765625,-0.037867081579565996,0.04777238952219486,-0.04865430518956854
1783169806137970700,6.291970703125,-0.002096387757360935,0.02661328163743019,-0.07369283005725592
1783169806148040400,6.30204052734375,0.011841828963160514,0.008054127117991448,-0.027794929170049724
1783169806158110700,6.31211083984375,-0.009135200352966786,0.04765022444725037,-0.017077902985736727
1783169806168179500,6.322179443359375,0.0028130115941166875,0.07722235589027404,-0.014703483738284557
1783169806178249500,6.33224951171875,0.02999474076926708,0.09501870934367179,0.02865907171871513
1783169806188319700,6.34231982421875,0.012862988704442977,0.11459610099494456,0.0675128993133083
1783169806198389500,6.352389404296875,0.0683142422914505,0.07423661807775497,0.06289853738564997
1783169806208459500,6.36245947265625,0.02262655008882284,0.06311024390757083,0.07104774064226076
1783169806218528500,6.372528564453125,0.04363718941360712,0.05982815349698067,0.05522906220369041
1783169806228598500,6.3825986328125,0.05308189410716295,0.04722469251155853,0.01672012079032138
1783169806238668800,6.392668701171875,0.006489069758355617,0.04010053972005844,-0.04696249791141599
1783169806248738600,6.402738525390625,-0.010742927810549736,0.05032908826768398,-0.06472357912203297
1783169806258807600,6.4128076171875,0.015712240655720234,0.0013408932149410247,-0.07973284087385982
1783169806268877600,6.422877685546875,0.019912322694063185,-0.011216390541195869,-0.06912988778958097
1783169806278947600,6.432947509765625,0.016124620848894117,-0.02636193722486496,-0.059869051762949675
1783169806289017600,6.443017578125,0.04087356991916895,-0.008382043898105622,-0.028083573385700583
1783169806299086600,6.453086669921875,0.050857788316905496,0.011991466566920279,0.0022317411074414847
1783169806309156600,6.463156494140625,0.05709639044553041,0.032300679624080654,0.002073171278554946
1783169806319226600,6.4732265625,0.05175561393946409,0.04550619815587997,-0.002174658891651779
1783169806329296600,6.483296630859375,0.064616849078238,0.0336754751086235,0.01563115650983527
1783169806339365400,6.493365478515625,0.0640071927472949,0.052172670307755464,0.00973316624611616
1783169806349435600,6.503435546875,0.020458850660920142,0.05642682062089443,-0.004341335406247526
1783169806359505700,6.513505615234375,0.028060557836294173,0.06713643068373203,-0.03426410691784695
1783169806369575400,6.523575439453125,0.051127837429940697,0.07844049950838089,-0.03817768189869821
1783169806379645700,6.533645751953125,0.03761018420904875,0.061005380582809444,-0.046628699379786843
1783169806389714400,6.54371435546875,0.022309739224612712,0.05547521898448467,-0.01917421767786145
1783169806399784400,6.553784423828125,0.006668225717544555,0.05562836371958255,-0.003598371551837772
1783169806409854700,6.563854736328125,-0.004331891724467277,0.05824176108837127,-0.0026525420690886674
1783169806419924500,6.573924560546875,-0.02115560075342655,0.09008066841959952,0.009442951127886772
1783169806429993700,6.58399365234375,-0.03536620467454195,0.09221534236073493,-0.015579882980324327
1783169806440063500,6.5940634765625,-0.039730245102941986,0.104865565097332,-0.038845644288137554
1783169806450133500,6.604133544921875,-0.05047288065254688,0.05888824229836464,-0.06647497110031544
1783169806460203500,6.61420361328125,-0.08281564585268497,0.04131108455359935,-0.05035579361151903
1783169806470272500,6.6242724609375,-0.05119242709875107,0.007472527837753295,-0.03969367595221847
1783169806480342500,6.634342529296875,-0.0038680736050009726,0.01312251642346382,-0.006586264788825065
1783169806490412800,6.644412841796875,0.015018997694551945,0.03762567403912544,0.0218857051262632
1783169806500482600,6.654482666015625,-0.008143851228058338,0.050664019310474394,0.0431570777464658
1783169806510551800,6.6645517578125,0.0317082666888833,0.05110650238096714,0.05717709099892527
1783169806520621600,6.67462158203125,0.015829729555547237,0.07158230417668819,0.0555898400737904
1783169806530691600,6.684691650390625,0.02521247492879629,0.05764613328278064,0.02701165157156065
1783169806540761600,6.69476171875,0.0058420040264725685,0.04751403084695339,-0.009750354842934758
1783169806550830600,6.70483056640625,0.009408756597340107,0.020757541346549988,-0.031438856896664945
1783169806560900600,6.714900634765625,0.018496610677242276,0.025030980882048606,-0.030607009182404724
1783169806570970600,6.724970703125,0.0027840777605772017,0.029780221235752104,-0.023395506901014596
1783169806581040600,6.73504052734375,-0.005614625011384487,0.0368780705422163,-0.006661247987486422
1783169806591110700,6.745110595703125,-0.012409691978991031,0.04497720584571361,0.03547561986576766
1783169806601179600,6.7551796875,-0.009906476986408234,0.08116203342676162,0.034127219197805966
1783169806611249700,6.765249755859375,-0.03374064929932356,0.08620879542231559,0.03681607468929141
1783169806621319400,6.7753193359375,-0.01288549279719591,0.0671814388692379,0.015669917617645114
1783169806631389700,6.7853896484375,-0.016548691479861734,0.05440846653580665,0.01176626124260947
1783169806641458400,6.79545849609375,0.02080225727111101,0.04470248055756092,0.00472406937982887
1783169806651528700,6.80552880859375,-0.014029402135312556,0.08883622131645678,-0.02394464695006609
1783169806661598700,6.8155986328125,-0.023067279593646524,0.08447919515073299,-0.04688822709880769
1783169806671668500,6.82566845703125,-0.004084054443240165,0.05902677398622035,-0.056752892503794276
1783169806681737700,6.83573779296875,-0.03731909230798482,0.060300447183847423,-0.030035639035236088
1783169806691807500,6.845807373046875,-0.05656798265725374,0.03918342487514019,-0.01106390339322388
1783169806701877500,6.85587744140625,-0.03107493722140789,0.035244331860542294,-0.009645615826826543
1783169806711947800,6.86594775390625,-0.010259235946834087,0.025758126112818715,0.0605808167614974
1783169806722016500,6.8760166015625,-0.032550270470976826,0.027749007669091223,0.04450843755649402
1783169806732086800,6.886086669921875,-0.058176294636726376,0.04157528844773769,0.028649609770625827
1783169806742156500,6.896156494140625,-0.06740121909976005,0.051146249869465824,0.001651840593945235
1783169806752226600,6.9062265625,-0.055951604324579234,0.07377484578490257,-0.045286801517847926
1783169806762295600,6.916295654296875,-0.045967970448732375,0.06969429847300052,-0.04137664233678952
1783169806772365600,6.926365478515625,-0.02802548652291298,0.039139001211524006,-0.007502338454127311
1783169806782435600,6.936435546875,-0.030776246535778044,0.01934709002673626,-0.03795391961280256
1783169806792505600,6.946505615234375,0.025378186884522435,0.010115151301026344,-0.005513539257086813
1783169806802574600,6.95657470703125,0.041835692949593065,0.04854220485091209,-0.0053767611349001525
1783169806812644600,6.96664453125,0.04984101248979568,0.039870238095521926,0.0025688641073182226
1783169806822714600,6.976714599609375,0.0411696302562952,0.041588147929310794,0.04347352328449487
1783169806832783600,6.98678369140625,0.056985623547434805,0.053531683701276776,0.03207892663218081
1783169806842854000,6.99685400390625,0.032271453529596324,0.07514321152865887,0.0010651998124085367
1783169806852922600,7.006922607421875,0.021675532974302768,0.05818213985562324,0.011831124906055628
1783169806862992600,7.01699267578125,-0.01728343549519777,0.06575052928328513,0.020127116222213953
1783169806873062700,7.027062744140625,-0.002105155585706234,0.06575111380517483,0.053501051100995387
1783169806883132700,7.037132568359375,-0.022838147012889384,0.06210778886675834,0.011525237294659018
1783169806893201700,7.04720166015625,-0.0316778715506196,0.057637365454435346,0.0004548128291033208
1783169806903271700,7.057271728515625,-0.006458382359147072,0.04458090000450611,-0.03783924372456968
1783169806913341700,7.067341796875,-0.047803953704237935,0.04387421303987503,-0.056202948737144466
1783169806923411700,7.07741162109375,-0.05383037438690662,0.0591512771487236,-0.0290406366485171
1783169806933480700,7.087480712890625,-0.0470300467222929,0.06686228991746902,-0.03227174579054117
1783169806943550500,7.097550537109375,-0.04730243392288685,0.09560966097414493,0.0020908347994089125
1783169806953620700,7.107620849609375,-0.038655601608753205,0.12689970225095748,-0.00265789409764111
1783169806963690800,7.117690673828125,-0.03818535374850034,0.08926409133970736,-0.000540280889160931
1783169806973759700,7.127759765625,-0.009749532859027386,0.07849719813168049,-0.007946081899944692
1783169806983829800,7.137829833984375,0.0405748792335391,0.06536532935798167,-0.013200020372774452
1783169806993899500,7.1478994140625,0.04545885188281536,0.039186932006478305,-0.02048637798866257
1783169807003969800,7.1579697265625,0.021444939088821408,0.036222236981987954,-0.012599442397430539
1783169807014038500,7.16803857421875,-0.010555296283960342,0.06217851601541042,-0.009299597134441137
1783169807024108500,7.178108642578125,-0.0026671733826398847,0.0813157626837492,-0.006161116445623338
1783169807034178800,7.1881787109375,-0.025399521933495997,0.0602665449142456,-0.007146930878888815
1783169807044248600,7.19824853515625,-0.031579671873152255,0.030316227808594703,0.04237575464304536
1783169807054317800,7.20831787109375,-0.015936697061359882,0.045969139492511746,0.058471788718271994
1783169807064387600,7.2183876953125,-0.021381518463790414,0.0495481670230627,0.06719738535704091
1783169807074457600,7.22845751953125,0.007686755110323428,0.08136310895681381,0.07789623656384646
1783169807084527600,7.238527587890625,-0.011296177779138088,0.08597498666644096,0.015569251988455652
1783169807094597600,7.24859765625,-0.023241174855828283,0.07093114679157733,0.016935918965470045
1783169807104666600,7.25866650390625,-0.01970686324983835,0.05780453871488571,-0.0015044680125080047
1783169807114737000,7.26873681640625,-0.041350832042098044,0.04244856415092945,-0.03777602402893826
1783169807124806700,7.278806640625,-0.060086804433166975,0.029626491978764533,-0.06084178751893341
1783169807134876700,7.288876708984375,-0.03798340143561363,0.041783378240466115,-0.05649595860065892
1783169807144945700,7.298945556640625,-0.004372515995800495,0.029746318966150282,-0.025021847727522254
1783169807155015700,7.309015625,0.013716682924330233,0.04193593845367431,-0.019145411708485334
1783169807165085700,7.319085693359375,-0.009595511341094971,0.0685194094747305,0.014924560876749454
1783169807175155700,7.32915576171875,0.010560556980967521,0.1018242977052927,0.021417959750350563
1783169807185224700,7.339224609375,0.019252689741551875,0.09331833516657352,0.03907912425044924
1783169807195294700,7.349294677734375,0.02099018105864525,0.09378186102509498,0.041999012018833305
1783169807205364700,7.35936474609375,0.034002515105903144,0.07133738950490952,0.04703987399656325
1783169807215434800,7.369434814453125,0.030662557028234002,0.0324251827865839,0.02895867571979761
1783169807225503700,7.379503662109375,0.031684301291406154,0.005609656575322151,0.04033774600941688
1783169807235573800,7.38957373046875,0.0005278232663869858,0.01676642588376999,-0.009682513771113007
1783169807245643500,7.3996435546875,0.0005696165814995766,0.031171383333206175,-0.01152889055646956
1783169807255713800,7.4097138671875,0.04635317037403583,0.009072948771715163,-0.009852828836720437
1783169807265782500,7.419782470703125,0.058090077657997605,0.012277882292866707,-0.0008318659805692732
1783169807275852800,7.429852783203125,-0.018570552696287632,0.024348843836784363,-0.0033352453699335453
1783169807285922800,7.4399228515625,-0.017814765892922878,0.03863981951773166,-0.005150733826681971
1783169807295992600,7.44999267578125,0.02798778486102819,0.030544191345572468,0.002047963772062212
1783169807306061800,7.460061767578125,-0.009148352095484733,0.04452420138120651,0.0017166129258461295
1783169807316131600,7.470131591796875,-0.03707446989715099,0.07114800441265105,-0.030016715139057487
1783169807326201600,7.48020166015625,-0.02214285822510719,0.05777355905473232,0.02256935827517882
1783169807336272000,7.49027197265625,-0.0009849193841218948,0.06307166546285152,0.03914185075573623
1783169807346340600,7.500340576171875,-0.015814239725470542,0.05554828422069549,0.054675556506775316
1783169807356410600,7.51041064453125,-0.04989303493797779,0.062061611637473105,0.061355673591513185
1783169807366480600,7.520480712890625,-0.011736907283961772,0.07142097613513469,0.03407119642794132
1783169807376550700,7.530550537109375,0.002616027717292309,0.0683007982879877,0.02073859918406233
1783169807386619600,7.54061962890625,-0.008095920433104038,0.06605097353458404,-0.045571025286708026
1783169807396689700,7.550689697265625,-0.03997720560133457,0.037349195185303684,-0.0673904237111099
1783169807406759700,7.560759765625,-0.03314531375467777,-0.0029886604219675063,-0.062096007097419345
1783169807416829700,7.57082958984375,-0.059467211230099196,-0.01149170035123825,-0.07687958860090002
1783169807426898700,7.580898681640625,-0.0394116806730628,0.030941666230559346,-0.034893490862566975
1783169807436968400,7.590968505859375,-0.0002621580675244331,0.07103752977550029,0.013891875094454735
1783169807447038700,7.601038818359375,-0.011900281152129173,0.11982990999519824,0.015035053780209272
1783169807457108700,7.611108642578125,-0.03598053718060255,0.12883388518393038,0.050256552754435684
1783169807467177700,7.621177734375,-0.02422112580388784,0.12432780593633651,0.06909328210623934
1783169807477247700,7.631247802734375,0.0009627075523138045,0.09902385333180427,0.022440726926829666
1783169807487317500,7.6413173828125,-0.038816637389361856,0.08653028246164321,0.010231452890764922
1783169807497387500,7.651387451171875,-0.03197977710664272,0.0859773247539997,-0.019790723874699323
1783169807507456800,7.661456787109375,-0.05447217942178249,0.05533084207773208,-0.039464598170388485
1783169807517526500,7.671526611328125,-0.043100890579819674,0.05245324081480503,-0.06384873251626268
1783169807527596800,7.6815966796875,-0.04155249209403991,0.019330723413825034,-0.07620926985759288
1783169807537666800,7.691666748046875,-0.04687573294341564,0.049506665968894956,-0.042369635429512706
1783169807547735800,7.70173583984375,-0.06228694482594728,0.06380991660952567,-0.012785959679167716
1783169807557805800,7.711805908203125,-0.07115151154398917,0.06439911467432975,0.030719493113551287
1783169807567875600,7.72187548828125,0.06719020669758319,0.09066402126550674,0.030192985021416097
1783169807577945600,7.731945556640625,-0.0011138064607977866,0.1250567047327757,0.015800704390462487
1783169807588014600,7.7420146484375,-0.04409720814079046,0.0908399623543024,0.013581493971031158
1783169807598084600,7.752084716796875,-0.019895079298317433,0.049430093601346016,0.004837923284154385
1783169807608155000,7.76215478515625,-0.007040273900330066,0.04642214395701885,0.003266673645749688
1783169807618224600,7.772224609375,-0.012303308995068072,0.05180266795158386,0.00005467106299474835
1783169807628293600,7.782293701171875,-0.040945466111600395,0.04692015660703182,-0.013600235204119234
1783169807638363600,7.79236376953125,-0.030623686322569846,0.03802081083655357,-0.016927900055795905
1783169807648433700,7.80243359375,0.004302957890927791,0.050965048083662985,-0.019084329171013086
1783169807658503700,7.812503662109375,0.011874854449927806,0.059819385668635365,0.00009765168819576501
1783169807668573700,7.82257373046875,0.021360475675761697,0.059763856089115136,0.0050538858560845255
1783169807678642700,7.832642578125,0.024124387431144714,0.07856149553954601,0.0006324526846408844
1783169807688712700,7.842712646484375,-0.01538169352710247,0.07183715572059154,0.017679650004860013
1783169807698782700,7.85278271484375,-0.020485738667845727,0.06009995617568493,0.020137948143482208
1783169807708852700,7.862852783203125,-0.04787701894044876,0.056017070776224136,0.021712266521807758
1783169807718921700,7.872921630859375,-0.033056174166500564,0.07016893024742603,0.01442786340098828
1783169807728991700,7.88299169921875,-0.012546470101177692,0.06619944209456444,0.004156553423870355
1783169807739061500,7.8930615234375,0.0077025372013449665,0.05901800615787506,0.006065693247132003
1783169807749131800,7.9031318359375,0.006774608701467514,0.03928513168394565,-0.0035147301226854323
1783169807759200500,7.913200439453125,-0.05227642294317483,0.030691490861773488,-0.03262002950524911
1783169807769270800,7.923270751953125,-0.055790860804915424,0.03451601758599281,-0.044521534500084815
1783169807779340800,7.9333408203125,-0.02446516369283199,0.043455110844969745,-0.04633384461905807
1783169807789410600,7.94341064453125,0.004559855261445045,0.03771978206336498,-0.015541541997622697
1783169807799479800,7.953479736328125,-0.001779284632205963,0.054573886230587954,-0.02420212884247303
1783169807809549600,7.963549560546875,0.038293782559037204,0.02111176161170006,-0.011815488945506512
1783169807819619600,7.97361962890625,0.06159224056005477,-0.0015729484051465988,0.0024228432327508924
1783169807829689900,7.98368994140625,0.05242869089543819,0.0028396073400974273,0.02562792386189103
1783169807839759600,7.993759521484375,0.0489817653119564,0.014086393019556998,0.03913978666281327
1783169807849829600,8.00382958984375,0.02863748094141483,0.018705869513750074,0.035101197062805296
1783169807859899600,8.013899658203124,0.034978958922624585,0.04660042313337326,0.04975941688725725
1783169807869969700,8.0239697265625,0.02035305219888687,0.07891980745792389,0.01247577948514372
1783169807880038700,8.03403857421875,0.01059153664112091,0.088940266212821,-0.005223086676839739
1783169807890108700,8.044108642578125,0.02163140157163143,0.08291384553015231,-0.027571367813553658
1783169807900178700,8.0541787109375,0.030519933687150478,0.05588087717592716,-0.02221305565079674
1783169807910248700,8.064248779296875,0.027221768924593923,0.040789106506109236,-0.0375805379894562
1783169807920317700,8.074317626953125,0.021080489690601823,0.03419803767800331,-0.030119189132843165
1783169807930387700,8.0843876953125,-0.009177578189969062,0.042183775734901424,-0.01858430722700432
1783169807940457500,8.09445751953125,0.005517886638641357,0.06788987939953804,-0.012912344271503388
1783169807950527700,8.10452783203125,0.019299743753671644,0.0739087012976408,0.018593129854276774
1783169807960596500,8.114596435546876,0.010449790082871913,0.07487257789373397,0.007827332624793052
1783169807970666800,8.124666748046875,0.002387187397480011,0.05043488672971725,0.0018717669549398123
1783169807980736800,8.13473681640625,0.009816752876341343,0.009417232164740563,-0.003628584027010947
1783169807990806500,8.144806640625,0.03587561550140381,-0.007680033108592033,0.019148370850551873
1783169808000875800,8.154875732421875,0.027280513374507424,0.008248188385367393,0.00462928550215438
1783169808010945800,8.16494580078125,0.002838438296318054,0.03505377772450447,-0.0522161075906828
1783169808021015600,8.175015625,-0.01920095955431461,0.01218318974673748,-0.044949404523335394
1783169808031085800,8.1850859375,0.022960896609723568,0.007356207981705666,-0.05914230839097872
1783169808041154600,8.195154541015626,0.01693272236138582,-0.006844751328229904,-0.0588134052301757
1783169808051224800,8.205224853515626,-0.014778759197890758,0.019642273581027984,-0.03791311267837882
1783169808061294800,8.215294921875,0.0007154547929763794,0.030454174974560735,0.021531247399095444
1783169808071364600,8.225364501953125,0.005919453176856041,0.0572387215256691,0.04787902823444456
1783169808081433900,8.235433837890625,0.005407412001490593,0.056850598990917205,0.09090473468620329
1783169808091503600,8.245503662109375,0.035194355238974094,0.08872983833253383,0.09551098637264221
1783169808101573600,8.25557373046875,0.02911678889095783,0.1112310084760189,0.07805500732213258
1783169808111644000,8.265643798828124,0.008267769868671894,0.09796060801446438,0.022332206784747538
1783169808121712600,8.275712646484376,-0.012129413732886314,0.0769412008613348,-0.02744419776992872
1783169808131782700,8.28578271484375,-0.01881283701956272,0.03628711891174316,-0.0411476558865048
1783169808141852700,8.295852783203125,-0.03288432473093271,0.004466331759095192,-0.052920766995009035
1783169808151922700,8.305922607421875,-0.045730070039629936,0.029151860204339027,-0.06368955989917739
1783169808161991700,8.31599169921875,-0.06547784982174634,0.04069324491620063,-0.0673647778131999
1783169808172061700,8.326061767578125,-0.0576262595385313,0.05347966125309467,-0.07305577426273376
1783169808182131700,8.336131591796875,-0.0398997564509511,0.07397767488062382,-0.06100764560513198
1783169808192201700,8.34620166015625,0.01441051040738821,0.07726151885688304,-0.04395779967010021
1783169808202270700,8.356270751953126,0.011515081226825713,0.05141103828549385,0.0050625258202664555
1783169808212340500,8.366340576171876,0.0016287702456116676,0.04153378739356994,0.004875204820930958
1783169808222410800,8.37641064453125,0.005210135863721371,0.042616906455159184,0.021025197573099286
1783169808232479500,8.3864794921875,0.03262859640419483,0.046128713968396184,-0.001092489678133279
1783169808242549800,8.3965498046875,0.04663607896864414,0.03453647585213184,-0.00019826251845806835
1783169808252619800,8.406619873046875,0.03297434110194444,0.02481295421719551,0.00012731617409735918
1783169808262689500,8.416689453125,0.004541442821919918,0.0523889434069395,-0.031544363097753374
1783169808272759600,8.426759521484374,0.016572364616394043,0.04325345079302788,-0.011911935057304798
1783169808282828500,8.43682861328125,0.017135259196162222,0.031413959917426106,-0.019075981467776
1783169808292898600,8.446898681640626,0.010455927562713623,0.037709260669350625,-0.0011818667283281683
1783169808302968800,8.45696875,-0.034330724146962165,0.038139468780159946,0.046372623993176966
1783169808313037600,8.46703759765625,-0.011932429856061934,0.04517126711308956,0.021039664489869027
1783169808323107800,8.47710791015625,0.011186579924821853,0.06018997254669666,0.05563050087774172
1783169808333177600,8.487177490234375,0.012385434320569037,0.0777209530621767,0.031330190624110396
1783169808343247600,8.49724755859375,-0.011477087303996086,0.07378302909135818,0.00553195169661194
1783169808353316900,8.50731689453125,-0.03205371912568807,0.07214870588779448,-0.028203400373086333
1783169808363386600,8.51738671875,-0.04604337377250194,0.05162964947223663,-0.05095171367805451
1783169808373456600,8.52745654296875,-0.04690291321128606,0.0686234543710947,-0.052976022579893464
1783169808383526700,8.537526611328126,-0.027277298504114148,0.052420507588982576,-0.07280355306733399
1783169808393595600,8.547595703125,-0.04317512485980987,0.10136077184677124,-0.06401272743893786
1783169808403665700,8.557665771484375,-0.05101356340050697,0.10112462500333785,-0.052844852214585986
1783169808413735700,8.567735595703125,-0.03453764489591121,0.07756722380518913,-0.0259332086850889
1783169808423805700,8.5778056640625,-0.010496259573101997,0.049179918232560155,-0.004786576689407229
1783169808433874700,8.587874755859374,0.014304419684410095,0.06375730963945389,0.012178203044366091
1783169808443944700,8.59794482421875,-0.009534428803622721,0.06788637226819992,0.036472668079100545
1783169808454014700,8.6080146484375,-0.025984336084127424,0.07889467301666736,0.03665242682648823
1783169808464084700,8.618084716796876,-0.005129764103889465,0.06494038194417953,0.030664164463430642
1783169808474153700,8.62815380859375,-0.0036050387546420096,0.05010463186204433,0.03436519267214462
1783169808484223500,8.638223388671875,0.02289455337524414,0.035142040529847145,0.008397351065091789
1783169808494293800,8.648293701171875,0.012986322823166847,-0.0005839373677968978,0.012140921507589518
1783169808504363800,8.65836376953125,0.003802314892411232,0.00038344635963439937,0.010397676303144544
1783169808514432800,8.668432861328125,-0.007816811230778693,0.03626081542670727,-0.03193628502478823
1783169808524502800,8.678502685546874,0.03294043883234262,0.05342471619546413,-0.03487829329343512
1783169808534572500,8.688572509765624,0.040381402488052845,0.05956745673418045,-0.02838027304364368
1783169808544642600,8.698642578125,0.01267594169974327,0.07335106741487979,-0.017242190169356762
1783169808554711600,8.708711669921875,-0.007696399721503257,0.07638707410991191,-0.015728296741377563
1783169808564781600,8.718781494140625,0.03588613689541816,0.08345686636567115,-0.01235257323058322
1783169808574851800,8.728851806640625,0.02336976967155933,0.07093757653236389,0.007741152178682386
1783169808584921600,8.738921630859375,0.02514145551919937,0.05872516069114208,0.012211100666970015
1783169808594990800,8.748990966796875,-0.006660334672033787,0.05904781677424907,-0.005672602276317775
1783169808605060600,8.759060546875,0.011617080296576023,0.04586743268370628,0.007171992254909128
1783169808615130600,8.769130615234374,0.009037292936444282,0.032088498178124425,0.023283150834031402
1783169808625200600,8.77920068359375,-0.004520107772946358,0.056931263011693954,0.036246366776246576
1783169808635269600,8.78926953125,-0.011023206056654453,0.06017828210890293,0.02327246504323557
1783169808645339600,8.799339599609375,-0.02566723295897245,0.06896598419845104,0.016214399757888166
1783169808655409700,8.80940966796875,0.01041676459610462,0.06888532017767429,-0.014319160595815629
1783169808665479700,8.819479736328125,-0.005816577324271202,0.042594110101461406,-0.04860482175834477
1783169808675548700,8.829548583984375,-0.03728372873365879,0.029317864421010014,-0.075332487023063
1783169808685618700,8.83961865234375,-0.05253653518408537,0.008849076887965202,-0.05651327506164089
1783169808695688700,8.849688720703124,0.008453940090537071,-0.0048299043744802475,0.010143464080058038
1783169808705758500,8.859758544921876,0.05159077876657247,0.03555588202774525,0.037490813879389316
1783169808715827700,8.86982763671875,0.055957449543476104,0.07260171035230159,0.08648936592936515
1783169808725897700,8.879897705078125,0.060602060478925704,0.1086994441717863,0.11774618079001083
1783169808735967700,8.8899677734375,0.06662848116159438,0.1233522389024496,0.11578878137823194
1783169808746037800,8.900037841796875,0.023419454032182693,0.095689740473032,0.06748047661473974
1783169808756106500,8.9101064453125,-0.008316577446460723,0.04855272624492645,0.010481244667060673
1783169808766176800,8.9201767578125,-0.010965630650520324,0.011334463962912558,-0.021382066453061996
1783169808776246800,8.930246826171874,-0.027951544503867623,0.0107096100628376,-0.060836490289308126
1783169808786316500,8.940316650390624,-0.09108721511363983,0.011700959187746046,-0.08643051188159734
1783169808796385800,8.9503857421875,-0.07019084981828927,0.013613514810800552,-0.07247706105932593
1783169808806455600,8.96045556640625,-0.05602583860456943,0.04488309782147407,-0.07523823286835103
1783169808816525800,8.97052587890625,-0.018974457322061062,0.07425064660310744,-0.04121602668128908
1783169808826595800,8.980595947265625,0.01362315942198038,0.07113339136540889,-0.011227222462464123
1783169808836664300,8.990664306640625,0.058330608415603634,0.048856677627563475,0.021778080033324657
1783169808846734300,9.000734375,0.06790741505622863,0.06886603095531463,0.02559882563157007
1783169808856804400,9.010804443359374,0.04481558554321527,0.05124503406882286,0.05320426011150702
1783169808866873300,9.020873291015626,0.05178747038245201,0.03834054431021213,0.037308351718261835
1783169808876943400,9.030943359375,0.06730418846607208,0.037005496314167975,0.020579116039723157
1783169808887013400,9.041013427734375,0.035376726068556304,0.031063246783614155,-0.0012127185243181883
1783169808897083400,9.05108349609375,0.018516192160546778,0.05251870726644992,-0.02918110456513241
1783169808907152400,9.06115234375,0.017919687572121618,0.05203881479501724,-0.010974727272428571
1783169808917222100,9.07122216796875,0.016084288838505743,0.05130757791101932,0.0032757520013488826
1783169808927292400,9.08129248046875,0.011500760440528392,0.0676566551655531,0.016351360543165355
1783169808937362400,9.091362548828124,-0.007368775202333927,0.06382569870054722,0.04020480381213128
1783169808947431400,9.101431396484376,0.006334755979478359,0.06488426784276961,0.03659770096456632
1783169808957501400,9.11150146484375,0.013777180939912795,0.08687573489844798,0.025792905165255068
1783169808967571200,9.1215712890625,-0.03154050890654325,0.08632277719080447,-0.016832641254086046
1783169808977641500,9.131641357421875,-0.013865151484310625,0.0815419726550579,0.007997446761000901
1783169808987710200,9.141710205078125,-0.0057250996485352515,0.050691491839289664,-0.016513254840299488
1783169808997780200,9.1517802734375,-0.042052550570666786,0.039698973181843754,-0.02829135265117511
1783169809007850500,9.1618505859375,-0.05370353313684463,0.025941081464290618,-0.03879300078544765
1783169809017920300,9.171920166015624,-0.0173868958696723,0.031065000349283216,-0.025201734339073297
1783169809027989500,9.181989501953124,-0.01262362699061632,0.03688157767355442,-0.012646715605258941
1783169809038059300,9.192059326171876,-0.033329438149929044,0.0463023169696331,-0.04186638034880161
1783169809048129300,9.20212939453125,-0.013056173188984393,0.030411504876613614,-0.0016218290481716394
1783169809058199300,9.21219921875,0.024898586674034592,0.04728080661296844,0.014122085387445986
1783169809068268300,9.222268310546875,0.020512626674771307,0.049583238336443895,0.014512326814047991
1783169809078338300,9.23233837890625,-0.004292728757858276,0.056101241928339,0.03690735143562779
1783169809088408300,9.242408203125,-0.0006298223361372947,0.04411152892708778,0.008723477746918796
1783169809098478300,9.252478271484375,-0.011783961296081542,0.04900573070943355,0.026424645463842898
1783169809108547300,9.26254736328125,0.00997545056939125,0.047504678496718404,0.04005397889828309
1783169809118617300,9.272617431640626,0.0774509039491415,-0.008960720568895339,-0.10504077553376555
1783169809128687400,9.282687255859376,-0.026886253359913823,0.027355039915442466,-0.04343567549213767
1783169809138757000,9.292757080078125,-0.03668810092806816,0.07870236531496047,-0.04438415358969942
1783169809148826400,9.302826416015625,0.09286533070206641,0.06873977422714234,-0.027268548942077902
1783169809158896400,9.312896484375,0.07796177608072757,0.0853980635613203,-0.05522551853973418
1783169809168964400,9.32296435546875,0.07862959233969449,0.08514145845174789,-0.05515453566275537
1783169809179033300,9.333033447265626,-0.014719722487032412,0.06740005005598068,-0.04483359612394124
1783169809189103400,9.343103271484376,0.004090191923081875,0.09571136778295039,-0.002880797867011279
1783169809199173400,9.35317333984375,0.06905658509135246,0.08250877186059952,0.01580578242437914
1783169809209243400,9.363243408203125,0.06736497874259949,0.04995148712694645,-0.006154540574364363
1783169809219312400,9.3733125,0.027419921845197676,0.051284781557321545,-0.016016922690719367
1783169809229382400,9.38338232421875,-0.00917903949469328,0.03204875068962574,-0.017329996316973118
1783169809239452400,9.393452392578125,-0.020699089157581327,0.02495148590505123,-0.02533778180889785
1783169809249521200,9.403521240234374,-0.03088672117292881,0.017352116817235946,-0.009960417397040873
1783169809259591400,9.41359130859375,-0.03007803513854742,0.03663374039232731,0.0021325002503581342
1783169809269661400,9.423661376953126,-0.036141572961211205,0.0674953271239996,0.014167257969733327
1783169809279731200,9.433731201171875,0.03186521081626415,0.05249181925952434,0.00681022800412029
1783169809289800400,9.443800537109375,0.03091331691890955,0.03605097206830978,-0.0189230741946958
1783169809299870200,9.4538701171875,0.023456278911232947,-0.01402443369925022,-0.0339502369293943
1783169809309940200,9.463940185546875,0.027801030117273327,-0.04288052582740783,-0.020984755964856595
1783169809320010500,9.474010498046875,-0.011953472644090652,-0.015004676908254622,-0.022480437882710248
1783169809330079200,9.484079345703124,0.004232523003220558,-0.0036181904971599576,0.0025040004438720643
1783169809340149500,9.4941494140625,0.04826923312842846,0.012594693157076835,0.04854364788932725
1783169809350219300,9.50421923828125,0.0038379707276821134,0.06924713922739029,0.0668539970131591
1783169809360289300,9.514289306640626,-0.0036760581642389296,0.0684708941578865,0.08938517870241776
1783169809370358300,9.524358154296875,0.04244944093376398,0.03231996884644031,0.1068615064212121
1783169809380428300,9.53442822265625,0.02350362518429756,0.04758417347371578,0.05802806353876367
1783169809390498300,9.544498291015625,0.02768763287067413,0.043919221225380896,0.07058737485520541
1783169809400568300,9.554568359375,-0.01177227085828781,0.06565934386849404,0.01988258514292538
1783169809410637300,9.56463720703125,-0.022999475054442883,0.05414017098844051,-0.03560859859567135
1783169809420707600,9.57470751953125,-0.03671411215215921,0.05161912807822227,-0.04831696299398318
1783169809430777300,9.58477734375,-0.036543431760370726,0.055959203109145164,-0.07069160241466015
1783169809440847400,9.594847412109376,-0.05038169523775577,0.07399813314676285,-0.10450703398324548
1783169809450916400,9.604916259765625,-0.06520254001170396,0.08558920221924782,-0.08345363322896883
1783169809460986400,9.614986328125,-0.07237637716382742,0.1026560723543167,-0.06811939557278529
1783169809471056400,9.625056396484375,-0.04346680128276348,0.13564824137389658,-0.06260476033715531
1783169809481125400,9.63512548828125,-0.008054711639881133,0.11903262213766574,-0.054396556902304286
1783169809491195400,9.6451953125,0.017021861949563025,0.07828209407627582,-0.05939721473380923
1783169809501265400,9.655265380859374,-0.0010196984365582465,0.061736617466807364,-0.054010918585583566
1783169809511335400,9.66533544921875,0.07199322306513786,0.03676701138317585,0.003921137232799083
1783169809521404200,9.675404052734375,0.26927637509703634,0.07688625580370426,0.009599511662777513
1783169809531474400,9.685474365234375,0.17478022832274437,0.08621756325066089,-0.05418961788704618
1783169809541544400,9.69554443359375,0.11161620840132236,-0.01722293747961521,-0.02062962238425389
1783169809551614200,9.7056142578125,0.1607312447041273,-0.03413549383580684,0.0004298793172463774
1783169809561684500,9.7156845703125,0.1661474245339632,0.02996025397777557,-0.1354353475418873
1783169809571754500,9.72575439453125,0.15977964306771755,0.09735621238052844,-0.16212821548786013
1783169809581824300,9.73582421875,-0.06128799691647291,0.149756261703372,-0.1028008328535594
1783169809591893500,9.7458935546875,-0.031164076809585092,0.2408481529921293,-0.03392919414136559
1783169809601963300,9.75596337890625,0.113161099755764,0.2750911988556385,-0.02159771849773824
1783169809612033300,9.766033203125,-0.1647548011317849,-0.058059974780678744,0.17946955518275498
1783169809622102300,9.776102294921875,-0.2477326518088579,-0.15630641399919987,0.1670163893882185
1783169809632172300,9.78617236328125,-0.3115209411084652,-0.19105857842862606,0.29947599078863857
1783169809642242300,9.7962421875,0.07911737585663794,-0.055607905453443525,0.13002479373523965
1783169809652312300,9.806312255859375,0.022359131324291227,0.02412672551870346,0.046713747314736244
1783169809662381300,9.81638134765625,-0.15674246732890604,0.11717910322546958,-0.026192645072564483
1783169809672451300,9.826451416015624,-0.33866116922944783,0.19725100332796572,-0.05321229728749022
1783169809682521300,9.836521240234376,-0.07300649176090955,0.01196224047243595,-0.12033009633598848
1783169809692591400,9.84659130859375,0.03150251498371363,0.045321489238739014,-0.18917676500370725
1783169809702660400,9.856660400390625,-0.1655108801960945,0.09048048139214515,-0.1574732658214867
