time,seconds_elapsed,z,y,x
1783169799914841300,0.06884130859375,0.02427545376121998,-0.0014385106042027473,0.07751099020242691
1783169799924911400,0.078911376953125,0.029749948531389236,-0.005731972865760326,0.07434473186731339
1783169799934981400,0.0889814453125,0.026009006425738335,-0.009920060634613037,0.08623893558979034
1783169799945051400,0.099051513671875,0.02739783748984337,-0.00805145874619484,0.0886252298951149
1783169799955120400,0.109120361328125,0.02717413194477558,-0.00652253907173872,0.08883482217788696
1783169799965190400,0.1191904296875,0.02614212967455387,-0.013781275600194931,0.0857725739479065
1783169799975260200,0.12926025390625,0.019847748801112175,-0.016769874840974808,0.08757632970809937
1783169799985330400,0.139330322265625,0.02040357142686844,-0.008363721892237663,0.07538195699453354
1783169799995400400,0.149400390625,0.021107710897922516,-0.004651009105145931,0.07235900312662125
1783169800005469400,0.159469482421875,0.027817849069833755,-0.01707635447382927,0.08303485810756683
1783169800015539500,0.16953955078125,0.038219887763261795,-0.007326788268983364,0.07825155556201935
1783169800025609200,0.179609130859375,0.04141673818230629,-0.0037945108488202095,0.08438997715711594
1783169800035679200,0.18967919921875,0.0429251529276371,0.002940090838819742,0.08180804550647736
1783169800045749500,0.19974951171875,0.03836635500192642,0.013369029387831688,0.0774013102054596
1783169800055818200,0.209818359375,0.039166100323200226,0.024916227906942368,0.07339458167552948
1783169800065888500,0.219888427734375,0.037709034979343414,0.03477001562714577,0.05856039375066757
1783169800075958300,0.229958251953125,0.03955220803618431,0.037959419190883636,0.04686858505010605
1783169800086028300,0.2400283203125,0.03390199691057205,0.03103795275092125,0.0419517382979393
1783169800096098300,0.250098388671875,0.024779602885246277,0.02785201370716095,0.03191055357456207
1783169800106168300,0.260168212890625,0.012527523562312126,0.019141126424074173,0.033481042832136154
1783169800116237300,0.2702373046875,0.011572514660656452,0.0179126113653183,0.036008648574352264
1783169800126307300,0.280307373046875,0.010557612404227257,0.016860155388712883,0.03489053249359131
1783169800136377300,0.29037744140625,0.009243875741958618,0.01985354721546173,0.03381914272904396
1783169800146447400,0.300447265625,0.006165549159049988,0.01938578300178051,0.03544897213578224
1783169800156517400,0.310517333984375,-0.0015482967719435692,0.02070191688835621,0.02846483141183853
1783169800166586400,0.32058642578125,-0.0016753438394516706,0.02098739519715309,0.029530290514230728
1783169800176656100,0.33065625,0.0040086405351758,0.018162313848733902,0.02720455266535282
1783169800186726400,0.340726318359375,0.007831284776329994,0.010012192651629448,0.024945637211203575
1783169800196796400,0.35079638671875,0.01099165715277195,0.002013122197240591,0.017726073041558266
1783169800206866200,0.3608662109375,0.022326314821839333,-0.00024192780256271362,0.00420070206746459
1783169800216935400,0.370935302734375,0.024868568405508995,-0.006790108047425747,0.0022653830237686634
1783169800227005200,0.381005126953125,0.02468746528029442,-0.012590878643095493,0.012919189408421516
1783169800237075500,0.391075439453125,0.019313208758831024,-0.013761336915194988,0.02148977480828762
1783169800247145500,0.4011455078125,0.019053593277931213,-0.010514374822378159,0.021016746759414673
1783169800257215200,0.41121533203125,0.014126213267445564,-0.003967260010540485,0.013348176144063473
1783169800267285200,0.42128515625,0.00937674567103386,0.005222255829721689,0.00567035423591733
1783169800277354200,0.431354248046875,-0.0015169146936386824,0.008801011368632317,0.001750181196257472
1783169800287424300,0.44142431640625,-0.008224798366427422,0.01144826877862215,-0.0009146849624812603
1783169800297494500,0.45149462890625,-0.011856285855174065,0.011253591626882553,-0.0007098880596458912
1783169800307564300,0.461564208984375,-0.011684388853609562,0.006567103322595358,0.005455947481095791
1783169800317634300,0.47163427734375,-0.007926935330033302,0.005544449668377638,0.004343811422586441
1783169800327703300,0.481703369140625,0.0022843938786536455,0.006470406427979469,-0.0004926351830363274
1783169800337773300,0.491773193359375,0.007287674583494663,0.001462864689528942,0.009156796149909496
1783169800347843300,0.50184326171875,0.008449914865195751,-0.004052379168570042,0.01842517778277397
1783169800357913300,0.511913330078125,0.006733773276209831,-0.007327800616621971,0.004039580933749676
1783169800367983400,0.5219833984375,0.008087384514510632,-0.013216909021139145,-0.003551059402525425
1783169800378052400,0.53205224609375,0.008305497467517853,-0.01426859013736248,-0.0037300242111086845
1783169800388122400,0.542122314453125,0.008046179078519344,-0.022517671808600426,-0.008264489471912384
1783169800398192400,0.5521923828125,-0.0017689007800072432,-0.028726032003760338,-0.0068175941705703735
1783169800408262100,0.56226220703125,-0.006212370004504919,-0.02358824945986271,0.0025442889891564846
1783169800418332400,0.57233251953125,-0.005074667744338512,-0.02058393880724907,0.002024706220254302
1783169800428402400,0.58240234375,-0.0037825386971235275,-0.019758256152272224,-0.0010915067978203297
1783169800438471400,0.592471435546875,0.005066879093647003,-0.023623833432793617,-0.005492113996297121
1783169800448541400,0.60254150390625,0.005749965086579323,-0.0004191910848021507,-0.00613613985478878
1783169800458611200,0.612611083984375,0.011060308665037155,0.011337599717080593,-0.00037252670153975487
1783169800468681200,0.62268115234375,0.005547565408051014,0.03415316715836525,-0.0052895210683345795
1783169800478751500,0.63275146484375,0.005857823416590691,0.050674885511398315,-0.023438431322574615
1783169800488820200,0.6428203125,0.006253072991967201,0.05158025771379471,-0.033292874693870544
1783169800498890500,0.652890380859375,-0.00012679549399763346,0.0423223078250885,-0.02665095403790474
1783169800508960300,0.662960205078125,-0.007646252866834402,0.030177345499396324,-0.02400268241763115
1783169800519030300,0.6730302734375,-0.01361146755516529,0.03448687493801117,-0.02436833456158638
1783169800529100500,0.6831005859375,-0.009279265999794006,0.02340109646320343,-0.02208835259079933
1783169800539169300,0.693169189453125,-0.004884518217295408,0.03272242844104767,-0.03193086385726929
1783169800549239300,0.7032392578125,0.0078030843287706375,0.030584070831537247,-0.04116559401154518
1783169800559309300,0.713309326171875,0.015050876885652542,0.03181524947285652,-0.04975588619709015
1783169800569379300,0.72337939453125,0.022996114566922188,0.025006983429193497,-0.058146752417087555
1783169800579449300,0.733449462890625,0.0206096563488245,0.017609253525733948,-0.05698747932910919
1783169800589519400,0.743519287109375,0.014636645093560219,0.0033413064666092396,-0.04446140304207802
1783169800599588400,0.75358837890625,0.016493134200572968,-0.021031944081187248,-0.03904453292489052
1783169800609658400,0.763658447265625,0.01489616185426712,-0.054549720138311386,-0.027899252250790596
1783169800619728400,0.773728271484375,0.007380188442766666,-0.08251450955867767,-0.0074938456527888775
1783169800629798400,0.78379833984375,0.004882818087935448,-0.09767451882362366,0.009909428656101227
1783169800639868200,0.7938681640625,0.009874913841485977,-0.09327764064073563,0.012713470496237278
1783169800649937400,0.8039375,0.009342258796095848,-0.0852893739938736,0.004865956958383322
1783169800660007200,0.814007080078125,0.006380024366080761,-0.0748836025595665,-0.0004499792121350765
1783169800670077400,0.824077392578125,0.009203530848026276,-0.07441047579050064,-0.00589723140001297
1783169800680147500,0.8341474609375,0.011070406064391136,-0.07689600437879562,-0.0124214431270957
1783169800690217200,0.84421728515625,0.007310628890991211,-0.06858768314123154,-0.005853191018104553
1783169800700286500,0.854286376953125,-0.0060640317387878895,-0.06101418286561966,0.0019927481189370155
1783169800710356200,0.864356201171875,-0.007711219601333141,-0.05392713472247124,0.0006955468561500311
1783169800720426200,0.87442626953125,-0.011977070942521095,-0.04919096827507019,-0.003352990373969078
1783169800730496500,0.88449658203125,-0.012668189592659473,-0.04477094113826752,0.0022251205518841743
1783169800740566300,0.894566162109375,-0.014451708644628525,-0.03841504082083702,0.013976585119962692
1783169800750635300,0.90463525390625,-0.012629307806491852,-0.03196539729833603,0.012175489217042923
1783169800760705300,0.914705322265625,-0.013825333677232265,-0.03082210198044777,0.0035617612302303314
1783169800770775300,0.924775390625,-0.011724337004125118,-0.025800425559282303,-0.00812510959804058
1783169800780845300,0.93484521484375,-0.010322981514036655,-0.01473339181393385,0.000858532264828682
1783169800790915300,0.944915283203125,-0.01132778450846672,-0.003164215013384819,0.012408831156790257
1783169800800985300,0.9549853515625,-0.013443665578961372,0.007479108404368162,0.012700713239610195
1783169800811054300,0.965054443359375,-0.007553147152066231,0.013485899195075035,0.002169016981497407
1783169800821124400,0.975124267578125,-0.00177941401489079,0.02073848620057106,-0.011854125186800957
1783169800831193600,0.985193603515625,0.0039709582924842834,0.015732601284980774,-0.01968477852642536
1783169800841263900,0.995263916015625,-0.0003958265297114849,0.004940408281981945,-0.011168522760272026
1783169800851334000,1.005333984375,0.0009197679464705288,-0.007064995355904102,-0.006970751099288464
1783169800861402600,1.015402587890625,-0.0010634881909936666,-0.011001413688063622,0.0011092792265117168
1783169800871473000,1.025472900390625,-0.0067473044618964195,-0.012196852825582027,0.016615450382232666
1783169800881543000,1.03554296875,-0.003907043486833572,-0.014486105181276798,0.01820296049118042
1783169800891612700,1.04561279296875,-0.005332512781023979,-0.01100072916597128,0.0069889831356704235
1783169800901683000,1.055682861328125,-0.004021172411739826,-0.009458492510020733,0.009246278554201126
1783169800911751700,1.065751708984375,-0.004815379157662392,-0.00919048860669136,0.003845263971015811
1783169800921822000,1.075822021484375,-0.009154467843472958,-0.004074555821716785,-0.0011521577835083008
1783169800931892000,1.08589208984375,-0.013371597975492477,-0.0028047729283571243,-0.009498579427599907
1783169800941961700,1.095961669921875,-0.01868300698697567,-0.00906799454241991,-0.01721455529332161
1783169800952031700,1.10603173828125,-0.022505419328808784,-0.005476837977766991,-0.015402562916278839
1783169800962100700,1.116100830078125,-0.02132990024983883,-0.002907419577240944,0.0020251628011465073
1783169800972170800,1.126170654296875,-0.01737409271299839,-0.008227791637182236,0.005287674255669117
1783169800982241000,1.136240966796875,-0.017835885286331177,-0.006160645745694637,0.0065553393214941025
1783169800992310800,1.146310791015625,-0.02169017307460308,-0.007747538387775421,0.00981716439127922
1783169801002380800,1.156380859375,-0.02320284955203533,-0.006784806028008461,0.011371917091310024
1783169801012449800,1.16644970703125,-0.023622319102287292,-0.010072629898786545,0.009183354675769806
1783169801022519800,1.176519775390625,-0.019060324877500534,-0.015690302476286888,0.008075745776295662
1783169801032589800,1.18658984375,-0.009915675036609173,-0.01588253676891327,0.005630538798868656
1783169801042659800,1.196659912109375,-0.003133402904495597,-0.018222659826278687,0.00028557470068335533
1783169801052729900,1.206729736328125,0.003616773523390293,-0.01939234882593155,-0.002386675216257572
1783169801062798800,1.216798828125,-0.0004346934147179127,-0.025815628468990326,0.007681138813495636
1783169801072868900,1.226868896484375,-0.003565284190699458,-0.027665231376886368,0.024444185197353363
1783169801082939000,1.23693896484375,-0.0010920066852122545,-0.022657956928014755,0.02363724820315838
1783169801093008600,1.247008544921875,-0.00332815945148468,-0.009874963201582432,0.012127842754125595
1783169801103079000,1.257078857421875,-0.0020160197746008635,0.0034608165733516216,0.011568846181035042
1783169801113147600,1.267147705078125,-0.0022469968535006046,0.002167917788028717,0.02460554987192154
1783169801123218000,1.277218017578125,-0.002670173067599535,0.01603393256664276,0.018846463412046432
1783169801133288000,1.287287841796875,0.0062689706683158875,0.0175097044557333,0.00032846303656697273
1783169801143357700,1.297357666015625,0.013212364166975021,0.02598761022090912,-0.013167904689908028
1783169801153427700,1.307427734375,0.015798907727003098,0.02048572152853012,-0.01083230972290039
1783169801163496700,1.31749658203125,0.012836141511797905,0.02312837541103363,-0.015372999012470245
1783169801173566700,1.327566650390625,0.013513270765542984,0.013706420548260212,-0.004687216132879257
1783169801183637000,1.337636962890625,0.009243158623576164,0.01764337159693241,0.014676361344754696
1783169801193706800,1.347706787109375,0.008449641056358814,0.02001606673002243,0.028211859986186028
1783169801203776800,1.35777685546875,0.011232111603021622,0.026224959641695023,0.01860130950808525
1783169801213845800,1.367845703125,0.013477089814841747,0.02948634698987007,0.007582818157970905
1783169801223915800,1.377915771484375,0.01252820622175932,0.028860770165920258,0.002915894379839301
1783169801233985800,1.38798583984375,0.011255740188062191,0.03394140675663948,0.00835523009300232
1783169801244055800,1.398055908203125,0.015211598947644234,0.03099515289068222,0.014543084427714348
1783169801254125800,1.408125732421875,0.01608455367386341,0.026210227981209755,0.012128248810768127
1783169801264194800,1.41819482421875,0.01944945752620697,0.02474335953593254,0.013725879602134228
1783169801274264800,1.428264892578125,0.03159885108470917,0.031709831207990646,0.015024828724563122
1783169801284334800,1.4383349609375,0.03568973392248154,0.03731099143624306,0.015659194439649582
1783169801294404900,1.44840478515625,0.03454049676656723,0.042809419333934784,0.021421466022729874
1783169801304475000,1.458474853515625,0.030705278739333153,0.0481027215719223,0.022503508254885674
1783169801314545000,1.468544921875,0.02625972218811512,0.06053147092461586,0.017194261774420738
1783169801324614000,1.47861376953125,0.023173386231064796,0.06839153170585632,0.0048965830355882645
1783169801334684000,1.488683837890625,0.01916852407157421,0.07319720089435577,-0.0019693123176693916
1783169801344753700,1.498753662109375,0.013108767569065094,0.0726746916770935,-0.012684008106589317
1783169801354824000,1.508823974609375,0.01409948617219925,0.06832882761955261,-0.021030645817518234
1783169801364894000,1.51889404296875,0.015526940114796162,0.060587018728256226,-0.020245809108018875
1783169801374962700,1.528962646484375,0.015149821527302265,0.05461886525154114,-0.01504313200712204
1783169801385033000,1.539032958984375,0.014408131130039692,0.049361784011125565,-0.011043330654501915
1783169801395102700,1.549102783203125,0.010725289583206177,0.0377080924808979,-0.009005792438983917
1783169801405172700,1.5591728515625,0.006572889629751444,0.03162836283445358,-0.004725027363747358
1783169801415243000,1.569242919921875,0.006864734925329685,0.02789684385061264,0.0043677533976733685
1783169801425311700,1.579311767578125,-0.0027724464889615774,0.02674476057291031,0.003460148349404335
1783169801435382000,1.589382080078125,-0.004391388967633247,0.026183493435382843,-0.011608187109231949
1783169801445451800,1.59945166015625,-0.0014954679645597935,0.023193564265966415,-0.019665582105517387
1783169801455521800,1.609521728515625,0.0010768414940685034,0.018100636079907417,-0.021814804524183273
1783169801465591800,1.619591796875,-0.003809526562690735,0.002195972017943859,-0.004256050102412701
1783169801475660800,1.629660888671875,-0.005855344235897064,-0.005179234780371189,-0.00591468857601285
1783169801485730800,1.639730712890625,-0.0016651262994855642,-0.00828634575009346,-0.01854552887380123
1783169801495800800,1.64980078125,-0.00032723788172006607,-0.0175655297935009,-0.021195920184254646
1783169801505870800,1.659870849609375,-0.0025765434838831425,-0.02213631197810173,-0.015376381576061249
1783169801515940900,1.66994091796875,-0.005331256426870823,-0.022159434854984283,-0.01225485373288393
1783169801526009900,1.680009765625,-0.007080154027789831,-0.017770811915397644,-0.00979009922593832
1783169801536080000,1.690079833984375,-0.007060713600367308,-0.0039623212069272995,-0.012456721626222134
1783169801546149600,1.700149658203125,-0.008200813084840775,0.0003243023529648781,-0.01631404459476471
1783169801556220000,1.710219970703125,-0.01007806695997715,0.0015146080404520035,-0.011906343512237072
1783169801566290000,1.7202900390625,-0.010248775593936443,0.008573316037654877,-0.012568139471113682
1783169801576359000,1.73035888671875,-0.006691660266369581,0.013281865045428276,-0.014088209718465805
1783169801586429000,1.740428955078125,-0.010421684011816978,0.008960619568824768,-0.013844531029462814
1783169801596498700,1.750498779296875,-0.01066497527062893,0.009976445697247982,-0.008697908371686935
1783169801606568700,1.760568603515625,-0.011494550853967667,0.015208492055535316,-0.006538350600749254
1783169801616639000,1.770638916015625,-0.01344078779220581,0.016895338892936707,-0.009740268811583519
1783169801626707700,1.780707763671875,-0.015429636463522911,0.01636776700615883,-0.011737106367945671
1783169801636778000,1.790778076171875,-0.021314803510904312,0.015452747233211994,-0.0059209223836660385
1783169801646847700,1.80084765625,-0.021342767402529716,0.014218905009329319,-0.005133425816893578
1783169801656917800,1.810917724609375,-0.019317196682095528,0.01593928225338459,-0.0038906787522137165
1783169801666987800,1.82098779296875,-0.0175203625112772,0.011442268267273903,-0.0056006950326263905
1783169801677056800,1.831056884765625,-0.019434604793787003,0.005134467966854572,-0.003014975693076849
1783169801687126800,1.841126708984375,-0.01731020212173462,-0.0012504607439041138,-0.0008271890692412853
1783169801697196800,1.85119677734375,-0.016230851411819458,-0.011084472760558128,0.0072353798896074295
1783169801707266800,1.861266845703125,-0.019405074417591095,-0.017070459201931953,0.014085562899708748
1783169801717335800,1.871335693359375,-0.019538968801498413,-0.023056931793689728,0.008680978789925575
1783169801727405800,1.88140576171875,-0.013067488558590412,-0.02144039422273636,-0.004942688625305891
1783169801737475800,1.891475830078125,-0.006507864221930504,-0.030720051378011703,-0.007794837933033705
1783169801747545600,1.901545654296875,-0.003566668601706624,-0.03371397778391838,0.005932159256190062
1783169801757615900,1.911615966796875,-0.007337773684412241,-0.04030415415763855,0.01159756164997816
1783169801767684600,1.9216845703125,-0.01111253909766674,-0.03711874783039093,0.006815589964389801
1783169801777755000,1.9317548828125,-0.008208885788917542,-0.03171559050679207,0.002655637450516224
1783169801787825000,1.941824951171875,-0.00843765214085579,-0.030054043978452682,0.0030761505477130413
1783169801797894700,1.951894775390625,-0.009073356166481972,-0.022839676588773727,0.01168597862124443
1783169801807965000,1.96196484375,-0.006849349942058325,-0.015404931269586086,0.011193027719855309
1783169801818033700,1.97203369140625,-0.004602205939590931,-0.016878748312592506,0.0003080032765865326
1783169801828105000,1.98210498046875,-0.0030559746082872152,-0.016622552648186684,-0.0020433017052710056
1783169801838175000,1.992175048828125,-0.00908292829990387,-0.01970033161342144,-0.00811081938445568
1783169801848245000,2.002244873046875,-0.010094396770000458,-0.018600445240736008,-0.012950316071510315
1783169801858315000,2.01231494140625,-0.006845629774034023,-0.026418572291731834,-0.014172688126564026
1783169801868384000,2.022384033203125,-0.0008410003501921892,-0.03552471846342087,-0.0032713040709495544
1783169801878454000,2.0324541015625,0.004151893779635429,-0.04142442345619202,-0.002306707203388214
1783169801888524000,2.04252392578125,0.009620162658393383,-0.03733300417661667,-0.0004544788971543312
1783169801898593800,2.05259375,0.009793181903660297,-0.034736089408397675,0.0062508056871593
1783169801908664000,2.0626640625,0.006076473742723465,-0.029158364981412888,0.01715325564146042
1783169801918732800,2.07273291015625,-0.0022908563259989023,-0.02303425222635269,0.004683672450482845
1783169801928803000,2.082802978515625,-0.0063085006549954414,-0.015825074166059494,-0.0034597418271005154
1783169801938873000,2.092873046875,-0.007776678539812565,-0.010476763360202312,-0.0008594500832259655
1783169801948942800,2.10294287109375,-0.0053127221763134,-0.00763250607997179,0.002022622851654887
1783169801959012900,2.113012939453125,-0.0049636997282505035,-0.013012048788368702,-0.0033251838758587837
1783169801969081900,2.123081787109375,0.0017258942825719714,-0.01742091029882431,-0.010629702359437943
1783169801979152000,2.13315185546875,0.0016983702080324292,-0.027228936553001404,-0.002818872220814228
1783169801989222100,2.14322216796875,0.004416125826537609,-0.03485729545354843,0.0037482166662812233
1783169801999292000,2.1532919921875,0.004097117111086845,-0.03669231757521629,0.006480674725025892
1783169802009362000,2.16336181640625,0.004281408153474331,-0.03944788873195648,0.004700085148215294
1783169802019431000,2.173430908203125,0.00954409595578909,-0.03037981316447258,0.004150750115513802
1783169802029501000,2.1835009765625,0.013180907815694809,-0.021645445376634598,-0.001824051607400179
1783169802039571000,2.193571044921875,0.009343969635665417,-0.015540776774287224,0.003656129352748394
1783169802049641000,2.203640869140625,-0.0001264974707737565,-0.012460829690098763,0.006018885876983404
1783169802059711000,2.2137109375,-0.004422137513756752,-0.00783049687743187,-0.003229415975511074
1783169802069780000,2.223780029296875,-0.004554230719804764,-0.010566627606749535,-0.010776281356811523
1783169802079850000,2.23385009765625,-0.0052576493471860886,-0.016976650804281235,-0.011821156367659569
1783169802089920000,2.243919921875,-0.0032139397226274014,-0.031242135912179947,-0.006032509729266167
1783169802099990000,2.253989990234375,-0.002097769407555461,-0.04032335430383682,-0.007213562726974487
1783169802110060000,2.26406005859375,0.0009060100419446826,-0.04519640654325485,-0.0049757082015275955
1783169802120128800,2.274128662109375,-0.004451980348676443,-0.052475474774837494,-0.006605848204344511
1783169802130199000,2.284198974609375,-0.007228858768939972,-0.05264218896627426,-0.0024465229362249374
1783169802140269000,2.29426904296875,-0.00772556196898222,-0.04740549623966217,-0.00009147077798843384
1783169802150338800,2.3043388671875,-0.007905857637524605,-0.043705835938453674,0.005206621717661619
1783169802160409000,2.3144091796875,-0.0032080726232379675,-0.03458027169108391,0.0010942812077701092
1783169802170477800,2.324477783203125,0.0009286155109293759,-0.028012383729219437,-0.007395343389362097
1783169802180547800,2.3345478515625,0.0019124728860333562,-0.025267262011766434,-0.013408474624156952
1783169802190618000,2.3446181640625,-0.0016463091596961021,-0.02477378025650978,-0.006889322306960821
1783169802200687900,2.35468798828125,-0.004330525174736977,-0.029159754514694214,-0.004087753128260374
1783169802210757000,2.364757080078125,0.00046875758562237024,-0.03466317430138588,-0.010233528912067413
1783169802220827000,2.374826904296875,0.0024458258412778378,-0.04232167452573776,-0.00838932953774929
1783169802230897000,2.38489697265625,0.003463685978204012,-0.04525142163038254,-0.00116790272295475
1783169802240967000,2.394966796875,0.005118918605148792,-0.04352349787950516,0.007408656179904938
1783169802251037000,2.405036865234375,0.0017388347769156098,-0.035987820476293564,0.009421207010746002
1783169802261106000,2.41510595703125,-0.0014024493284523487,-0.02623685449361801,0.0008910819888114929
1783169802271176000,2.425176025390625,0.0022519403137266636,-0.012911726720631123,-0.010462505742907524
1783169802281246000,2.435245849609375,0.00270029716193676,-0.002605847083032131,-0.015402082353830338
1783169802291316000,2.44531591796875,0.0009865531465038657,0.005419588647782803,-0.012208418920636177
1783169802301386000,2.455385986328125,0.0011375236790627241,0.01084815338253975,-0.00721487682312727
1783169802311455000,2.465455078125,0.0067461407743394375,0.01160688791424036,-0.011270072311162949
1783169802321524700,2.475524658203125,0.007124057039618492,0.015089848078787327,-0.01440451480448246
1783169802331595000,2.485594970703125,0.006923520937561989,0.01562620885670185,-0.0036482741124927998
1783169802341665000,2.4956650390625,0.005341151729226112,0.02147669903934002,0.003753575962036848
1783169802351734800,2.50573486328125,0.007569684647023678,0.019816484302282333,0.004357847385108471
1783169802361804000,2.515803955078125,0.006923681125044823,0.026127703487873077,0.0004617630038410425
1783169802371873800,2.525873779296875,0.00657427404075861,0.028343718498945236,-0.004874945152550936
1783169802381944000,2.535944091796875,0.00555444648489356,0.023561004549264908,-0.002177800051867962
1783169802392014000,2.54601416015625,0.005075610242784023,0.016453027725219727,-0.007398128975182772
1783169802402083800,2.556083740234375,0.00015071372035890818,0.0013323291204869747,-0.008588002994656563
1783169802412153000,2.566153076171875,-0.0048863887786865234,-0.011422082781791687,-0.00119719747453928
1783169802422222800,2.576222900390625,-0.008035616017878056,-0.019348343834280968,0.00810143630951643
1783169802432292900,2.58629296875,-0.010575206950306892,-0.015907539054751396,0.006059857085347176
1783169802442363100,2.596363037109375,-0.005390556529164314,-0.012801089324057102,0.005187843460589647
1783169802452433000,2.606432861328125,0.00008863059338182211,-0.007171167992055416,0.0025033773854374886
1783169802462502000,2.616501953125,-0.0005062881391495466,-0.005529039539396763,0.0009165534283965826
1783169802472572200,2.626572265625,0.0004580424865707755,-0.0033793356269598007,0.002544810064136982
1783169802482642000,2.636641845703125,0.002140933182090521,0.0011354181915521622,-0.006130112335085869
1783169802492712000,2.6467119140625,0.004937518388032913,0.00394958071410656,-0.00998876616358757
1783169802502781000,2.656781005859375,0.003444346133619547,0.009673292748630047,-0.00890588853508234
1783169802512851000,2.666850830078125,0.0007007576059550047,0.013436339795589447,-0.009572210721671581
1783169802522921000,2.6769208984375,-0.0024277663324028254,0.021101899445056915,-0.008073916658759117
1783169802532991000,2.686990966796875,-0.0037676028441637754,0.021886201575398445,-0.008017724379897118
1783169802543061000,2.69706103515625,-0.0016520512290298939,0.024276074022054672,-0.00398840568959713
1783169802553130000,2.7071298828125,-0.0032547416631132364,0.02498793788254261,-0.0014040740206837654
1783169802563200000,2.717199951171875,-0.0004147067666053772,0.022903379052877426,-0.003434140235185623
1783169802573270000,2.72727001953125,0.0008151410147547722,0.02039548009634018,-0.002163279801607132
1783169802583340000,2.737340087890625,0.004548618569970131,0.022833462804555893,-0.012264289893209934
1783169802593410000,2.74741015625,0.007195534184575081,0.01746453158557415,-0.011580921709537506
1783169802603478800,2.757478759765625,0.005387561861425638,0.015539100393652916,-0.00796465016901493
1783169802613549000,2.767549072265625,0.008718110620975494,0.005211361683905125,-0.004900150932371616
1783169802623619000,2.777619140625,0.005294271744787693,-0.003549165092408657,0.01051623560488224
1783169802633688800,2.787688720703125,0.0011240278836339712,-0.007243501953780651,0.012114664539694786
1783169802643759000,2.797759033203125,-0.003903972916305065,-0.007772103883326054,0.014153281226754189
1783169802653827800,2.807827880859375,-0.005309855565428734,-0.005340371280908585,0.014606017619371414
1783169802663898000,2.817898193359375,-0.006858491338789463,0.0015701260417699814,0.0030562495812773705
1783169802673968000,2.827968017578125,-0.004987620748579502,0.006913226097822189,-0.0046237739734351635
1783169802684038000,2.838037841796875,-0.004999951459467411,0.01008632406592369,-0.006047357805073261
1783169802694107100,2.848107177734375,-0.002436392242088914,0.007275356911122799,-0.0017404938116669655
1783169802704177000,2.858177001953125,-0.0010187514126300812,-0.0011318139731884003,0.0016066294629126787
1783169802714247000,2.868246826171875,-0.0010427199304103851,-0.012006033211946487,0.00008356780745089054
1783169802724317200,2.878317138671875,-0.004909582436084747,-0.02571994438767433,0.005927042104303837
1783169802734387000,2.888386962890625,-0.0040379296988248825,-0.032244157046079636,0.007500704377889633
1783169802744456000,2.8984560546875,-0.0023153028450906277,-0.02980436570942402,0.015829667448997498
1783169802754526000,2.90852587890625,0.0011702422052621841,-0.018404170870780945,0.015880268067121506
1783169802764596000,2.918595947265625,0.004428752698004246,-0.007438305765390396,0.0035519746597856283
1783169802774666000,2.928666015625,0.005402670241892338,0.00424018781632185,-0.006726229563355446
1783169802784736000,2.938736083984375,-0.0031738379038870335,0.011487401090562344,-0.00951780192553997
1783169802794805000,2.948804931640625,-0.006034072954207659,0.016868051141500473,-0.0057792565785348415
1783169802804875000,2.958875,-0.009307009167969227,0.0314147025346756,-0.008045575581490993
1783169802814945000,2.968945068359375,-0.005930121056735516,0.03237050771713257,-0.005462575703859329
1783169802825015000,2.97901513671875,-0.005277631338685751,0.025356288999319077,-0.005334401037544012
1783169802835084300,2.989084228515625,-0.0059064035303890705,0.016188889741897583,-0.0038409000262618065
1783169802845153300,2.9991533203125,-0.0035663156304508448,0.00687286164611578,-0.009114646352827549
1783169802855223300,3.009223388671875,-0.00027384934946894646,-0.0020820172503590584,-0.0096944160759449
1783169802865293300,3.019293212890625,-0.0008555480744689703,-0.009801235049962997,-0.0035795792937278748
1783169802875363300,3.02936328125,-0.0030803531408309937,-0.01373365893959999,0.0025946935638785362
1783169802885433000,3.03943310546875,-0.006054006516933441,-0.017443686723709106,0.01065011415630579
1783169802895502300,3.04950244140625,-0.0020265078637748957,-0.007096506655216217,0.00040227011777460575
1783169802905572400,3.059572265625,0.0004906392423436046,-0.0014944663271307945,-0.007047879043966532
1783169802915642400,3.069642333984375,-0.0005567821208387613,0.003277386073023081,-0.0009953128173947334
1783169802925712400,3.07971240234375,-0.005390395410358906,0.0026050880551338196,-0.0007937257178127766
1783169802935781000,3.089781005859375,-0.006936360150575638,0.006318333558738232,-0.009700668044388294
1783169802945851400,3.099851318359375,-0.006660908460617065,0.007399102207273245,-0.011121870018541813
1783169802955921400,3.10992138671875,-0.0022773456294089556,0.0005036452785134315,-0.01366279274225235
1783169802965991200,3.1199912109375,0.004639674909412861,-0.0025511393323540688,-0.013062422163784504
1783169802976061400,3.1300615234375,0.011697583831846714,-0.004698446020483971,-0.01656687632203102
1783169802986130200,3.140130126953125,0.008012897334992886,-0.002734850160777569,0.0019336147233843803
1783169802996200400,3.150200439453125,0.004268759861588478,0.0027081179432570934,0.010663723573088646
1783169803006270500,3.1602705078125,0.0017974685179069638,0.009784831665456295,0.005609140265733004
1783169803016340200,3.17034033203125,0.006043878849595785,0.021055594086647034,-0.00654978770762682
1783169803026409500,3.180409423828125,0.004539782181382179,0.026797011494636536,-0.012952683493494987
1783169803036479200,3.190479248046875,0.0025378838181495667,0.03279444947838783,-0.01700175367295742
1783169803046549200,3.20054931640625,-0.0016709438059478998,0.03396520018577576,-0.021583300083875656
1783169803056619500,3.21061962890625,0.0007016664603725076,0.038353823125362396,-0.028094196692109108
1783169803066689300,3.220689208984375,-0.0008714469149708748,0.03299661725759506,-0.02773192897439003
1783169803076758300,3.23075830078125,0.0014838527422398329,0.02359992265701294,-0.013059508986771107
1783169803086828300,3.240828369140625,-0.001876362133771181,0.015646182000637054,-0.009253162890672684
1783169803096898300,3.250898193359375,-0.0042106229811906815,0.005880104377865791,-0.006632878445088863
1783169803106968300,3.26096826171875,-0.007229767739772797,0.0012611760757863522,-0.01159129198640585
1783169803117038300,3.271038330078125,-0.007862002588808537,-0.014329502359032631,-0.0025053853169083595
1783169803127107300,3.281107421875,-0.0070021976716816425,-0.027580153197050095,0.000486577395349741
1783169803137177300,3.29117724609375,-0.001358692767098546,-0.027528487145900726,0.0040999543853104115
1783169803147247400,3.301247314453125,-0.003999345004558563,-0.029972240328788757,-0.00021303026005625725
1783169803157317400,3.3113173828125,-0.0031010613311082125,-0.03149876371026039,0.007915470749139786
1783169803167387100,3.32138720703125,-0.00673132948577404,-0.028341401368379593,0.007622770499438047
1783169803177456400,3.331456298828125,-0.00994549784809351,-0.027101166546344757,0.000413060886785388
1783169803187526100,3.341526123046875,-0.01128365658223629,-0.018219998106360435,0.0014925682917237282
1783169803197596400,3.351596435546875,-0.012512970715761185,-0.01187102310359478,0.00026485114358365536
1783169803207666400,3.36166650390625,-0.005918443202972412,-0.010972333140671253,-0.00726000452414155
1783169803217735200,3.371735107421875,-0.006272910162806511,-0.0022068042308092117,-0.010379098355770111
1783169803227805400,3.381805419921875,-0.0028166596312075853,0.003107000607997179,-0.013766905292868614
1783169803237875200,3.391875244140625,-0.004029463045299053,0.004238045308738947,-0.010143674910068512
1783169803247945200,3.4019453125,-0.008619502186775208,0.0068596042692661285,-0.018784163519740105
1783169803258015500,3.412015380859375,-0.009270911104977131,0.0028115990571677685,-0.020480863749980927
1783169803268084200,3.422084228515625,-0.0081790154799819,0.001148188952356577,-0.012337982654571533
1783169803278154500,3.432154541015625,-0.0036881265696138144,-0.005972305312752724,-0.011998962610960007
1783169803288224300,3.442224365234375,0.00216746237128973,-0.011404551565647125,-0.014087206684052944
1783169803298294300,3.452294189453125,-0.003934904932975769,-0.02564340829849243,-0.014891746453940868
1783169803308364300,3.4623642578125,-0.00733049213886261,-0.026714704930782318,-0.016529200598597527
1783169803318433300,3.472433349609375,-0.005399167072027922,-0.024064861238002777,-0.007014257833361626
1783169803328503300,3.48250341796875,-0.00873449444770813,-0.02495887316763401,0.004437146708369255
1783169803338573300,3.4925732421875,-0.0038545175921171904,-0.018798714503645897,0.011533671990036964
1783169803348643300,3.502643310546875,0.003632741514593363,-0.01952226087450981,0.001508170971646905
1783169803358712300,3.51271240234375,0.0008366887341253459,-0.021112967282533646,0.0027204419020563364
1783169803368782300,3.5227822265625,-0.008514639921486378,-0.020894307643175125,0.008263645693659782
1783169803378852400,3.532852294921875,-0.010950899682939053,-0.014360508881509304,0.01242749858647585
1783169803388922000,3.542922119140625,-0.014005922712385654,-0.006913536228239536,0.0033648484386503696
1783169803398992400,3.552992431640625,-0.008213280700147152,0.0029502795077860355,-0.008611919358372688
1783169803409061000,3.56306103515625,-0.002087470144033432,0.010747089050710201,-0.013546318747103214
1783169803419131400,3.57313134765625,-0.0005492281634360552,0.012222213670611382,-0.009771820157766342
1783169803429201400,3.583201416015625,0.0019249517936259508,0.012372834607958794,-0.005442578345537186
1783169803439271200,3.593271240234375,-0.00009345798753201962,0.011173613369464874,-0.007552335038781166
1783169803449341200,3.603341064453125,0.0009668852435424924,0.011349079199135303,-0.007768840994685888
1783169803459410200,3.61341015625,0.001394588965922594,0.012013271450996399,-0.010422147810459137
1783169803469480200,3.623480224609375,0.01033172756433487,0.011998509056866169,0.001440906198695302
1783169803479550500,3.633550537109375,0.00901479460299015,0.011920211836695671,0.004312060307711363
1783169803489620200,3.6436201171875,0.007526702247560024,0.008412886410951614,-0.0016607427969574928
1783169803499689200,3.653689208984375,0.008857217617332935,0.009222753345966339,-0.007893605157732964
1783169803509759200,3.66375927734375,0.008419427089393139,0.008091199211776257,-0.006599416956305504
1783169803519829200,3.673829345703125,0.007127260789275169,0.00974182691425085,-0.0036574224941432476
1783169803529899300,3.683899169921875,0.003735523670911789,0.012364819645881653,-0.005241422913968563
1783169803539969300,3.69396923828125,0.004953387193381786,0.01758035458624363,-0.008557057939469814
1783169803550038300,3.704038330078125,0.007194847799837589,0.014108970761299133,-0.0076911915093660355
1783169803560108300,3.7141083984375,0.009407135657966137,0.018312504515051842,-0.012184742838144302
1783169803570178300,3.72417822265625,0.00801028311252594,0.016446543857455254,-0.008028067648410797
1783169803580248300,3.734248291015625,0.008204693906009197,0.0112765496596694,-0.013375429436564445
1783169803590317300,3.7443173828125,0.0052508218213915825,0.005888382904231548,-0.011093782261013985
1783169803600387300,3.75438720703125,-0.0014523544814437628,-0.0002494044601917267,-0.005940299481153488
1783169803610457300,3.764457275390625,-0.0003128531388938427,-0.0065241241827607155,-0.0029959585517644882
1783169803620527400,3.77452734375,-0.0041209072805941105,-0.009684496559202671,0.005487541202455759
1783169803630597400,3.784597412109375,-0.0022575261536985636,-0.007874635979533195,-0.0010496140457689762
1783169803640666400,3.794666259765625,0.00043572846334427595,-0.0016825208440423012,-0.007831620052456856
1783169803650736400,3.804736328125,-0.002905174158513546,0.009539530612528324,-0.006314257625490427
1783169803660806400,3.814806396484375,-0.004882837645709515,0.019213996827602386,-0.013192402198910713
1783169803670876200,3.824876220703125,-0.0027323265094310045,0.021732686087489128,-0.01943388022482395
1783169803680946400,3.834946533203125,-0.0005730357952415943,0.016942990943789482,-0.022987069562077522
1783169803691015200,3.84501513671875,0.0003585380036383867,0.005366229917854071,-0.012184489518404007
1783169803701085400,3.85508544921875,-0.004179754294455051,-0.0009467937052249908,-0.0012452895753085613
1783169803711155500,3.865155517578125,-0.007347126491367817,-0.0007962426170706749,0.003260818077251315
1783169803721225200,3.87522509765625,-0.009245161898434162,-0.0024918774142861366,-0.0029201125726103783
1783169803731294500,3.88529443359375,-0.008237645961344242,-0.003018489107489586,-0.01094681303948164
1783169803741364200,3.8953642578125,-0.0021991946268826723,-0.002355094999074936,-0.011448818258941174
1783169803751434200,3.905434326171875,-0.0007131507154554129,0.0054879141971468925,-0.009587801061570644
1783169803761504500,3.91550439453125,0.00039126211777329445,0.008832044899463654,-0.010069034993648529
1783169803771574300,3.92557421875,0.004448936320841312,0.011674761772155762,-0.015902558341622353
1783169803781643300,3.935643310546875,0.001586836762726307,0.005456812679767609,-0.010608193464577198
1783169803791713300,3.94571337890625,-0.0005754819139838219,-0.00282888300716877,-0.00305195152759552
1783169803801783300,3.955783203125,-0.00096323830075562,-0.005876071751117706,0.00022400310263037682
1783169803811853300,3.965853271484375,0.0010461907368153334,-0.006967782974243164,-0.008552218787372112
1783169803821923300,3.97592333984375,0.0033341124653816223,-0.010934295132756233,0.002856230828911066
1783169803831992300,3.985992431640625,0.00118594104424119,-0.01356181688606739,0.006718294229358435
1783169803842062600,3.9960625,-0.000033786753192543983,-0.015225760638713837,0.002988270716741681
1783169803852132600,4.006132568359375,-0.0028080097399652004,-0.011898010969161987,0.0016067163087427616
1783169803862202400,4.016202392578125,-0.00147509784437716,-0.007977837696671486,0.002226433716714382
1783169803872271600,4.026271728515625,0.0032426840625703335,-0.0005363067612051964,-0.0007357075810432434
1783169803882341400,4.03634130859375,0.007121844217181206,0.009419920854270458,-0.00956222228705883
1783169803892411400,4.046411376953125,0.007231373805552721,0.016333138570189476,-0.012650197371840477
1783169803902481700,4.056481689453125,0.0033657955937087536,0.013584756292402744,-0.006097755860537291
1783169803912550400,4.06655029296875,-0.003866808954626322,0.016742072999477386,0.00435532396659255
1783169803922620400,4.076620361328125,-0.00453419703990221,0.019268080592155457,-0.0005749859847128391
1783169803932690400,4.0866904296875,-0.002068517031148076,0.030184414237737656,-0.006956468801945448
1783169803942760400,4.096760498046875,-0.0005150951910763979,0.04068552330136299,-0.010263849049806595
1783169803952830500,4.10683056640625,0.0037890721578150988,0.0430368073284626,-0.015765570104122162
1783169803962899500,4.1168994140625,0.008196869865059853,0.039099857211112976,-0.016582895070314407
1783169803972969500,4.126969482421875,0.007810595445334911,0.032190918922424316,-0.009989779442548752
1783169803983039500,4.13703955078125,0.009121669456362724,0.02764224074780941,-0.009041959419846535
1783169803993109500,4.147109619140625,0.011655126698315144,0.02273336425423622,-0.004942995961755514
1783169804003179500,4.157179443359375,0.005100554320961237,0.015431774780154228,0.001482945866882801
1783169804013248500,4.16724853515625,0.0007264706073328853,0.00565936416387558,0.0032514273189008236
1783169804023318500,4.177318603515625,0.0033512820955365896,-0.0037280116230249405,0.01209179125726223
1783169804033388300,4.18738818359375,-0.0004207356832921505,-0.0033588409423828125,0.008356844075024128
1783169804043458600,4.19745849609375,-0.0008191445376724005,-0.0024613551795482635,0.0022805756889283657
1783169804053527300,4.20752734375,0.0028706896118819714,0.0017455234192311764,-0.0028825076296925545
1783169804063597600,4.21759765625,0.007852398790419102,0.00507820351049304,-0.002536296844482422
1783169804073667600,4.22766748046875,0.010493139736354351,0.0030650864355266094,0.003986609634011984
1783169804083737300,4.2377373046875,0.007930380292236805,0.0022280546836555004,0.008640216663479805
1783169804093807400,4.247807373046875,0.004954105243086815,0.006632308010011911,0.008315005339682102
1783169804103876400,4.25787646484375,-0.0027048802003264427,0.009415577165782452,0.012170996516942978
1783169804113946400,4.2679462890625,-0.006701276637613773,0.017838183790445328,0.009189175441861153
1783169804124016600,4.2780166015625,-0.006466652266681194,0.029493508860468864,0.002833008300513029
1783169804134086400,4.28808642578125,-0.007444823160767555,0.02992108464241028,-0.0008603562600910664
1783169804144155400,4.2981552734375,-0.004228789359331131,0.022940408438444138,-0.004107548855245113
1783169804154225700,4.3082255859375,-0.0010241181589663029,0.014550047926604748,-0.00820185523480177
1783169804164295400,4.31829541015625,-0.003950932063162327,0.003003912977874279,-0.002733586821705103
1783169804174365400,4.328365478515625,-0.00008011737372726202,-0.009219925850629807,0.0017554003279656172
1783169804184435500,4.338435546875,0.005425968207418919,-0.01717425510287285,0.010162999853491783
1783169804194504400,4.34850439453125,0.004505587741732597,-0.023113500326871872,0.020347367972135544
1783169804204574500,4.358574462890625,-0.0013421811163425446,-0.02966221049427986,0.03344612568616867
1783169804214644500,4.36864453125,-0.003042360069230199,-0.0260190200060606,0.02800653874874115
1783169804224714500,4.378714599609375,-0.004759832285344601,-0.02108418196439743,0.015748273581266403
1783169804234783500,4.388783447265625,-0.00927840918302536,-0.0130894985049963,0.015399040654301643
1783169804244853500,4.398853515625,-0.011905085295438766,-0.0022927774116396904,0.016482148319482803
1783169804254923500,4.408923583984375,-0.011890487745404243,0.014211063273251057,0.012500748038291931
1783169804264993500,4.41899365234375,-0.005560952704399824,0.026212330907583237,-0.0036185672506690025
1783169804275063600,4.4290634765625,-0.002858302555978298,0.030770249664783478,-0.007019728887826204
1783169804285132300,4.43913232421875,-0.0017680043820291758,0.026541151106357574,0.0026944177225232124
1783169804295202600,4.44920263671875,-0.005055111367255449,0.01731065846979618,0.008474169299006462
1783169804305272600,4.4592724609375,-0.002528037875890732,0.016548726707696915,0.007962308824062347
1783169804315342300,4.46934228515625,-0.0028058793395757675,0.01810729131102562,0.008642788045108318
1783169804325411600,4.47941162109375,0.00007219880353659391,0.01655120775103569,0.0050565749406814575
1783169804335481300,4.4894814453125,0.0012783692218363285,0.01198616623878479,0.004123390186578035
1783169804345551600,4.499551513671875,-0.0001621345290914178,0.004694963339716196,0.005867227911949158
1783169804355621600,4.50962158203125,-0.0004479498602449894,0.00032507535070180893,0.005577061790972948
1783169804365691400,4.51969140625,-0.008303476497530937,-0.0069581372663378716,-0.005652956198900938
1783169804375760600,4.5297607421875,-0.00572527851909399,-0.010889367200434208,-0.010581308975815773
1783169804385830400,4.539830322265625,-0.00019256130326539278,-0.023467212915420532,-0.00014784280210733414
1783169804395900400,4.549900390625,0.0010879450710490346,-0.03218516334891319,0.0074580274522304535
1783169804405970700,4.559970703125,0.002576385857537389,-0.03506031259894371,0.0160997174680233
1783169804416039400,4.570039306640625,-0.00118536246009171,-0.03383820876479149,0.02310766652226448
1783169804426109400,4.580109375,-0.0016471545677632093,-0.029618430882692337,0.011888567358255386
1783169804436179500,4.590179443359375,0.0007214940851554275,-0.025894243270158768,0.005397539585828781
1783169804446249500,4.60024951171875,-0.0014095674268901348,-0.025645770132541656,0.0002459208481013775
1783169804456319500,4.610319580078125,0.0005945025477558374,-0.02664828859269619,-0.001043249387294054
1783169804466388500,4.620388427734375,-0.0018603992648422718,-0.022276708856225014,-0.005102439317852259
1783169804476458500,4.63045849609375,-0.002295177662745118,-0.015804000198841095,-0.00882786139845848
1783169804486528500,4.640528564453125,-0.0009191222488880157,-0.007568705826997757,-0.013021806254982948
1783169804496598500,4.6505986328125,-0.001493190648034215,-0.0041900137439370155,-0.004266273230314255
1783169804506667300,4.660667236328125,-0.0021904062014073133,0.001596769317984581,-0.005957646295428276
1783169804516737500,4.670737548828125,0.00021198159083724022,0.006856744177639484,-0.012383561581373215
1783169804526807600,4.6808076171875,0.004379295744001865,0.009788085706532001,-0.013732187449932098
1783169804536877300,4.690877197265625,0.005519211292266846,0.0021571209654212,-0.004949213471263647
1783169804546947600,4.700947509765625,0.010682814754545689,-0.006283235736191273,-0.000524371862411499
1783169804557016300,4.711016357421875,0.004783605225384235,-0.013659289106726646,-0.007026280276477337
1783169804567086300,4.72108642578125,0.004859771579504013,-0.01880318485200405,-0.003571894019842148
1783169804577156600,4.731156494140625,0.014684139750897884,-0.020429333671927452,0.008014294318854809
1783169804587226400,4.741226318359375,0.016390694305300713,-0.021651457995176315,0.005390015430748463
1783169804597295600,4.751295654296875,0.013838810846209526,-0.019411634653806686,-0.004738854710012674
1783169804607365400,4.761365478515625,0.004611756186932325,-0.015265890397131443,0.005763320717960596
1783169804617435400,4.771435302734375,0.009239539504051208,-0.010231312364339828,0.017253968864679337
1783169804627505700,4.781505615234375,0.01126886811107397,-0.00011795852333307266,0.013013950549066067
1783169804637574400,4.791574462890625,0.010295724496245384,0.006887070368975401,-0.007416744716465473
1783169804647644400,4.80164453125,0.008505281060934067,0.015950340777635574,-0.011495376005768776
1783169804657714400,4.81171435546875,0.006593148224055767,0.012909553945064545,-0.002802204340696335
1783169804667784400,4.821784423828125,0.0027376897633075714,0.011042678728699684,-0.001962243113666773
1783169804677854500,4.8318544921875,0.0028487774543464184,0.012732475996017456,-0.01217077486217022
1783169804687923500,4.84192333984375,0.007255776319652796,0.016117621213197708,-0.013756688684225082
1783169804697993500,4.851993408203125,0.0054967161267995834,0.012783447280526161,-0.0062644872814416885
1783169804708063500,4.8620634765625,0.006697002798318863,0.008696028031408787,0.0010626676958054304
1783169804718133500,4.872133544921875,0.002110163914039731,0.001932747196406126,-0.0005951197817921638
1783169804728202500,4.882202392578125,0.0023288093507289886,0.0034653963521122932,0.0019183715339750051
1783169804738272500,4.8922724609375,0.0021648688707500696,0.0014828797429800034,0.0010226161684840918
1783169804748342500,4.902342529296875,0.007288791239261627,0.0007502441294491291,-0.0032775900326669216
1783169804758412300,4.912412353515625,0.007725557778030634,-0.00210585817694664,-0.0029810061678290367
1783169804768482600,4.922482666015625,0.0016026842640712857,-0.0074111418798565865,0.00328061799518764
1783169804778551600,4.932551513671875,-0.004626009613275528,-0.00644194521009922,0.0033404899295419455
1783169804788621300,4.942621337890625,-0.007591173052787781,-0.00496602151542902,-0.0009432048536837101
1783169804798691600,4.952691650390625,-0.005787895992398262,-0.0019480939954519272,-0.002862298861145973
1783169804808761300,4.96276123046875,-0.004832886625081301,-0.0032543744891881943,-0.003949667327105999
1783169804818830600,4.97283056640625,-0.003123737871646881,-0.007394037209451199,-0.007621429394930601
1783169804828899600,4.982899658203125,-0.002313604112714529,-0.012362164445221424,-0.006994788069278002
1783169804838969600,4.992969482421875,-0.0015683502424508333,-0.011338110081851482,-0.0005550403147935867
1783169804849040000,5.003039794921875,-0.0003896350972354412,-0.01180362980812788,0.005601921584457159
1783169804859109600,5.013109619140625,0.00017268850933760405,-0.014570746570825577,0.008795993402600288
1783169804869179000,5.023178955078125,0.00267126620747149,-0.015885282307863235,0.005559454672038555
1783169804879248600,5.03324853515625,0.004004031419754028,-0.021881576627492905,0.006940078921616077
1783169804889318700,5.043318603515625,0.004411228466778994,-0.023946324363350868,0.010972904041409492
1783169804899388700,5.053388671875,0.006000145338475704,-0.019062437117099762,0.011607497930526733
1783169804909457700,5.063457763671875,0.0096201803535223,-0.0052177272737026215,0.005885696969926357
1783169804919527700,5.073527587890625,0.010886946693062782,0.004374112002551556,-0.003492310643196106
1783169804929597700,5.08359765625,0.00834069773554802,0.00960242934525013,-0.012580614537000656
1783169804939667700,5.093667724609375,0.003262745216488838,0.01732366532087326,-0.010734206065535545
1783169804949737000,5.103737060546875,0.002002271357923746,0.02526254951953888,-0.005651829764246941
1783169804959806700,5.113806640625,-0.002399462042376399,0.026868261396884918,0.00038113631308078766
1783169804969876700,5.123876708984375,-0.002954464638605714,0.027997974306344986,-0.0073340414091944695
1783169804979946500,5.133946533203125,-0.0010661883279681206,0.021667303517460823,-0.011396635323762894
1783169804990016800,5.144016845703125,0.0013631472829729319,0.010050328448414803,-0.009575032629072666
1783169805000085800,5.154085693359375,-0.0037211452145129442,-0.0018226103857159615,-0.002361577469855547
1783169805010155800,5.16415576171875,-0.0056143868714571,-0.012207872234284878,-0.0019418634474277496
1783169805020225800,5.174225830078125,-0.006358679383993149,-0.018166258931159973,-0.006787061225622892
1783169805030295600,5.184295654296875,-0.004181545227766037,-0.021131686866283417,-0.005045620258897543
1783169805040364800,5.19436474609375,-0.006209149956703186,-0.017887473106384277,-0.002374257892370224
1783169805050434800,5.204434814453125,-0.002047960413619876,-0.017387066036462784,0.00625225342810154
1783169805060504600,5.214504638671875,-0.0013134605251252651,-0.009023941121995449,0.003560862736776471
1783169805070574800,5.224574951171875,-0.001348614227026701,-0.00274101085960865,-0.0017175222747027874
1783169805080644600,5.23464453125,-0.0017133967485278845,-0.002658449113368988,-0.0006927489303052425
1783169805090713900,5.2447138671875,-0.0032692155800759792,-0.008128048852086067,0.0024987831711769104
1783169805100783900,5.254783935546875,-0.0071499221958220005,-0.008834818378090858,0.0012803697027266026
1783169805110853600,5.264853515625,-0.00507052568718791,-0.006179912947118282,-0.005328530911356211
1783169805120923600,5.274923583984375,-0.0023380208294838667,-0.0025520874187350273,-0.010202156379818916
1783169805130992600,5.28499267578125,0.0009600379853509367,0.004231782630085945,-0.013307135552167892
1783169805141062700,5.295062744140625,0.003262797137722373,0.010053534060716629,-0.00848971214145422
1783169805151133000,5.3051328125,0.006030620075762272,0.014989703893661499,-0.006066235713660717
1783169805161200600,5.31520068359375,0.0034841056913137436,0.018215324729681015,-0.014513516798615456
1783169805171269600,5.32526953125,0.0002431655302643776,0.020034482702612877,-0.020488640293478966
1783169805181339600,5.335339599609375,0.004825041629374027,0.010761692188680172,-0.0064873830415308475
1783169805191410000,5.345409912109375,0.007720430381596088,0.007941404357552528,-0.0009962115436792374
1783169805201479700,5.355479736328125,0.007184653077274561,0.007569927256554365,-0.00916254986077547
1783169805211549000,5.365548828125,0.006582778412848711,0.008942786604166031,-0.014503252692520618
1783169805221618700,5.37561865234375,0.006193622946739197,0.0030907108448445797,-0.01460211630910635
1783169805231688700,5.385688720703125,0.006302546244114637,-0.0009242706000804901,-0.009653431363403797
1783169805241758700,5.3957587890625,0.006794655695557594,-0.005871252156794071,-0.006571428384631872
1783169805251827700,5.40582763671875,0.0036151078529655933,-0.008195925503969193,-0.007343744393438101
1783169805261897700,5.415897705078125,-0.0005612440872937441,-0.006316789425909519,-0.0013872357085347176
1783169805271967700,5.4259677734375,-0.0003338102251291275,-0.004918096587061882,0.0044285752810537815
1783169805282037800,5.436037841796875,-0.0035500924568623304,0.00010570231825113297,0.0004453675355762243
1783169805292107800,5.446107666015625,-0.002008122391998768,0.0007174303755164146,-0.004770433064550161
1783169805302176800,5.4561767578125,-0.0010337324347347021,0.0029223551973700523,0.0006215122994035482
1783169805312246800,5.466246826171875,-0.004492912441492081,-0.0013922322541475296,-0.0043391576036810875
1783169805322316500,5.476316650390625,-0.008687656372785568,-0.005880990065634251,-0.007736286148428917
1783169805332386800,5.48638671875,-0.006939026061445475,-0.007694869302213192,-0.013744376599788666
1783169805342455600,5.49645556640625,-0.005008731968700886,-0.014922932721674442,-0.012001970782876015
1783169805352525800,5.50652587890625,-0.00619463762268424,-0.021538756787776947,-0.0027967551723122597
1783169805362595800,5.516595947265625,-0.00881226733326912,-0.026071863248944283,-0.0004213904030621052
1783169805372665600,5.52666552734375,-0.007905727252364159,-0.021407602354884148,-0.004923197906464338
1783169805382734800,5.53673486328125,-0.009622666984796524,-0.020013703033328056,-0.001704500988125801
1783169805392804600,5.5468046875,-0.010221878066658974,-0.009352536872029305,-0.00447978125885129
1783169805402874600,5.55687451171875,-0.00678100623190403,-0.0048967571929097176,-0.002817639149725437
1783169805412945000,5.56694482421875,-0.0057069528847932816,0.0018309205770492554,-0.0040837060660123825
1783169805423014700,5.5770146484375,-0.001916184090077877,0.0015660859644412994,-0.006951408926397562
1783169805433083600,5.587083740234375,-0.00028712861239910126,-0.006371199153363705,-0.004376132506877184
1783169805443153700,5.597153564453125,-0.005003234371542931,-0.01400300394743681,-0.002378963865339756
1783169805453223700,5.6072236328125,-0.005849586799740791,-0.017545539885759354,-0.0003701411187648773
1783169805463293700,5.617293701171875,-0.010075964033603668,-0.018811702728271484,0.0006191155407577753
1783169805473362700,5.62736279296875,-0.011548956856131554,-0.004989096894860268,-0.007856128737330437
1783169805483432700,5.6374326171875,-0.012537239119410515,0.0038014762103557587,-0.0072698830626904964
1783169805493502700,5.647502685546875,-0.012890107929706573,0.007762928027659655,-0.0019944272935390472
1783169805503572700,5.65757275390625,-0.01057609636336565,0.004578980151563883,-0.004868951626121998
1783169805513641700,5.667641845703125,-0.011453607119619846,-0.0035303449258208275,-0.0006446456536650658
1783169805523711700,5.677711669921875,-0.009598742239177227,-0.008845631964504719,-0.00552328210324049
1783169805533781800,5.68778173828125,-0.006706548854708672,-0.016240432858467102,-0.001260360237210989
1783169805543853800,5.697853759765625,-0.0049188388511538506,-0.02649417705833912,0.002334039192646742
1783169805553923600,5.707923583984375,-0.004871967248618603,-0.0373271182179451,0.0021388293243944645
1783169805563992800,5.717992919921875,0.0021599046885967255,-0.03589869290590286,0.004850620869547129
1783169805574062800,5.728062744140625,0.002294926904141903,-0.03279957175254822,0.010695992968976498
1783169805584132600,5.738132568359375,-0.0012180402409285307,-0.02400381490588188,0.00606146827340126
1783169805594203000,5.748202880859375,-0.003592781024053693,-0.012548490427434444,-0.0037813084200024605
1783169805604272600,5.758272705078125,-0.006037802901118994,-0.005864339880645275,-0.011488238349556923
1783169805614341600,5.768341552734375,-0.00672463234513998,0.002360300626605749,-0.006538753397762775
1783169805624412000,5.778411865234375,-0.008807284757494926,0.005086672492325306,-0.00532344589009881
1783169805634481700,5.788481689453125,-0.009911431930959225,0.007281916216015816,-0.01042233407497406
1783169805644551700,5.7985517578125,-0.010933199897408485,0.006399666890501976,-0.012208100408315659
1783169805654620700,5.80862060546875,-0.004202859476208687,0.004006284289062023,-0.010765199549496174
1783169805664690700,5.818690673828125,0.0017077256925404072,-0.004025032743811607,-0.0012496248818933964
1783169805674760700,5.8287607421875,-0.001161297783255577,-0.017682787030935287,0.0037792224902659655
1783169805684830700,5.838830810546875,-0.00411029439419508,-0.025124376639723778,-0.0019396264106035233
1783169805694899700,5.848899658203125,0.0014077755622565746,-0.02844560332596302,-0.0034293988719582558
1783169805704969700,5.8589697265625,0.003196380566805601,-0.03030594065785408,-0.0010280339047312737
1783169805715039700,5.869039794921875,0.00625821715220809,-0.03077279031276703,0.005224269349128008
1783169805725109800,5.87910986328125,0.0018430231139063835,-0.034707970917224884,0.009904934093356133
1783169805735179800,5.8891796875,0.0020483527332544327,-0.030392587184906006,0.007785590831190348
1783169805745248800,5.899248779296875,0.0005836315685883164,-0.024515511468052864,0.005360065959393978
1783169805755318500,5.909318603515625,0.0010483531514182687,-0.02165074832737446,0.00873961765319109
1783169805765388800,5.919388916015625,0.003777136793360114,-0.014098389074206352,0.0065393587574362755
1783169805775458800,5.929458740234375,0.0015792300691828132,-0.005774945020675659,0.0075795892626047134
1783169805785527800,5.93952783203125,0.00034260679967701435,-0.0012611933052539825,0.003099400782957673
1783169805795597800,5.949597900390625,0.0018518201541155577,0.0006813164800405502,-0.0035212174989283085
1783169805805667600,5.95966748046875,0.0023370394483208656,-0.002127924934029579,-0.0019205659627914429
1783169805815737600,5.969737548828125,-0.001891527557745576,-0.002364679239690304,0.0051575833931565285
1783169805825806600,5.979806640625,-0.0004613844212144613,0.004353027790784836,0.002582297660410404
1783169805835877600,5.989877685546875,-0.003316026646643877,0.005374083761125803,-0.001607653684914112
1783169805845947400,5.999947509765625,-0.006178444251418114,0.008830833248794079,3.7997961044311523e-7
1783169805856017700,6.010017578125,-0.008404314517974854,0.0036152987740933895,-0.0012917853891849518
1783169805866087700,6.020087646484375,-0.00437824334949255,0.005587175488471985,-0.011500276625156403
1783169805876156700,6.03015673828125,-0.0018554311245679855,0.008177366107702255,-0.009726079180836678
1783169805886226700,6.040226806640625,-0.0015459274873137474,0.011756815016269684,-0.004989302717149258
1783169805896296400,6.05029638671875,0.001799002755433321,0.009286200627684593,-0.000421715434640646
1783169805906366500,6.060366455078125,-0.0018551032990217209,0.008943729102611542,-0.00145813450217247
1783169805916435500,6.070435546875,-0.003960598260164261,0.0038941092789173126,-0.002771072555333376
1783169805926505500,6.08050537109375,-0.003875823225826025,-0.004193589091300964,-0.0011493237689137459
1783169805936575700,6.09057568359375,-0.004636155907064676,-0.006792834028601646,-0.0005711517296731472
1783169805946645500,6.1006455078125,-0.0038799219764769077,-0.008596393279731274,-0.0037772986106574535
1783169805956714800,6.11071484375,0.0013569181319326162,-0.0032772626727819443,-0.0024454514496028423
1783169805966784500,6.120784423828125,0.004826688673347235,-0.003715522587299347,-0.00528667401522398
1783169805976854500,6.1308544921875,0.0006668310379609466,-0.003968789242208004,-0.00682464987039566
1783169805986924500,6.140924560546875,-0.005725483410060406,-0.0065536098554730415,-0.015713943168520927
1783169805996993500,6.15099365234375,-0.008713283576071262,-0.012486600317060947,-0.014311790466308594
1783169806007063600,6.1610634765625,-0.013833788223564625,-0.02310025691986084,-0.006421453319489956
1783169806017133800,6.1711337890625,-0.02099103480577469,-0.030172280967235565,0.004542780574411154
1783169806027203600,6.18120361328125,-0.01691230572760105,-0.03098035790026188,0.010668911971151829
1783169806037273600,6.191273681640625,-0.01233513094484806,-0.031007787212729454,0.0023183044977486134
1783169806047342600,6.201342529296875,-0.012046986259520054,-0.029074471443891525,-0.002359979320317507
1783169806057412600,6.21141259765625,-0.0095894206315279,-0.03655768930912018,0.009589357301592827
1783169806067482600,6.221482666015625,-0.008647932671010494,-0.033887431025505066,0.007829166017472744
1783169806077552600,6.231552734375,-0.003024135250598192,-0.03733329474925995,-0.0006759054958820343
1783169806087621600,6.24162158203125,0.0026845820248126984,-0.04120022431015968,-0.003292893059551716
1783169806097691600,6.251691650390625,0.00568702956661582,-0.04401465505361557,-0.0025594583712518215
1783169806107761700,6.26176171875,0.005013918038457632,-0.04425375908613205,-0.001927720382809639
1783169806117831700,6.271831787109375,0.002115333452820778,-0.038011305034160614,0.007014375180006027
1783169806127900700,6.281900634765625,-0.004748077597469091,-0.026868052780628204,0.012122740037739277
1783169806137970700,6.291970703125,-0.0031421915628015995,-0.006689813919365406,0.006051798351109028
1783169806148040400,6.30204052734375,0.000977958901785314,0.009004044346511364,-0.002340614330023527
1783169806158110700,6.31211083984375,0.005774311721324921,0.022789366543293,-0.008080525323748589
1783169806168179500,6.322179443359375,0.004733548499643803,0.024254634976387024,-0.002595745027065277
1783169806178249500,6.33224951171875,0.014562477357685566,-0.010083629749715328,-0.00727598462253809
1783169806188319700,6.34231982421875,0.013701717369258404,0.02904205210506916,-0.008154820650815964
1783169806198389500,6.352389404296875,0.01929808408021927,0.013970157131552696,0.00471277441829443
1783169806208459500,6.36245947265625,0.021430812776088715,0.0060265245847404,0.007236987818032503
1783169806218528500,6.372528564453125,0.026310522109270096,0.002153223380446434,0.0032805956434458494
1783169806228598500,6.3825986328125,0.026778334751725197,0.013226846233010292,0.006888408213853836
1783169806238668800,6.392668701171875,0.024921845644712448,0.01803358644247055,0.009249299764633179
1783169806248738600,6.402738525390625,0.017356425523757935,0.023932278156280518,0.005173753947019577
1783169806258807600,6.4128076171875,0.01522776111960411,0.031494587659835815,-0.003996042534708977
1783169806268877600,6.422877685546875,0.015091938897967339,0.04224177822470665,-0.009625165723264217
1783169806278947600,6.432947509765625,0.011149661615490913,0.044672176241874695,-0.01322629302740097
1783169806289017600,6.443017578125,0.013545132242143154,0.04310128092765808,-0.015897519886493683
1783169806299086600,6.453086669921875,0.007838243618607521,0.03647134453058243,-0.008745335042476654
1783169806309156600,6.463156494140625,0.0029570232145488262,0.029131460934877396,-0.005155773833394051
1783169806319226600,6.4732265625,-0.0015538388397544622,0.012418260797858238,-0.0023083225823938847
1783169806329296600,6.483296630859375,0.001542583922855556,0.0014334982261061668,-0.004643815103918314
1783169806339365400,6.493365478515625,-0.002107544569298625,-0.010354185476899147,-0.00018861284479498863
1783169806349435600,6.503435546875,0.0015119314193725586,-0.02109566330909729,0.01039426401257515
1783169806359505700,6.513505615234375,0.0008855558698996902,-0.025082416832447052,0.008517268113791943
1783169806369575400,6.523575439453125,0.0020077060908079147,-0.025934692472219467,-0.0032333722338080406
1783169806379645700,6.533645751953125,0.003180029336363077,-0.022791627794504166,-0.008810564875602722
1783169806389714400,6.54371435546875,0.001138892024755478,-0.027738340198993683,-0.005254136864095926
1783169806399784400,6.553784423828125,0.006136580370366573,-0.026436854153871536,0.0020413268357515335
1783169806409854700,6.563854736328125,0.007382267154753208,-0.03156273066997528,0.0067491247318685055
1783169806419924500,6.573924560546875,0.009452075697481632,-0.02650858275592327,0.009004555642604828
1783169806429993700,6.58399365234375,0.0053675854578614235,-0.0208957027643919,0.0005466225557029247
1783169806440063500,6.5940634765625,0.002636247780174017,-0.0089945700019598,-0.0058612097054719925
1783169806450133500,6.604133544921875,0.0009432582883164287,-0.0012916531413793564,-0.006405111402273178
1783169806460203500,6.61420361328125,0.0033286516554653645,0.009286155924201012,-0.008836044929921627
1783169806470272500,6.6242724609375,0.006440084893256426,0.014103986322879791,-0.01875988580286503
1783169806480342500,6.634342529296875,0.006141011603176594,0.015647821128368378,-0.01781020127236843
1783169806490412800,6.644412841796875,0.007537023164331913,0.013685327023267746,-0.01657218486070633
1783169806500482600,6.654482666015625,0.006771630607545376,0.010670362040400505,-0.014246976934373379
1783169806510551800,6.6645517578125,0.004708976950496435,0.004238806664943695,-0.004445381462574005
1783169806520621600,6.67462158203125,0.005845880135893822,0.0012278365902602673,-0.0025771744549274445
1783169806530691600,6.684691650390625,0.005881309509277344,-0.003477831371128559,-0.001968733035027981
1783169806540761600,6.69476171875,0.007111423648893833,-0.005312749184668064,-0.001656077802181244
1783169806550830600,6.70483056640625,0.0018636734457686543,-0.007928899489343166,-0.005718554835766554
1783169806560900600,6.714900634765625,-0.0009821804706007242,-0.004803413525223732,-0.007918059825897217
1783169806570970600,6.724970703125,-0.003182005137205124,-0.006009858101606369,-0.009488781914114952
1783169806581040600,6.73504052734375,-0.0017923677805811167,-0.003525928594172001,-0.012943966314196587
1783169806591110700,6.745110595703125,0.0013800433371216059,-0.00476160179823637,-0.013628942891955376
1783169806601179600,6.7551796875,0.0007198457606136799,-0.002167150378227234,-0.004646898712962866
1783169806611249700,6.765249755859375,-0.002949893707409501,-0.006872761994600296,0.00010264548473060131
1783169806621319400,6.7753193359375,-0.000017487211152911186,-0.00824695359915495,0.0017809695564210415
1783169806631389700,6.7853896484375,0.009886869229376316,-0.016485538333654404,-0.0032511819154024124
1783169806641458400,6.79545849609375,0.010370233096182346,-0.019389446824789047,-0.0035862079821527004
1783169806651528700,6.80552880859375,0.0032393611036241055,-0.022833574563264847,-0.001065884716808796
1783169806661598700,6.8155986328125,0.0022393441759049892,-0.018967464566230774,-0.0060704974457621574
1783169806671668500,6.82566845703125,0.0014534199144691229,-0.020205451175570488,-0.016970273107290268
1783169806681737700,6.83573779296875,0.0014464957639575005,-0.020323429256677628,-0.009484659880399704
1783169806691807500,6.845807373046875,-0.002863233210518956,-0.019636591896414757,-0.0042497203685343266
1783169806701877500,6.85587744140625,-0.0021010367199778557,-0.01755799539387226,-0.008324090391397476
1783169806711947800,6.86594775390625,-0.00016619660891592503,-0.012577852234244347,-0.013432309031486511
1783169806722016500,6.8760166015625,-0.00022105779498815536,-0.008943170309066772,-0.01318303868174553
1783169806732086800,6.886086669921875,-0.0012614238075911999,-0.012792820110917091,-0.009557979181408882
1783169806742156500,6.896156494140625,-0.004035105928778648,-0.006055820733308792,-0.007869268767535686
1783169806752226600,6.9062265625,-0.008277999237179756,0.0013204710558056831,-0.015064014121890068
1783169806762295600,6.916295654296875,-0.006754138506948948,0.012560341507196426,-0.025225572288036346
1783169806772365600,6.926365478515625,-0.010321077890694141,0.01775609701871872,-0.024729620665311813
1783169806782435600,6.936435546875,-0.0138652129098773,0.017378725111484528,-0.021490950137376785
1783169806792505600,6.946505615234375,-0.019407836720347404,0.013959460891783237,-0.020093845203518867
1783169806802574600,6.95657470703125,-0.020663784816861153,0.006484766490757465,-0.013870568946003914
1783169806812644600,6.96664453125,-0.01566717028617859,-0.003148025833070278,-0.012822791934013367
1783169806822714600,6.976714599609375,-0.011390666477382183,-0.017470238730311394,-0.008476514369249344
1783169806832783600,6.98678369140625,-0.005553248338401318,-0.027962805703282356,-0.00583075825124979
1783169806842854000,6.99685400390625,-0.0052573708817362785,-0.03270190209150314,-0.006525044329464436
1783169806852922600,7.006922607421875,-0.007870784029364586,-0.03956569731235504,-0.0028986078687012196
1783169806862992600,7.01699267578125,-0.0022022461052984,-0.04347921535372734,-0.001731344498693943
1783169806873062700,7.027062744140625,-0.003817603923380375,-0.044438812881708145,0.00026218430139124393
1783169806883132700,7.037132568359375,-0.005357177462428808,-0.04210375249385834,-0.0013168039731681347
1783169806893201700,7.04720166015625,-0.007513681426644325,-0.04057198762893677,-0.0063071842305362225
1783169806903271700,7.057271728515625,-0.012403511442244053,-0.03480624407529831,0.0020985514856874943
1783169806913341700,7.067341796875,-0.011180179193615913,-0.024654455482959747,0.004246273078024387
1783169806923411700,7.07741162109375,-0.0013826757203787565,-0.009043804369866848,-0.004691295325756073
1783169806933480700,7.087480712890625,-0.0007480974309146404,0.0012591336853802204,-0.014402765780687332
1783169806943550500,7.097550537109375,0.00459660030901432,0.009741568006575108,-0.018829206004738808
1783169806953620700,7.107620849609375,0.004353196360170841,0.007468698546290398,-0.017478808760643005
1783169806963690800,7.117690673828125,0.001868467079475522,-0.002449179068207741,-0.010807855054736137
1783169806973759700,7.127759765625,0.0012924429029226303,-0.013267460279166698,-0.005789310671389103
1783169806983829800,7.137829833984375,0.0047146049328148365,-0.00906339567154646,-0.006107558496296406
1783169806993899500,7.1478994140625,0.00962065439671278,-0.010356510058045387,-0.005175711587071419
1783169807003969800,7.1579697265625,0.013913669623434544,-0.009752770885825157,0.0023969868198037148
1783169807014038500,7.16803857421875,0.012673869729042053,-0.011522367596626282,0.0033769584260880947
1783169807024108500,7.178108642578125,0.005606639198958874,-0.009082645177841187,-0.0012018145062029362
1783169807034178800,7.1881787109375,0.003285676008090377,-0.006381145678460598,-0.007272043265402317
1783169807044248600,7.19824853515625,0.004084890708327293,-0.01491151750087738,-0.0001502176746726036
1783169807054317800,7.20831787109375,0.0054213725961744785,-0.017772220075130463,0.0011152985971421003
1783169807064387600,7.2183876953125,0.008093055337667465,-0.024100156500935555,-0.0018181735649704933
1783169807074457600,7.22845751953125,0.007115576416254044,-0.029413621872663498,-0.00030530430376529694
1783169807084527600,7.238527587890625,0.005199965089559555,-0.027288153767585754,0.0038960983511060476
1783169807094597600,7.24859765625,0.004389583133161068,-0.023160776123404503,0.0060011474415659904
1783169807104666600,7.25866650390625,0.010850411839783192,-0.015297526493668556,0.003483927808701992
1783169807114737000,7.26873681640625,0.009787480346858501,-0.006836035288870335,0.0021575037389993668
1783169807124806700,7.278806640625,0.009283610619604588,0.0014328132383525372,-0.0007410808466374874
1783169807134876700,7.288876708984375,0.007508117705583572,0.006008678115904331,-0.002987283281981945
1783169807144945700,7.298945556640625,0.0080711105838418,0.011952587403357029,-0.006518634967505932
1783169807155015700,7.309015625,0.01285577192902565,0.016076641157269478,-0.005918895360082388
1783169807165085700,7.319085693359375,0.013847000896930695,0.013340243138372898,-0.003487429115921259
1783169807175155700,7.32915576171875,0.013151481747627258,0.006599176675081253,0.002056277822703123
1783169807185224700,7.339224609375,0.01168594416230917,0.0024443790316581726,0.0054406230337917805
1783169807195294700,7.349294677734375,0.010966818779706955,0.0012267380952835083,0.007972149178385735
1783169807205364700,7.35936474609375,0.006584587506949902,0.0005393759347498417,0.0028793863020837307
1783169807215434800,7.369434814453125,0.0138393584638834,-0.0021743513643741608,-0.0030845063738524914
1783169807225503700,7.379503662109375,0.013201797381043434,-0.005637792870402336,0.0006095643620938063
1783169807235573800,7.38957373046875,0.012533547356724739,-0.011334199458360672,0.008681172505021095
1783169807245643500,7.3996435546875,0.009806737303733826,-0.016589947044849396,0.011443136259913445
1783169807255713800,7.4097138671875,0.010116773657500744,-0.009280741214752197,0.00062146270647645
1783169807265782500,7.419782470703125,0.0036540809087455273,-0.015040893107652664,0.004521928261965513
1783169807275852800,7.429852783203125,-0.0014496727380901575,-0.016642561182379723,0.016824856400489807
1783169807285922800,7.4399228515625,-0.004598860628902912,-0.019498268142342567,0.017316743731498718
1783169807295992600,7.44999267578125,0.0021765055134892464,-0.01605212688446045,0.008647440001368523
1783169807306061800,7.460061767578125,0.007275393232703209,-0.01629846915602684,0.006311315577477217
1783169807316131600,7.470131591796875,0.0031399186700582504,-0.01661825180053711,0.011921899393200874
1783169807326201600,7.48020166015625,0.0009683772223070264,-0.014833669178187847,0.013116858899593353
1783169807336272000,7.49027197265625,0.0030775154009461403,-0.006778830662369728,0.006599636748433113
1783169807346340600,7.500340576171875,0.0028266457375139,-0.006566310301423073,0.000995546579360962
1783169807356410600,7.51041064453125,0.0068756891414523125,-0.009730027988553047,0.004533028230071068
1783169807366480600,7.520480712890625,0.008920198306441307,-0.010364925488829613,0.006095771212130785
1783169807376550700,7.530550537109375,0.0016068101394921541,-0.009844991378486156,0.015074098482728004
1783169807386619600,7.54061962890625,-0.0015546283684670925,-0.005178601481020451,0.02057698741555214
1783169807396689700,7.550689697265625,-0.0016867667436599731,-0.0008609788492321968,0.016131555661559105
1783169807406759700,7.560759765625,0.0005928991595283151,0.005070147104561329,0.006245901342481375
1783169807416829700,7.57082958984375,-0.002984975930303335,0.006767828017473221,0.008786281570792198
1783169807426898700,7.580898681640625,-0.000275209778919816,0.00498537439852953,0.004579286091029644
1783169807436968400,7.590968505859375,-0.000022530206479132175,0.0029102065600454807,0.004304987378418446
1783169807447038700,7.601038818359375,-0.001753851305693388,-0.006645215675234795,0.005500214174389839
1783169807457108700,7.611108642578125,-0.0011513628996908665,-0.018491307273507118,0.008336469531059265
1783169807467177700,7.621177734375,0.0018241869984194636,-0.028538614511489868,0.007263482082635164
1783169807477247700,7.631247802734375,0.004109454806894064,-0.03452099859714508,0.006828230805695057
1783169807487317500,7.6413173828125,0.004623977467417717,-0.03586296737194061,0.009246114641427994
1783169807497387500,7.651387451171875,0.0022374826949089766,-0.03491862863302231,0.004485010169446468
1783169807507456800,7.661456787109375,0.0032428260892629623,-0.02982480265200138,0.001249002991244197
1783169807517526500,7.671526611328125,0.005412660539150238,-0.021603155881166458,-0.0016801967285573483
1783169807527596800,7.6815966796875,0.007367420941591263,-0.012857603840529919,-0.002987275831401348
1783169807537666800,7.691666748046875,0.003602122887969017,-0.010342426598072052,0.004083044361323118
1783169807547735800,7.70173583984375,0.006712428294122219,-0.01201702281832695,0.00793504063040018
1783169807557805800,7.711805908203125,0.010885592550039291,-0.01681378111243248,0.004340928979218006
1783169807567875600,7.72187548828125,0.0055739181116223335,-0.01735786534845829,-0.0032168556936085224
1783169807577945600,7.731945556640625,0.006437224335968494,-0.014060125686228275,-0.006938256788998842
1783169807588014600,7.7420146484375,0.006292615085840225,-0.024281073361635208,-0.008424300700426102
1783169807598084600,7.752084716796875,0.01030868012458086,-0.024782801046967506,-0.0062058004550635815
1783169807608155000,7.76215478515625,0.009862334467470646,-0.02726859413087368,-0.0030361064709722996
1783169807618224600,7.772224609375,0.008698027580976486,-0.018819302320480347,-0.004739201162010431
1783169807628293600,7.782293701171875,0.008558743633329868,-0.01125965267419815,-0.00832275114953518
1783169807638363600,7.79236376953125,0.005485327448695898,-0.014946340583264828,-0.006437843665480614
1783169807648433700,7.80243359375,0.009145576506853104,-0.007387490943074226,-0.0059065427631139755
1783169807658503700,7.812503662109375,0.01061334554105997,-0.00886082649230957,0.002442814875394106
1783169807668573700,7.82257373046875,0.006010337732732296,-0.011955419555306435,-0.0000967755913734436
1783169807678642700,7.832642578125,0.005373254884034395,-0.00977884978055954,-0.002999615855515003
1783169807688712700,7.842712646484375,0.005162864923477173,-0.011311233043670654,-0.005797266494482756
1783169807698782700,7.85278271484375,0.00980403833091259,-0.007357855327427387,-0.013762257993221283
1783169807708852700,7.862852783203125,0.01085358951240778,-0.009857231751084328,-0.010438898578286171
1783169807718921700,7.872921630859375,0.006355758756399155,-0.014130017720162868,0.001150559401139617
1783169807728991700,7.88299169921875,0.008476434275507927,-0.014337479136884212,0.0036776328925043344
1783169807739061500,7.8930615234375,0.006297325249761343,-0.013441388495266438,0.000008604489266872406
1783169807749131800,7.9031318359375,0.006539406720548868,-0.001831071451306343,-0.00635288842022419
1783169807759200500,7.913200439453125,0.009554969146847725,0.004752431996166706,-0.004587571136653423
1783169807769270800,7.923270751953125,0.00973766203969717,0.010785823687911034,-0.0052102189511060715
1783169807779340800,7.9333408203125,0.008095583878457546,0.013308519497513771,-0.018524693325161934
1783169807789410600,7.94341064453125,0.004223613999783993,0.015959694981575012,-0.020238172262907028
1783169807799479800,7.953479736328125,0.000349659938365221,0.014045213349163532,-0.017324313521385193
1783169807809549600,7.963549560546875,0.003583802841603756,0.01778535544872284,-0.016430290415883064
1783169807819619600,7.97361962890625,0.0006661267252638936,0.012683721259236336,-0.015365827828645706
1783169807829689900,7.98368994140625,-0.0009706520941108465,0.01129994262009859,-0.009378242306411266
1783169807839759600,7.993759521484375,-0.002472133142873645,0.0020767543464899063,-0.005053358152508736
1783169807849829600,8.00382958984375,-0.0010510701686143875,-0.002068988047540188,-0.0013544941321015358
1783169807859899600,8.013899658203124,0.0018496719421818852,-0.008059619925916195,-0.0063433959148824215
1783169807869969700,8.0239697265625,0.0034425086341798306,-0.01092331763356924,-0.005540452431887388
1783169807880038700,8.03403857421875,0.00451388955116272,-0.01671743020415306,-0.007837606593966484
1783169807890108700,8.044108642578125,-0.0007770126685500145,-0.022151608020067215,-0.004675368312746286
1783169807900178700,8.0541787109375,-0.003018127055838704,-0.020956018939614296,-0.005014295224100351
1783169807910248700,8.064248779296875,-0.0040892502292990685,-0.024856485426425934,-0.004734663758426905
1783169807920317700,8.074317626953125,-0.004019769839942455,-0.020909029990434647,0.000490992097184062
1783169807930387700,8.0843876953125,-0.001409339252859354,-0.024096833541989326,-0.0002325884997844696
1783169807940457500,8.09445751953125,-0.0018655110616236925,-0.024038895964622498,-0.005242528859525919
1783169807950527700,8.10452783203125,0.005129814147949219,-0.019622841849923134,-0.006467315834015608
1783169807960596500,8.114596435546876,0.00448662368580699,-0.021235141903162003,0.0009267737623304129
1783169807970666800,8.124666748046875,0.004942823201417923,-0.02115844190120697,0.0010732475202530622
1783169807980736800,8.13473681640625,0.001301914220675826,-0.020628908649086952,-0.0025718342512845993
1783169807990806500,8.144806640625,0.001584741985425353,-0.020760469138622284,-0.00024023652076721191
1783169808000875800,8.154875732421875,-0.006732465699315071,-0.01334778405725956,0.00520878192037344
1783169808010945800,8.16494580078125,-0.012756802141666412,-0.017704715952277184,0.012054970487952232
1783169808021015600,8.175015625,-0.014116363599896431,-0.016067681834101677,0.008387974463403225
1783169808031085800,8.1850859375,-0.011905142106115818,-0.008196709677577019,0.0037141270004212856
1783169808041154600,8.195154541015626,-0.013416706584393978,0.0019024242646992207,0.004612765274941921
1783169808051224800,8.205224853515626,-0.012183928862214088,0.0003743022680282593,0.002928848611190915
1783169808061294800,8.215294921875,-0.018109507858753204,0.0017408765852451324,0.0035953500773757696
1783169808071364600,8.225364501953125,-0.020234178751707077,-0.004908770322799683,0.008375724777579308
1783169808081433900,8.235433837890625,-0.0183027982711792,-0.00965262670069933,0.009368281811475754
1783169808091503600,8.245503662109375,-0.008611821569502354,-0.01702958345413208,0.006168228108435869
1783169808101573600,8.25557373046875,-0.00576179102063179,-0.022136619314551353,0.00469743087887764
1783169808111644000,8.265643798828124,-0.008173816837370396,-0.02631964534521103,0.012694370932877064
1783169808121712600,8.275712646484376,-0.01087346114218235,-0.026521269232034683,0.017190255224704742
1783169808131782700,8.28578271484375,-0.009380759671330452,-0.01933792605996132,0.008915547281503677
1783169808141852700,8.295852783203125,-0.005405577830970287,-0.008233257569372654,0.00851011835038662
1783169808151922700,8.305922607421875,-0.009409639984369278,-0.0008555036038160324,0.006294635124504566
1783169808161991700,8.31599169921875,-0.011609568260610104,0.010415837168693542,0.010667996481060982
1783169808172061700,8.326061767578125,-0.01546928845345974,0.01395198330283165,0.008997661992907524
1783169808182131700,8.336131591796875,-0.013771907426416874,0.02108054980635643,-0.002454825211316347
1783169808192201700,8.34620166015625,-0.011530324816703796,0.025040403008461,-0.008858395740389824
1783169808202270700,8.356270751953126,-0.011221369728446007,0.023088723421096802,-0.0066256048157811165
1783169808212340500,8.366340576171876,-0.01034598983824253,0.01681751012802124,0.004021447151899338
1783169808222410800,8.37641064453125,-0.01205984316766262,0.01443338580429554,0.012433848343789577
1783169808232479500,8.3864794921875,-0.010472865775227547,0.010738249868154526,0.00892646610736847
1783169808242549800,8.3965498046875,-0.010541146621108055,0.008910863660275936,0.004836026579141617
1783169808252619800,8.406619873046875,-0.005693393759429455,0.002853237558156252,0.003504446242004633
1783169808262689500,8.416689453125,-0.010989684611558914,-7.562339305877686e-7,0.004214616026729345
1783169808272759600,8.426759521484374,-0.012158012948930264,0.0001577017828822136,0.00705541018396616
1783169808282828500,8.43682861328125,-0.014790190383791924,0.004551950842142105,0.004966788925230503
1783169808292898600,8.446898681640626,-0.011895335279405117,0.00638979859650135,0.007246455177664757
1783169808302968800,8.45696875,-0.01291948463767767,-0.0006998777389526367,0.008171724155545235
1783169808313037600,8.46703759765625,-0.012034515850245953,-0.010024403221905231,0.012266334146261215
1783169808323107800,8.47710791015625,-0.01203483808785677,-0.01194031536579132,0.01392388716340065
1783169808333177600,8.487177490234375,-0.011659597977995872,-0.014029564335942268,0.012095361948013306
1783169808343247600,8.49724755859375,-0.009489057585597038,-0.016431033611297607,0.014465749263763428
1783169808353316900,8.50731689453125,-0.011887500062584877,-0.008458859287202358,0.018837595358490944
1783169808363386600,8.51738671875,-0.011329974979162216,-0.00433330237865448,0.022346310317516327
1783169808373456600,8.52745654296875,-0.006000190041959286,0.0006255032494664192,0.015036199241876602
1783169808383526700,8.537526611328126,-0.004209775477647781,0.008088863454759121,0.0049390895292162895
1783169808393595600,8.547595703125,-0.008361110463738441,0.017104994505643845,0.0030567673966288567
1783169808403665700,8.557665771484375,-0.00629017036408186,0.024347633123397827,0.0008039136882871389
1783169808413735700,8.567735595703125,-0.0032935820054262877,0.025354839861392975,0.004720091819763184
1783169808423805700,8.5778056640625,0.003415653482079506,0.02653578110039234,0.0015731202438473701
1783169808433874700,8.587874755859374,0.009312957525253296,0.026997573673725128,-0.004276513122022152
1783169808443944700,8.59794482421875,0.010777981951832771,0.02323853224515915,-0.005025569815188646
1783169808454014700,8.6080146484375,0.005000253673642874,0.015706846490502357,0.0031000005546957254
1783169808464084700,8.618084716796876,0.0015647758264094591,0.012811457738280296,0.012317733839154243
1783169808474153700,8.62815380859375,0.0036604171618819237,0.014463948085904121,0.004705886356532574
1783169808484223500,8.638223388671875,0.002274877857416868,0.01674726791679859,-0.003661408554762602
1783169808494293800,8.648293701171875,0.003633622545748949,0.0189017653465271,-0.005256641656160355
1783169808504363800,8.65836376953125,0.0011669839732348919,0.015344569459557533,0.001498909667134285
1783169808514432800,8.668432861328125,-0.006177481263875961,0.016134995967149734,0.002343398053199053
1783169808524502800,8.678502685546874,-0.008483273908495903,0.010332086123526096,-0.006620003376156092
1783169808534572500,8.688572509765624,-0.008527482859790325,0.006874504033476114,-0.010436845943331718
1783169808544642600,8.698642578125,-0.009172908961772919,-0.0007974756881594658,0.0012280582450330257
1783169808554711600,8.708711669921875,-0.007188321091234684,-0.004135482013225555,0.00722736120223999
1783169808564781600,8.718781494140625,-0.004407886415719986,-0.008167721331119537,0.008356725797057152
1783169808574851800,8.728851806640625,-0.000677064061164856,-0.008590364828705788,0.0020207990892231464
1783169808584921600,8.738921630859375,-0.0006408828776329756,-0.009700925089418888,0.0015987749211490154
1783169808594990800,8.748990966796875,-0.00404786504805088,-0.007117658853530884,0.0011252649128437042
1783169808605060600,8.759060546875,-0.00012113130651414394,-0.006233660504221916,-0.004135009832680225
1783169808615130600,8.769130615234374,0.00048420520033687353,-0.0012125363573431969,-0.004860187880694866
1783169808625200600,8.77920068359375,0.001785523141734302,-0.0035410337150096893,-0.002545103430747986
1783169808635269600,8.78926953125,0.004224446136504412,-0.004913627170026302,0.006369828246533871
1783169808645339600,8.799339599609375,0.0024302173405885696,-0.0051525430753827095,0.012907350435853004
1783169808655409700,8.80940966796875,0.0010230031330138445,0.007228492759168148,0.0030997279100120068
1783169808665479700,8.819479736328125,-0.004101281054317951,0.02193509414792061,-0.00003533763810992241
1783169808675548700,8.829548583984375,-0.008945304900407791,0.032149914652109146,-0.003992528188973665
1783169808685618700,8.83961865234375,-0.0071799419820308685,0.03495566546916962,-0.006235265638679266
1783169808695688700,8.849688720703124,-0.0032922595273703337,0.03442835807800293,-0.007541546132415533
1783169808705758500,8.859758544921876,-0.0008673768024891615,0.03104325383901596,-0.009026436135172844
1783169808715827700,8.86982763671875,0.003736163256689906,0.018994849175214767,-0.0024359109811484814
1783169808725897700,8.879897705078125,0.007374280132353306,0.004615492653101683,-0.0025901077315211296
1783169808735967700,8.8899677734375,0.005346548743546009,-0.01000233180820942,0.009758703410625458
1783169808746037800,8.900037841796875,0.004737675189971924,-0.014401916414499283,0.017447691410779953
1783169808756106500,8.9101064453125,0.007792321033775806,-0.01323758065700531,0.015848197042942047
1783169808766176800,8.9201767578125,0.008229392580688,-0.005627972073853016,0.006105911917984486
1783169808776246800,8.930246826171874,0.005074079614132643,0.006720839533954859,0.004167662933468819
1783169808786316500,8.940316650390624,-0.00022092158906161785,0.016071539372205734,-0.0032498659566044807
1783169808796385800,8.9503857421875,-0.0013050944544374943,0.02068599872291088,-0.010628687217831612
1783169808806455600,8.96045556640625,-0.003306126920506358,0.0280881579965353,-0.016874415799975395
1783169808816525800,8.97052587890625,-0.00537140853703022,0.02242574468255043,-0.01601102016866207
1783169808826595800,8.980595947265625,-0.005580658093094826,0.020265165716409683,-0.016582444310188293
1783169808836664300,8.990664306640625,-0.007371899671852589,0.010670328512787819,-0.011752269230782986
1783169808846734300,9.000734375,-0.005927532911300659,-0.001757918857038021,-0.014206198044121265
1783169808856804400,9.010804443359374,-0.005049489438533783,-0.01634112372994423,-0.0020411452278494835
1783169808866873300,9.020873291015626,-0.01150201540440321,-0.0293039008975029,0.0049492111429572105
1783169808876943400,9.030943359375,-0.0072465501725673676,-0.028077781200408936,-0.0038437475450336933
1783169808887013400,9.041013427734375,-0.004139534197747707,-0.025928927585482597,0.00007464317604899406
1783169808897083400,9.05108349609375,-0.0025032886769622564,-0.021450823172926903,-0.005390429403632879
1783169808907152400,9.06115234375,-0.003384737530723214,-0.02123001590371132,-0.006371799856424332
1783169808917222100,9.07122216796875,-0.0043072570115327835,-0.02249182015657425,-0.008422966115176678
1783169808927292400,9.08129248046875,-0.0025340483989566565,-0.021196149289608,-0.008228996768593788
1783169808937362400,9.091362548828124,0.000891842064447701,-0.024468909949064255,-0.009189598262310028
1783169808947431400,9.101431396484376,0.0036844047717750072,-0.028810277581214905,-0.009348057210445404
1783169808957501400,9.11150146484375,0.004609320312738419,-0.02498571202158928,-0.008233257569372654
1783169808967571200,9.1215712890625,0.007201612927019596,-0.02367664873600006,0.0017695736605674028
1783169808977641500,9.131641357421875,0.007514001801609993,-0.01814020425081253,-0.0020938743837177753
1783169808987710200,9.141710205078125,0.013165810145437717,-0.007183535024523735,-0.004261063877493143
1783169808997780200,9.1517802734375,0.01089040469378233,-0.001712336204946041,-0.004562267567962408
1783169809007850500,9.1618505859375,0.008531557396054268,0.00210086302831769,-0.0022871331311762333
1783169809017920300,9.171920166015624,0.009266057051718235,0.008899380452930927,-0.004408075008541346
1783169809027989500,9.181989501953124,0.006499584764242172,0.015663020312786102,-0.0032780054025352
1783169809038059300,9.192059326171876,0.010401914827525616,0.016521356999874115,-0.004400261677801609
1783169809048129300,9.20212939453125,0.01187912281602621,0.014975765720009804,-0.00700013292953372
1783169809058199300,9.21219921875,0.010450868867337704,0.01525965891778469,-0.008047288283705711
1783169809068268300,9.222268310546875,0.008117236196994781,0.012560064904391766,-0.010025032795965672
1783169809078338300,9.23233837890625,0.006887921132147312,0.012314788065850735,-0.007222321815788746
1783169809088408300,9.242408203125,0.0046072183176875114,0.011899217963218689,-0.008166411891579628
1783169809098478300,9.252478271484375,0.002063632942736149,0.009824083186686039,-0.004215079825371504
1783169809108547300,9.26254736328125,0.004537232685834169,0.020316291600465775,-0.010033750906586647
1783169809118617300,9.272617431640626,0.00804221909493208,0.025142472237348557,-0.015260203741490841
1783169809128687400,9.282687255859376,0.009334747679531574,0.019306471571326256,-0.0035961675457656384
1783169809138757000,9.292757080078125,0.0030688620172441006,0.002793808002024889,0.003462274558842182
1783169809148826400,9.302826416015625,0.0007895486196503043,0.0008517438545823097,-0.002099731471389532
1783169809158896400,9.312896484375,-0.0003454906400293112,-0.0016601495444774628,-0.009886281564831734
1783169809168964400,9.32296435546875,-0.0004988231230527163,-0.007203349843621254,-0.00432302663102746
1783169809179033300,9.333033447265626,0.002753961831331253,-0.01657528057694435,0.0001383007038384676
1783169809189103400,9.343103271484376,0.003180962521582842,-0.015079475939273834,-0.00518829608336091
1783169809199173400,9.35317333984375,0.0069605205208063126,-0.014898646622896194,0.0050694020465016365
1783169809209243400,9.363243408203125,0.006432310678064823,-0.012295983731746674,0.00836675800383091
1783169809219312400,9.3733125,0.0065931654535233974,-0.008862636983394623,0.0042937202379107475
1783169809229382400,9.38338232421875,0.002757015638053417,-0.0022873664274811745,-0.0008092573843896389
1783169809239452400,9.393452392578125,0.0033128175418823957,0.0057519180700182915,-0.0030242083594202995
1783169809249521200,9.403521240234374,0.0031206875573843718,0.005705518182367086,-0.002876417711377144
1783169809259591400,9.41359130859375,0.001785911270417273,0.007984118536114693,0.0026485761627554893
1783169809269661400,9.423661376953126,-0.002749345963820815,0.005716627463698387,-0.0012054475955665112
1783169809279731200,9.433731201171875,-0.007361674681305885,0.01018461212515831,0.006642621476203203
1783169809289800400,9.443800537109375,-0.008370727300643921,0.013554053381085396,0.0054368325509130955
1783169809299870200,9.4538701171875,-0.009054094552993774,0.01610429584980011,0.005636037327349186
1783169809309940200,9.463940185546875,-0.010218534618616104,0.013699272647500038,0.0166877880692482
1783169809320010500,9.474010498046875,-0.005622450262308121,0.016275348141789436,0.016299499198794365
1783169809330079200,9.484079345703124,0.0017351510468870401,0.010997941717505455,0.012603841722011566
1783169809340149500,9.4941494140625,-0.0026875606272369623,0.006104649975895882,0.018533902242779732
1783169809350219300,9.50421923828125,-0.004083341918885708,-0.0032569048926234245,0.02093598246574402
1783169809360289300,9.514289306640626,-0.00556991808116436,-0.005875857546925545,0.02756672166287899
1783169809370358300,9.524358154296875,-0.006761455908417702,-0.000700291246175766,0.026544950902462006
1783169809380428300,9.53442822265625,-0.007159864529967308,-0.00807058997452259,0.02555239014327526
1783169809390498300,9.544498291015625,-0.006657907739281654,-0.007627597078680992,0.03136570751667023
1783169809400568300,9.554568359375,-0.006504775956273079,-0.0026725204661488533,0.03777939826250076
1783169809410637300,9.56463720703125,-0.0018878132104873657,0.00628947326913476,0.033292874693870544
1783169809420707600,9.57470751953125,-0.0007269412744790316,0.0189802348613739,0.0252543892711401
1783169809430777300,9.58477734375,-0.001328558661043644,0.027439625933766365,0.01802212931215763
1783169809440847400,9.594847412109376,-0.0012886112090200186,0.03126578778028488,0.019720161333680153
1783169809450916400,9.604916259765625,0.0038219562266021967,0.03414757549762726,0.025248169898986816
1783169809460986400,9.614986328125,0.0013952837325632572,0.030038319528102875,0.018548721447587013
1783169809471056400,9.625056396484375,0.0022127036936581135,0.03411087393760681,0.013065459206700325
1783169809481125400,9.63512548828125,0.0000606033718213439,0.0387951098382473,0.013545094057917595
1783169809491195400,9.6451953125,-0.0021810848265886307,0.03241611644625664,0.0057235583662986755
1783169809501265400,9.655265380859374,-0.010084548033773899,0.012148129753768444,-0.03282063826918602
1783169809511335400,9.66533544921875,-0.02142913080751896,-0.005652330815792084,-0.07810325920581818
1783169809521404200,9.675404052734375,-0.023851541802287102,-0.0054645780473947525,-0.07387761771678925
1783169809531474400,9.685474365234375,-0.022507453337311745,-0.027833936735987663,-0.07489406317472458
1783169809541544400,9.69554443359375,-0.019094612449407578,-0.0424986332654953,-0.07824991643428802
1783169809551614200,9.7056142578125,-0.027569523081183434,-0.051624853163957596,-0.11662375181913376
1783169809561684500,9.7156845703125,-0.04583854228258133,-0.04714834690093994,-0.14519627392292023
1783169809571754500,9.72575439453125,-0.06433793902397156,-0.10801703482866287,-0.14199978113174438
1783169809581824300,9.73582421875,-0.0914505124092102,-0.09023696929216385,-0.15583889186382294
1783169809591893500,9.7458935546875,-0.11418874561786652,-0.09754981845617294,-0.12191809713840485
1783169809601963300,9.75596337890625,-0.08099377900362015,-0.1241753026843071,-0.017099278047680855
1783169809612033300,9.766033203125,-0.04154045507311821,-0.11818882077932358,0.04299911484122276
1783169809622102300,9.776102294921875,0.009275054559111595,-0.11529956012964249,0.07100092619657516
1783169809632172300,9.78617236328125,0.023136157542467117,-0.0777842104434967,0.033341143280267715
1783169809642242300,9.7962421875,0.028834257274866104,-0.03689589723944664,0.016812767833471298
1783169809652312300,9.806312255859375,0.003411582438275218,-0.03413107246160507,0.024100705981254578
1783169809662381300,9.81638134765625,-0.001943768234923482,-0.02225017547607422,0.05629858747124672
1783169809672451300,9.826451416015624,0.0016013834392651916,-0.007982448674738407,0.037861697375774384
1783169809682521300,9.836521240234376,0.00854930467903614,0.017803341150283813,0.022236663848161697
1783169809692591400,9.84659130859375,0.0152767738327384,0.02935190498828888,0.03482942655682564
1783169809702660400,9.856660400390625,0.015826184302568436,0.03621300682425499,0.053952258080244064
