time,seconds_elapsed,z,y,x
1783174123306059000,0.08505908203125,-0.07154431025385856,-0.12039642130415885,-0.0812732387162745
1783174123316127700,0.095127685546875,-0.03339081294834614,-0.1196899170026183,-0.0675100589022506
1783174123326195700,0.10519580078125,0.02481587682664394,-0.07989851629696786,-0.06158737258869223
1783174123336264000,0.115263916015625,0.05534428608119488,-0.0645918607674539,-0.0737107767059002
1783174123346332700,0.125332763671875,-0.07124854217767715,-0.09174425425026565,-0.016132758489577098
1783174123356400600,0.135400634765625,-0.06226853238642215,-0.11856219161432235,0.0035214703907258805
1783174123366468900,0.14546875,-0.015881459742784498,-0.12350434245793149,0.00791616168571636
1783174123376537900,0.155537841796875,0.02856441570520401,-0.09694030678970739,-0.007829652446042746
1783174123386605800,0.165605712890625,0.0016337386816740035,-0.11571295792935415,-0.01958288067714311
1783174123396674800,0.1756748046875,-0.058522916117310524,-0.11816605016989633,-0.014351802490092814
1783174123406742800,0.18574267578125,-0.05224339745640754,-0.12348759225253016,-0.018663783937692642
1783174123416810800,0.195810791015625,0.0067132339030504225,-0.13446242912281303,-0.016289108961913733
1783174123426880000,0.2058798828125,0.02362695930302143,-0.12118366269171237,0.004138990367716178
1783174123436947700,0.21594775390625,-0.01393207924067974,-0.10134161048857494,-0.01067217326243408
1783174123447015700,0.226015625,-0.0670551821410656,-0.08760355598265304,-0.026099011972360312
1783174123457085000,0.2360849609375,-0.007355623459815978,-0.07837342562153934,-0.019533095851819962
1783174123467153000,0.24615283203125,0.02796177363693714,-0.08557506409604101,-0.04540969724515453
1783174123477220900,0.256220947265625,0.0017751929789781569,-0.0734560804256238,-0.04274810421993024
1783174123487289900,0.266289794921875,-0.03877601311802864,-0.0741767411166802,-0.07131037363382056
1783174123497357800,0.27635791015625,-0.0297977568924427,-0.06696078185588121,-0.08036266320999712
1783174123507425800,0.28642578125,0.012999182304739952,-0.061770994660444556,-0.08384645020514726
1783174123517495000,0.2964951171875,0.0034299744486808773,-0.07771271495679392,-0.07665557058667763
1783174123527562800,0.306562744140625,-0.014820552513003349,-0.06663947747964412,-0.07445732075688428
1783174123537630700,0.316630615234375,-0.03441957147419453,-0.0835327446134761,-0.07502633455018512
1783174123547699700,0.32669970703125,-0.021847674670815467,-0.07446167727159336,-0.04650078041749075
1783174123557768000,0.336767822265625,-0.0022416414469480514,-0.10443088174080475,-0.05168100520013831
1783174123567836000,0.3468359375,0.0070376435518264766,-0.12090369497286155,-0.029131931661162524
1783174123577904600,0.356904541015625,-0.02887245874106884,-0.11904971940293907,-0.008546732940524816
1783174123587972900,0.366972900390625,-0.03979425024986267,-0.1133636000579223,-0.01572018650015816
1783174123598040800,0.377040771484375,-0.010012275448441505,-0.10457719487631693,-0.004237683235527947
1783174123608109800,0.38710986328125,0.014532383221387862,-0.1061388364361599,0.005831108173122629
1783174123618177800,0.397177734375,-0.012850129222869872,-0.1012332912758924,0.0029628866598941385
1783174123628245800,0.407245849609375,-0.039487960779666896,-0.09089693497223779,-0.0071388571702875195
1783174123638314800,0.417314697265625,-0.021079028385877607,-0.10977671801447868,-0.027391079343203454
1783174123648383000,0.427383056640625,-0.017032383343577383,-0.11943888311730697,-0.016402524474821985
1783174123658451000,0.437450927734375,-0.0035609073519706725,-0.08686287541687487,-0.0392984204237815
1783174123668519700,0.447519775390625,-0.02166238123178482,-0.08326488745752722,-0.04512811295795254
1783174123678588000,0.457587890625,-0.04066401882171631,-0.08352962107462808,-0.04904278391734697
1783174123688657000,0.467656982421875,-0.018662614893913267,-0.08505821888139471,-0.06422701864358969
1783174123698724900,0.477724853515625,-0.0029477438896894454,-0.06811893891505896,-0.06073450035271234
1783174123708792800,0.487792724609375,-0.008930909952521323,-0.08216580364182591,-0.05880989809883758
1783174123718861800,0.49786181640625,-0.030475802284479138,-0.09735232165670021,-0.05643372528571635
1783174123728929800,0.5079296875,-0.03615560148656368,-0.07305420336015522,-0.03731451659756713
1783174123738997800,0.517997802734375,-0.003082768446207046,-0.08489661684520543,-0.05610778126697987
1783174123749066800,0.528066650390625,-0.002778232541680336,-0.08896461520278826,-0.028089153743116182
1783174123759134700,0.538134765625,-0.02162964800596237,-0.08940631282199174,-0.02161150042791851
1783174123769202700,0.54820263671875,-0.027457915768027304,-0.07782375584952533,-0.03349126851498149
1783174123779272000,0.55827197265625,-0.01144376955628395,-0.10672255460824817,-0.020568019256973637
1783174123789340000,0.56833984375,0.0036859950363636014,-0.09381353480499237,-0.023020207315217703
1783174123799407600,0.57840771484375,-0.011108838513493537,-0.09699404627094045,-0.02147934368192218
1783174123809476900,0.588476806640625,-0.017825579547882078,-0.08844013467095792,-0.031921489314455535
1783174123819544800,0.598544921875,-0.026045710882544516,-0.09090305418577045,-0.007061079226341098
1783174123829612800,0.60861279296875,-0.010028057539463042,-0.09491811677971854,-0.007871080434974283
1783174123839681800,0.618681884765625,-0.0064268181771039955,-0.07909993153149261,-0.024113144517922774
1783174123849749800,0.628749755859375,-0.0171884506881237,-0.09175378926359117,-0.029753579823998733
1783174123859817700,0.638817626953125,-0.024640520259737966,-0.07931129099354148,-0.018704636537889018
1783174123869887000,0.648886962890625,-0.011149170523881912,-0.08960198152456432,-0.02701174290310591
1783174123879954700,0.65895458984375,-0.02174655238389969,-0.08107828239975497,-0.023262263309629633
1783174123890023700,0.669023681640625,-0.012296586993336677,-0.07160159339904784,-0.03696173023767769
1783174123900092000,0.679091796875,-0.016160861206054686,-0.07914722300563007,-0.037187529217032715
1783174123910160000,0.689159912109375,-0.0225695592045784,-0.0651224239801988,-0.03270349740446545
1783174123920228600,0.699228515625,-0.014471592944860457,-0.07416269432501867,-0.03583771291011944
1783174123930296800,0.709296875,-0.019839257457852363,-0.07671608686856925,-0.05161993179582059
1783174123940364800,0.71936474609375,-0.019223171386122704,-0.06656555372690781,-0.023964091436052694
1783174123950433800,0.729433837890625,-0.026384733578562736,-0.07520210210904478,-0.023967552901618182
1783174123960502000,0.739501953125,-0.01724047313630581,-0.07263694606246426,-0.03673712770156562
1783174123970569700,0.74956982421875,-0.010797872868180274,-0.0628045206929557,-0.0390001955290325
1783174123980638700,0.759638671875,-0.003302548676729202,-0.06644492302192374,-0.03216576466541737
1783174123990707000,0.76970703125,-0.031276012751460074,-0.057569597447849806,-0.026168542677769437
1783174124000775000,0.77977490234375,-0.007921440649032592,-0.047193621519859875,-0.022396029268577693
1783174124010843600,0.78984375,-0.018987609064579008,-0.05870196247864514,-0.020877751926425842
1783174124020911600,0.79991162109375,-0.027356793481111526,-0.04970359504679218,-0.01731008604010567
1783174124030979800,0.809979736328125,-0.013279168289899826,-0.05431792044183239,-0.024191351720131933
1783174124041048800,0.820048828125,-0.010125672695040703,-0.0663062086709775,-0.014691153979673981
1783174124051116800,0.83011669921875,-0.009818798702955246,-0.06746882270956411,-0.02050262587056495
1783174124061186000,0.84018603515625,-0.027616321200132368,-0.07845761503996328,-0.007938282185979187
1783174124071254300,0.850254150390625,-0.009948562562465667,-0.08020478750085458,-0.0027065372786484656
1783174124081322200,0.860322265625,-0.022213585373759268,-0.0771781879549846,0.009065386519767344
1783174124091391000,0.870390869140625,-0.009486205747723579,-0.07575789109459147,-0.0053548050314188
1783174124101459200,0.880459228515625,-0.022648469659686088,-0.0783808600093238,-0.019000888671260326
1783174124111527200,0.890527099609375,-0.021445523610711097,-0.07645798392165452,-0.03649648734610528
1783174124121596200,0.90059619140625,-0.009161796098947525,-0.06723607339961454,-0.03703367209588177
1783174124131664400,0.910664306640625,-0.026211715099215507,-0.06114418626530096,-0.05353535522939637
1783174124141732000,0.920732177734375,-0.01423486157953739,-0.059419664027635,-0.060356488220021126
1783174124151801000,0.930801025390625,-0.007349193719029426,-0.04418667652253061,-0.045677910594129935
1783174124161869300,0.940869384765625,-0.020364158114790917,-0.045622956403344864,-0.04448213407145813
1783174124171937300,0.950937255859375,-0.02545066759884357,-0.03886915302788838,-0.05604452503873035
1783174124182006000,0.961006103515625,-0.019162381109595297,-0.048360509874764826,-0.03565444703139364
1783174124192074200,0.97107421875,-0.01362578977048397,-0.04416892167013138,-0.03507378846607171
1783174124202143200,0.981143310546875,-0.022453823870420456,-0.04888864366840571,-0.011680281725898384
1783174124212211200,0.991211181640625,-0.02320084284543991,-0.05361156227076426,-0.01300562117868103
1783174124222279200,1.001279052734375,-0.03173077078163623,-0.06487212074724957,0.0019903518333099783
1783174124232348200,1.01134814453125,-0.021406360644102094,-0.07574521427610889,0.0008775865521281957
1783174124242416000,1.021416015625,-0.026640169644355772,-0.06673459015088155,0.009074693204229697
1783174124252484000,1.031484130859375,-0.0178115510225296,-0.060792614614963526,0.001322910033678636
1783174124262553000,1.041552978515625,-0.019909400084614753,-0.04946401413725689,-0.0040433845061343164
1783174124272621000,1.05162109375,-0.022308277919888497,-0.07133517928151413,-0.0027108572607394306
1783174124282689000,1.06168896484375,-0.024555180063843725,-0.07809024303229525,-0.03187003312185407
1783174124292758300,1.07175830078125,-0.008541618373990058,-0.06779794506607577,-0.02935363898728974
1783174124302826200,1.081826171875,-0.024251813203096387,-0.05574289347734302,-0.015779853398678823
1783174124312894200,1.091894287109375,-0.015718378135561942,-0.04863311627106741,-0.02420559944119304
1783174124322963200,1.101963134765625,-0.021847674670815467,-0.040761761841457335,-0.031970698751043525
1783174124333031200,1.11203125,-0.024233693024516105,-0.06617768692048266,-0.025703573780832812
1783174124343100200,1.12210009765625,-0.0037292496562004087,-0.03619876477485522,-0.048521225994965056
1783174124353168100,1.132168212890625,-0.004472761499881744,-0.02883324097553268,-0.04413247125041671
1783174124363236000,1.142236083984375,-0.017636778977513312,-0.03882460150010884,-0.04205585677260533
1783174124373305000,1.15230517578125,-0.019130232405662535,-0.03196775787528604,-0.037120665392745285
1783174124383373300,1.162373291015625,-0.001471241596341133,-0.039521241994760925,-0.04164746776795946
1783174124393441300,1.172441162109375,-0.006110591834783553,-0.03631879269164055,-0.04290330391479656
1783174124403510000,1.182510009765625,-0.02376549099087715,-0.04518651948114857,-0.024749414861155672
1783174124413578200,1.192578125,-0.015076573100686072,-0.05819204019512981,-0.008681912760669364
1783174124423646200,1.202646240234375,-0.022859482061862946,-0.07150220641149208,-0.00951432673051022
1783174124433715200,1.212715087890625,-0.02001753663420677,-0.06219849935751408,-0.012756085130712016
1783174124443783200,1.222783203125,-0.009839256969094276,-0.060296337264310565,0.014301287012407555
1783174124453851100,1.23285107421875,-0.01597322967946529,-0.05759918886851519,-0.0010152688566129654
1783174124463920000,1.242920166015625,-0.01732230620086193,-0.05626130959456786,-0.004259082216583192
1783174124473988400,1.25298828125,-0.02405482932627201,-0.0660675593432039,-0.016960943808872253
1783174124484057000,1.26305712890625,-0.01911561935842037,-0.06645533481808379,-0.010201843203790485
1783174124494125000,1.273125,-0.0031038112342357633,-0.07370430129934102,-0.014958463146351277
1783174124504193000,1.283193115234375,-0.007437456524372101,-0.0521013221045956,-0.035178664479497815
1783174124514262300,1.29326220703125,-0.020747604474425314,-0.041211587968189266,-0.03237095924816094
1783174124524330200,1.303330322265625,-0.013706453791260719,-0.031890199127048255,-0.04801686580255627
1783174124534398000,1.31339794921875,-0.017593524357676506,-0.03827697755470872,-0.05281653943555429
1783174124544467200,1.32346728515625,-0.005768646529316902,-0.05313238218538463,-0.023325108545925465
1783174124554535200,1.33353515625,-0.010402151548862457,-0.03733593384493142,-0.03854436891977675
1783174124564603100,1.34360302734375,-0.023566753548383713,-0.03014096257323399,-0.041463717832043764
1783174124574672100,1.353672119140625,-0.003957213193178177,-0.032711543713603165,-0.027563312371261417
1783174124584740000,1.363739990234375,0.0017307693153619766,-0.051169612478744235,-0.040549178536701945
1783174124594809300,1.373809326171875,-0.015029811349511146,-0.051014494982268656,-0.029054984834278
1783174124604877300,1.383877197265625,-0.017276713493466378,-0.04452818343658,-0.02804734216169454
1783174124614945300,1.3939453125,-0.018024316990375516,-0.037048732667695726,-0.030674557993281632
1783174124625014000,1.404013916015625,-0.02205634898543358,-0.045817894453555344,-0.01823486360167153
1783174124635082200,1.414082275390625,-0.014869652351737022,-0.06936625382872298,-0.006348154317168519
1783174124645150200,1.424150146484375,-0.01621463721990585,-0.05390084580723196,0.004583035207632929
1783174124655219200,1.43421923828125,-0.012920856371521948,-0.05956312761893495,-0.013874914826499298
1783174124665287200,1.444287109375,-0.007383095988631248,-0.05799169531743973,0.011150138638261704
1783174124675355100,1.454355224609375,-0.010077157378196715,-0.06508662201445549,0.0015377674939110874
1783174124685424000,1.464424072265625,0.004438274708390235,-0.06142716792514547,-0.00062229661680758
1783174124695492400,1.474492431640625,-0.01770750612616539,-0.04859269292913377,0.009974646851792932
1783174124705561000,1.48456103515625,-0.00378887088894844,-0.025733439196133984,0.004722197083150968
1783174124715629000,1.494629150390625,-0.018300795844197273,-0.045882904247473925,-0.037486904889252035
1783174124725697300,1.504697265625,-0.003634557110071182,-0.02932728983648121,-0.02568824834753759
1783174124735766300,1.514766357421875,0.005194646033644676,-0.013701028697472065,-0.040015847978135566
1783174124745834200,1.524834228515625,-0.00871931302845478,-0.03080951861771755,-0.03031713199089281
1783174124755902200,1.534902099609375,-0.012757774764299392,-0.01626736292098649,-0.04039714804645628
1783174124765971200,1.54497119140625,-0.019188100072741507,-0.02886232093954459,-0.02842955554546788
1783174124776039200,1.5550390625,-0.008709376156330108,-0.016541521953558548,-0.04358870149622671
1783174124786107400,1.565107421875,-0.012445640075206757,-0.034985087269311765,-0.03927706710849888
1783174124796176100,1.575176025390625,-0.0037619828820228576,-0.035327525765122846,-0.028108379033394155
1783174124806244000,1.585244140625,-0.028451602980494498,-0.051879486914305016,-0.0179318803334143
1783174124816313300,1.595313232421875,-0.012737901020050048,-0.044007895022677254,-0.01630093639702536
1783174124826381300,1.60538134765625,-0.01842471448481083,-0.041881797113642094,0.0032250081948004663
1783174124836449000,1.615448974609375,-0.014983049598336219,-0.04395915137697011,-0.009315059565054252
1783174124846518300,1.625518310546875,-0.011838906353712082,-0.05762069744742475,-0.0017063107275404035
1783174124856586200,1.635586181640625,-0.013339374044537543,-0.059269624565076076,-0.005143792629241943
1783174124866654200,1.645654296875,-0.019175240591168402,-0.051217397143226116,0.006535055191395804
1783174124876723200,1.65572314453125,-0.02590834823846817,-0.0513673544073943,-0.006054048475110903
1783174124886791200,1.665791259765625,-0.01827566140294075,-0.04331008548424579,-0.008248288850067183
1783174124896859100,1.675859130859375,-0.01258358724117279,-0.04987201954941265,-0.01923078843699768
1783174124906928400,1.685928466796875,-0.011080196940898894,-0.04339961779806763,-0.007229585927352309
1783174124916996400,1.695996337890625,-0.005987257716059685,-0.03718279824298806,-0.01767610634090379
1783174124927065000,1.706065185546875,-0.024534721797704696,-0.037156969681987534,-0.03177769692959264
1783174124937133000,1.716133056640625,-0.008516483932733535,-0.04685691864509135,-0.038644048168277365
1783174124947201300,1.726201171875,-0.015843465819954872,-0.02601867674514651,-0.04029840951287188
1783174124957270300,1.736270263671875,-0.012547346884012222,-0.031096509732399132,-0.01663931063907221
1783174124967338000,1.746337890625,-0.009697218149900436,-0.02008757879626937,-0.028096560731437056
1783174124977406200,1.75640625,-0.023607670080661773,-0.02714825616381131,-0.04707349313837476
1783174124987475200,1.76647509765625,-0.02839139722585678,-0.03225642035724595,-0.029140964350989087
1783174124997543200,1.776543212890625,-0.011629647517204285,-0.040199680112442,-0.019397331509785724
1783174125007611400,1.786611328125,-0.020158990931510926,-0.03286839650943875,-0.009034836117876694
1783174125017680100,1.79668017578125,-0.021056232032179833,-0.037741400240128856,-0.005996354337967932
1783174125027748000,1.806748046875,-0.01626607514619827,-0.04679266690299846,0.0017865272237453608
1783174125037817300,1.8168173828125,-0.003992284506559371,-0.04627939275177195,0.02003922787620686
1783174125047885000,1.826885009765625,-0.016261398971080778,-0.051259062594175335,0.017375059301406145
1783174125057953000,1.836953125,-0.025090602114796638,-0.05346914899223484,0.0005566931678447873
1783174125068022000,1.84702197265625,-0.011171382355690002,-0.059477696091495454,-0.01998876719744876
1783174125078090000,1.857090087890625,0.003193243083357811,-0.039051907449960704,-0.002208533761790022
1783174125088158000,1.867157958984375,-0.01940145056247711,-0.035326219724025575,-0.008409507293766364
1783174125098227000,1.87722705078125,-0.025237901630997657,-0.03660321738990024,-0.009956316610658541
1783174125108295000,1.887294921875,-0.014611878198385237,-0.03752555639920756,-0.018476243742648512
1783174125118364000,1.897364013671875,-0.022092004820704458,-0.0221532243554946,-0.03508160644634627
1783174125128432000,1.90743212890625,0.0015536591827869414,-0.023829039480071514,-0.037388960940111425
1783174125138500000,1.9175,-0.014303835162520408,-0.027964696246385572,-0.03043457522494718
1783174125148568800,1.92756884765625,-0.01564882003068924,-0.012008189372858032,-0.026989293609280138
1783174125158637000,1.937636962890625,-0.02148059492409229,-0.02533788227359764,-0.027580336571298537
1783174125168705000,1.947705078125,-0.01729015749692917,-0.030196218158118425,-0.022013706286950034
1783174125178773800,1.957773681640625,-0.010106967994570731,-0.03610835567819886,-0.014338522883411496
1783174125188841700,1.967841796875,-0.021176643541455268,-0.04410954703255556,-0.017770168699370696
1783174125198910000,1.977909912109375,-0.010701426756381988,-0.03974877627347596,-0.010128604437643662
1783174125208979000,1.98797900390625,-0.01025426751077175,-0.0410886009093374,0.009332028966164215
1783174125219047000,1.998046875,-0.018034838384389875,-0.03316788177951239,-0.009684102940000593
1783174125229116000,2.008115966796875,-0.02072597716450691,-0.03580791142689995,-0.015020906523847952
1783174125239184000,2.018183837890625,-0.0048643911659717555,-0.03506228982452303,-0.014719841218041256
1783174125249251800,2.028251953125,-0.009052490505576133,-0.036136102201649915,-0.001825224399473518
1783174125259321000,2.038321044921875,-0.004710661908984184,-0.04164766869735904,0.004791599924396723
1783174125269388800,2.048388916015625,-0.0252098445802927,-0.047863246143423015,-0.020803828173689542
1783174125279456800,2.058456787109375,-0.017128244933485984,-0.03296696151308715,-0.0002970101851969957
1783174125289526000,2.068526123046875,-0.010090601381659507,-0.04354709997735917,-0.007778068389277905
1783174125299594000,2.078593994140625,-0.012331073784828185,-0.032007541896402834,-0.03319561916980892
1783174125309662700,2.088662841796875,-0.009486205747723579,-0.02637329886909574,-0.022424369447072965
1783174125319731000,2.09873095703125,-0.02474631872177124,-0.036081321540800855,-0.011829654468176886
1783174125329799000,2.108798828125,-0.014117372679710386,-0.021379363039322197,-0.016760964257363228
1783174125339868000,2.118867919921875,-0.01156885724067688,-0.02390597717380151,-0.02021492236983031
1783174125349936000,2.12893603515625,-0.008272153782844544,-0.0237908080952242,-0.03569928168696351
1783174125360003800,2.13900390625,0.003551555001735687,-0.013856109661329536,-0.02307020220309496
1783174125370072800,2.14907275390625,-0.024574469286203382,-0.02476128796203993,-0.02644532292569056
1783174125380141000,2.15914111328125,0.0007148702710866927,-0.02654165943963453,-0.027820967793604358
1783174125390209000,2.169208984375,-0.017838439029455182,-0.017188359356578437,-0.030425889594992622
1783174125400277800,2.17927783203125,-0.010355974319577216,-0.024775800544582307,-0.018151359169837088
1783174125410346000,2.189345947265625,-0.016338555860519407,-0.0510492009694688,-0.021890947556961325
1783174125420415000,2.1994150390625,-0.01184767418205738,-0.03598618147009983,-0.015032386899087577
1783174125430483000,2.20948291015625,0.0001239186406135559,-0.030116111259767785,-0.01575321198692545
1783174125440551200,2.21955126953125,-0.025163082829117774,-0.02363006457556039,-0.025118330371938644
1783174125450620000,2.229619873046875,-0.01603518899977207,-0.027295994071429595,-0.0036500652064569293
1783174125460688000,2.23968798828125,-0.01827916853427887,-0.050829146744310855,0.006890234437771141
1783174125470755800,2.249755859375,-0.01977612909376621,-0.0316694507821463,-0.00262616551881656
1783174125480824800,2.259824951171875,-0.009750409641861916,-0.029283386762673034,-0.018624940631492063
1783174125490892800,2.269892822265625,-0.007802782705426216,-0.028234964555129406,-0.019694012901419772
1783174125500962000,2.279962158203125,-0.007800444617867469,-0.04403113890094682,-0.019781234527146443
1783174125511030000,2.290030029296875,-0.027702245917916295,-0.03009807327957824,-0.023220533926598726
1783174125521098000,2.300097900390625,-0.02755260831415653,-0.019220130045665428,-0.028369550720229744
1783174125531167000,2.3101669921875,-0.018722820648550985,-0.02317910593766719,-0.004547963894251734
1783174125541235000,2.32023486328125,-0.013483166429400444,-0.030160525790229438,-0.014557864722516387
1783174125551303000,2.330302978515625,-0.012884031492471694,-0.02281334136519581,-0.026424334936589
1783174125561372200,2.3403720703125,-0.020516133806109428,-0.027036502885026854,-0.016071584620559586
1783174125571439900,2.35043994140625,-0.020218612164258954,-0.028071398890716952,-0.010546482789842411
1783174125581508900,2.3605087890625,-0.015428455278277397,-0.027417793820193034,-0.010321898520039395
1783174125591576800,2.370576904296875,-0.013777765461802483,-0.023067727118218317,-0.014398874768521636
1783174125601645000,2.38064501953125,-0.022456746479868887,-0.012009714609663933,-0.018871590602630748
1783174125611713800,2.3907138671875,-0.014075287103652953,-0.02891579555929638,-0.005252047909842804
1783174125621781800,2.40078173828125,-0.01422317114174366,-0.01041411598129198,-0.013826856167381628
1783174125631850000,2.41085009765625,-0.01856149260699749,-0.02207426823461428,-0.012384667135588823
1783174125641919000,2.4209189453125,-0.016315174984931943,-0.035264032074855636,-0.01298877050857991
1783174125651987000,2.430987060546875,-0.0016518588602542877,-0.029584031943371517,-0.011096289559174329
1783174125662056000,2.441055908203125,-0.010479892960190772,-0.022612640294479205,-0.011535585158737375
1783174125672124000,2.4511240234375,-0.02244797865152359,-0.010147975858394056,-0.0027306214071344584
1783174125682192000,2.46119189453125,-0.01706394752562046,-0.02309263323061168,-0.013811366337304934
1783174125692260900,2.4712607421875,-0.006289455533027648,-0.02542082044985145,-0.01139731833236292
1783174125702328800,2.481328857421875,-0.021552491116523742,-0.010750133869471028,-0.037118007644778114
1783174125712396800,2.491396728515625,-0.014665069690346717,-0.01861312232953496,-0.022240382049139588
1783174125722466000,2.501466064453125,-0.011222235760092734,-0.025661597802629693,-0.010091286368248983
1783174125732534000,2.511533935546875,-0.01316343295574188,-0.011114701998699456,-0.009905070480611174
1783174125742602800,2.521602783203125,-0.012263269245624542,-0.015523841944150626,-0.005984873962728307
1783174125752671000,2.5316708984375,-0.02213993561565876,-0.046971375337615605,0.0009312255686614662
1783174125762739000,2.541739013671875,-0.022439795345067976,-0.03957472574766725,-0.002565612704306841
1783174125772808000,2.551807861328125,-0.016752981880307195,-0.020533514199173077,-0.007354061690391972
1783174125782876000,2.5618759765625,-0.020196400332450865,-0.02377894412749447,-0.014961413155263288
1783174125792943900,2.57194384765625,-0.016306991678476334,-0.030987459867354482,-0.0065167158171068875
1783174125803012900,2.582012939453125,-0.011968670213222503,-0.01804030914395116,-0.02222164994920604
1783174125813081000,2.5920810546875,-0.014510171389579772,-0.015748243550863118,-0.003490271534863859
1783174125823149000,2.602149169921875,-0.009272270736098289,-0.016253124333079905,0.011505902406526729
1783174125833217800,2.6122177734375,-0.0062754270076751705,-0.03230057002622634,-0.006932338280137628
1783174125843286000,2.6222861328125,-0.014205635485053061,-0.026912365048704666,-0.017888580047804862
1783174125853355000,2.63235498046875,-0.009866729497909545,-0.0210239554640837,-0.016476329496549442
1783174125863423000,2.642423095703125,-0.016599837145209313,-0.02952903208681382,-0.015887332361144944
1783174125873491000,2.652490966796875,-0.018245266264677047,-0.036294297571200874,-0.00788378465292044
1783174125883560000,2.662559814453125,-0.01106207676231861,-0.02474531407477334,-0.02375960923936218
1783174125893628000,2.6726279296875,-0.001035188266634941,-0.020282571645407005,-0.018916324793500826
1783174125903696000,2.68269580078125,-0.010611410385370255,-0.03462187998010777,-0.006527575137838721
1783174125913764900,2.692764892578125,-0.022430442994832992,-0.023530147865042088,-0.014156471714237704
1783174125923832800,2.702832763671875,-0.023626374781131745,-0.01087578780944459,-0.017750112292030825
1783174125933902000,2.712902099609375,-0.02407528759241104,-0.031114438114734366,-0.015259427987458184
1783174125943970000,2.722969970703125,-0.02422258710861206,-0.022771986441500483,-0.004396874118922278
1783174125954038000,2.7330380859375,-0.014042553877830504,-0.011551714309630914,-0.01958763905065134
1783174125964107000,2.74310693359375,-0.017184943556785584,-0.022534588355896994,0.005361243905359879
1783174125974175000,2.753175048828125,-0.020476970839500425,-0.03011374577274546,-0.0007060567769687623
1783174125984243000,2.763242919921875,-0.023470307436585423,-0.03366689907652326,-0.015891853272635488
1783174125994312000,2.77331201171875,-0.01927870096564293,-0.007262620547274127,-0.03318773725745268
1783174126004380000,2.7833798828125,-0.017035890474915504,-0.02031945132338442,-0.008434851797576992
1783174126014449000,2.793448974609375,-0.015987842726707457,-0.029134059686167165,-0.011429604033613577
1783174126024516900,2.803516845703125,-0.02092296104133129,-0.019686478048935533,-0.027811204451415685
1783174126034585000,2.813585205078125,-0.003264554753899574,-0.03327690424509346,0.00623323183376342
1783174126044653800,2.82365380859375,-0.020918284866213797,-0.02141131081385538,-0.011621208482421933
1783174126054721800,2.8337216796875,-0.00969488006234169,-0.015324867039639502,-0.015019500018050894
1783174126064790000,2.8437900390625,-0.012988076388835906,-0.01813837182410061,-0.019680541498493402
1783174126074859300,2.853859375,0.0012234043151140212,-0.016869530065217984,-0.001955481449328363
1783174126084927000,2.863927001953125,-0.010146130961179733,-0.019284993709111586,-0.002644888485595584
1783174126094996000,2.873995849609375,-0.029746903488039968,-0.019245127489604056,0.004728855152800679
1783174126105064200,2.884064208984375,-0.027801030117273327,-0.005160067910607904,-0.0033648276574444022
1783174126115132200,2.894132080078125,-0.01403320152759552,-0.022846056324709204,-0.007252966802939772
1783174126125201000,2.904200927734375,-0.018674305331707,-0.02405945983561687,-0.012468409029440953
1783174126135269000,2.91426904296875,-0.02316343344449997,-0.030327443322353063,-0.0012121979345101862
1783174126145338000,2.924338134765625,-0.009695464584231376,-0.018606345528876408,-0.015147793439682573
1783174126155406000,2.934406005859375,-0.019421324306726453,-0.02208310912819579,-0.0174640436259564
1783174126165474300,2.944474365234375,-0.02600362530648708,-0.005968416018271819,-0.004785133650992065
1783174126175543000,2.95454296875,-0.019269348615407942,-0.035168481012200936,-0.02264137319861911
1783174126185611000,2.964611083984375,-0.0099906481385231,-0.00626293285228312,-0.016117241260036826
1783174126195679000,2.974678955078125,-0.011039864930510521,-0.020775086136395112,-0.016445989157212897
1783174126205748000,2.984748046875,-0.017623919495940207,-0.021307987436698747,-0.0068254164400976145
1783174126215816000,2.99481591796875,-0.012235212194919586,-0.016589288351731374,-0.011065364697948098
1783174126225885200,3.00488525390625,-0.008044774767756462,-0.024307406714698297,-0.010123334607481957
1783174126235953200,3.014953125,-0.022409400206804275,-0.025260615786304695,-0.0029354871963150797
1783174126246021000,3.025021240234375,-0.0034036709636449812,-0.0186985995227471,-0.016228072090214117
1783174126256090000,3.035090087890625,-0.0023527006059885025,-0.016713316590199246,-0.01020851953974925
1783174126266158000,3.045157958984375,-0.02404956862926483,-0.019764182927645743,-0.003244279150851071
1783174126276226000,3.05522607421875,-0.015817746856808663,-0.014419031640561297,-0.011043901784811168
1783174126286295300,3.06529541015625,-0.00788403124809265,-0.022232719332491976,-0.006372850367007777
1783174126296363000,3.075363037109375,-0.0012976385951042175,-0.017722292703343554,-0.0036905798799358306
1783174126306432000,3.085431884765625,-0.011920154896378517,-0.020773451301734892,-0.007616484619397669
1783174126316500000,3.0955,-0.016106500670313835,-0.015327433456061407,-0.000530882873153314
1783174126326568200,3.105568115234375,-0.020445406657457352,-0.023488153620529917,0.004109481145441532
1783174126336637000,3.115636962890625,-0.02448445291519165,-0.02299108168543316,-0.01475461113732308
1783174126346705000,3.125704833984375,-0.014610124632716178,-0.017635600800579413,0.00044062904012389477
1783174126356773000,3.135773193359375,-0.003836217162013054,-0.025451489582750945,-0.013204367754328995
1783174126366842000,3.145842041015625,-0.003836217162013054,-0.017854257653094827,-0.025251144705060867
1783174126376910000,3.15591015625,-0.004433014011383057,-0.02179244648539461,-0.010154168137162923
1783174126386979000,3.16597900390625,-0.0021896189987659453,-0.004444987576967105,-0.004693455045856535
1783174126397047000,3.176047119140625,-0.006377133816480636,-0.000853237562160939,-0.00007349449447356164
1783174126407115000,3.186114990234375,-0.022836101186275482,-0.005305860456312075,-0.022595716559141873
1783174126417184000,3.19618408203125,-0.024632336953282354,-0.007551200830843299,-0.017338115691347047
1783174126427252000,3.206251953125,-0.015351298388838768,-0.010837839552387594,0.006029005365399643
1783174126437321000,3.216321044921875,-0.016844167295098304,-0.008508090563723817,-0.012977527595357969
1783174126447389200,3.22638916015625,-0.012654314389824867,-0.009464596704114227,-0.02085634381221607
1783174126457457200,3.23645703125,-0.017590017226338385,0.0013354863874614237,-0.0021647494189906864
1783174126467526000,3.24652587890625,-0.012052841365337371,-0.014280691748950629,0.00043665611790493126
1783174126477594000,3.256593994140625,-0.02103285115659237,-0.01983282771706581,0.0011438728054985403
1783174126487662000,3.266662109375,-0.014152443993091582,-0.027046147496206683,-0.020070645927777513
1783174126497731000,3.27673095703125,-0.006371873119473457,-0.019005272585432977,-0.01661218517012894
1783174126507799000,3.286799072265625,-0.01564706646502018,-0.021856917423196134,0.012399764240020886
1783174126517868000,3.296867919921875,-0.014898293924331665,-0.018111949608055875,-0.007556552859395742
1783174126527936000,3.30693603515625,-0.00741875182390213,-0.01522122400207445,0.013205436333408578
1783174126538004200,3.317004150390625,-0.011008885270357132,-0.0317862090296112,-0.009739522921666502
1783174126548073000,3.327072998046875,-0.017893968608975408,-0.016897331387596203,-0.011028083161171525
1783174126558141000,3.337140869140625,-0.02088496711850166,-0.02625359974587336,-0.013044071759236976
1783174126568209200,3.347209228515625,-0.014148936861753463,-0.0168696396630723,-0.006060989672550931
1783174126578278100,3.357278076171875,-0.02088204450905323,-0.01199529335866682,-0.008422522038966417
1783174126588346000,3.36734619140625,-0.025667525219917296,-0.013178356530237943,-0.0029757461414672433
1783174126598415000,3.3774150390625,-0.01444528945982456,0.0009098905196879059,0.005650883634854107
1783174126608483000,3.387483154296875,-0.009805354699492454,-0.014831375301117077,-0.014076757541531697
1783174126618551000,3.397551025390625,-0.01983458128273487,-0.010189394714171067,-0.025078984742239116
1783174126628620000,3.4076201171875,-0.003524666994810104,-0.00836584168197587,-0.011677231252286582
1783174126638688000,3.41768798828125,-0.012051672321557998,-0.01171717967018485,-0.010748818695219233
1783174126648757000,3.427757080078125,-0.029407296270132062,-0.002465148004516959,-0.005976745455199852
1783174126658825200,3.4378251953125,-0.01249473991394043,-0.019929237296245992,-0.018811604043701663
1783174126668893200,3.44789306640625,-0.00710720165669918,-0.029844637374626472,0.0038502182879019526
1783174126678962000,3.4579619140625,-0.03074994305074215,-0.03494274596492759,-0.0009190602068323641
1783174126689030100,3.468030029296875,-0.003965981021523475,-0.017043699322035536,-0.010054744616989046
1783174126699098000,3.47809814453125,-0.00007598784565925598,-0.023284548206673934,-0.008613213172322139
1783174126709167000,3.4881669921875,-0.005910685348510742,-0.009176719673443585,0.010804238676885142
1783174126719234800,3.49823486328125,-0.020126257705688474,-0.004371611813502386,0.008832938603917137
1783174126729304000,3.508303955078125,-0.008756137907505035,-0.0017712200567591935,-0.008416594621678814
1783174126739372000,3.5183720703125,-0.013098551025986671,-0.00816345097767189,-0.0005271748124156146
1783174126749440000,3.52843994140625,-0.011153262177109718,-0.022932547298073768,-0.007528541474463418
1783174126759509000,3.538509033203125,-0.01698854420185089,-0.009891452947212383,-0.014155503599857911
1783174126769577000,3.548576904296875,-0.03269932355284691,-0.014418008727254345,0.0030792247822508216
1783174126779646200,3.558646240234375,-0.021776363000273705,-0.014240871195215731,-0.006136803988274186
1783174126789714200,3.568714111328125,-0.028359248521924018,-0.004078492352133617,-0.017457577352551743
1783174126799782100,3.5787822265625,-0.008306056052446364,-0.014362771408678962,-0.021284250368084758
1783174126809851100,3.58885107421875,-0.005461188015341759,-0.009975834161881357,-0.01791442687511444
1783174126819919000,3.598919189453125,-0.01937748516499996,-0.012749582324689254,-0.00933782851928845
1783174126829988000,3.608988037109375,-0.014290391159057616,-0.0031494952731765803,-0.014810953567596152
1783174126840056000,3.61905615234375,-0.003966565543413162,-0.014292902776552364,0.008664358837669715
1783174126850124000,3.6291240234375,-0.009503741404414177,-0.02857603307776153,-0.005818851479748264
1783174126860193000,3.639193115234375,-0.011448445731401443,-0.006470611653057858,-0.007887355716340243
1783174126870261000,3.649260986328125,-0.005911854392290115,-0.0025528902200516314,0.002917476615589112
1783174126880330000,3.659330078125,-0.00890402194559574,-0.030165147166419774,-0.005306718972837552
1783174126890398000,3.66939794921875,-0.01518646321594715,-0.022279663746757432,-0.013134325592266394
1783174126900466000,3.6794658203125,-0.020725392642617226,-0.01566484871688299,-0.013101537567516789
1783174126910535200,3.68953515625,-0.02237257532775402,-0.02156463821204379,-0.01155768739269115
1783174126920603100,3.69960302734375,-0.00516132828593254,-0.022969518307596443,-0.0010768445844296366
1783174126930672000,3.709672119140625,-0.003961304846405982,-0.010794247005833313,-0.016960085292346775
1783174126940740000,3.719739990234375,-0.013538111487030982,-0.010649130313564091,-0.0015804558581672607
1783174126950808000,3.72980810546875,-0.01548573842346668,-0.00990027557448484,-0.018324231518711893
1783174126960877000,3.739876953125,-0.025658757391571998,-0.01964876725389622,-0.0025342403185088184
1783174126970945000,3.749945068359375,-0.006803250274062156,-0.015292471740534528,0.010979494779091327
1783174126981013000,3.760012939453125,-0.020119827964901922,-0.019414611438149584,-0.014636674712924286
1783174126991082000,3.77008203125,-0.009793664261698722,-0.007782616700232029,-0.015820852129347623
1783174127001150200,3.780150146484375,-0.004706570255756378,-0.013324596600513905,-0.007854668156290427
1783174127011219000,3.790218994140625,-0.016380056914687156,-0.015066846291115507,-0.004659497977327555
1783174127021287000,3.800286865234375,-0.03059387570619583,-0.01824047135855071,0.0010122457824647427
1783174127031355100,3.810355224609375,-0.009647533789277076,-0.030142834869911893,-0.008299352317024021
1783174127041424100,3.820424072265625,-0.012190788531303405,-0.016248713019443674,0.0173752876302693
1783174127051492000,3.8304921875,-0.020269465568661688,-0.01467500656247139,0.007150364944990724
1783174127061561000,3.84056103515625,-0.019819968235492706,-0.01741498945299536,-0.004173787686461583
1783174127071629800,3.8506298828125,-0.01353343531191349,-0.022064093900471926,-0.0016373371445573865
1783174127081697800,3.86069775390625,-0.028047113832831382,-0.017617836815025656,-0.008486435854341834
1783174127091766500,3.8707666015625,-0.01667524046897888,-0.00678190609193407,-0.010211149888252839
1783174127101834800,3.880834716796875,-0.031336218506097795,-0.021631438104249535,-0.01231253348113969
1783174127111903700,3.89090380859375,-0.01442483119368553,-0.01582491638311185,-0.0023654322233982385
1783174127121971700,3.9009716796875,-0.009036708414554595,-0.01702064724001102,-0.019064080967428162
1783174127132039700,3.911039794921875,-0.01876315265893936,-0.010407859770441428,-0.024718152073211968
1783174127142108700,3.921108642578125,-0.024895371803641316,-0.005509237541304901,-0.005424427068373188
1783174127152176600,3.9311767578125,-0.01636369030177593,-0.020619064457621423,-0.013201984000997617
1783174127162245600,3.94124560546875,-0.0010994856745004653,-0.008911045341426506,-0.017490730703482404
1783174127172313600,3.951313720703125,-0.017408815440535543,-0.007096314936503767,-0.016960204023355616
1783174127182381600,3.961381591796875,-0.017406477352976797,-0.009680924602225423,-0.010305714570218696
1783174127192450800,3.971450927734375,-0.013066986843943595,-0.0068418743845541025,-0.009848417523084208
1783174127202518800,3.981518798828125,-0.008279168045520782,-0.009952946476638316,-0.014839403343945741
1783174127212587500,3.99158740234375,-0.019652210453152654,-0.020816495859017594,0.0015488642766606062
1783174127222655700,4.00165576171875,-0.028183307433128354,-0.0010080536645371465,-0.02082639619852416
1783174127232723700,4.0117236328125,-0.0317757789671421,-0.007978824258921668,-0.0017049772869795559
1783174127242792700,4.021792724609375,-0.013670797955989836,-0.00425235108169727,0.001380704635521397
1783174127252860700,4.031860595703125,-0.008286182308197021,0.0016329897630028426,0.005639503724314272
1783174127262929700,4.0419296875,-0.018162848678231237,-0.009366269162483513,-0.0025038451802451163
1783174127272997600,4.05199755859375,-0.020707856985926625,-0.021511117926519364,-0.0054450131986755875
1783174127283065900,4.06206591796875,-0.012476035213470458,-0.012243897824874147,-0.0031699170066975054
1783174127293134600,4.072134521484375,-0.0055932899624109265,-0.013016946290293707,-0.02532915097787045
1783174127303202600,4.08220263671875,-0.01591711557805538,-0.00955211059078574,-0.010884674368798732
1783174127313271800,4.092271728515625,-0.020105214917659757,-0.03811952197067439,-0.004866190397413447
1783174127323339800,4.10233984375,-0.0025970307558774944,-0.024259685982298104,-0.003644831908913329
1783174127333407700,4.11240771484375,-0.0009480945050716399,-0.010581654567923397,-0.012008691696356981
1783174127343476700,4.122476806640625,-0.013217208969593048,-0.012380858610151335,-0.0113642837124411
1783174127353544700,4.132544677734375,-0.01202069266140461,-0.005316765442816541,0.004265913816168904
1783174127363613700,4.14261376953125,-0.014864976176619528,-0.008273633353877811,0.0019896668467205016
1783174127373681700,4.152681640625,-0.01232522856593132,-0.00298544555157423,0.014439170246291905
1783174127383749600,4.16274951171875,-0.013224807754158973,-0.005645394608983769,0.008317098036268726
1783174127393818600,4.172818603515625,-0.015916531056165695,-0.010571142307063564,-0.010058206082554533
1783174127403886800,4.182886962890625,-0.032224107256531714,0.0021320070600137114,-0.013783044425118714
1783174127413955600,4.19295556640625,-0.0160644150942564,0.004829283319972455,0.0005158588339574634
1783174127424023600,4.2030234375,-0.013523498439788818,-0.003963560735573992,-0.007149743890482932
1783174127434092800,4.2130927734375,-0.024745149677991865,-0.014984684432996435,-0.00869842550405301
1783174127444160800,4.223160888671875,-0.023398411244153976,-0.016495573053136467,0.0013189371114596723
1783174127454228700,4.233228759765625,-0.010678045880794525,-0.01081138080372475,-0.001763831334747374
1783174127464297700,4.243297607421875,-0.00663841510117054,-0.009188592774327844,0.0010942432438023387
1783174127474365700,4.25336572265625,-0.017412322571873664,-0.01669447489241138,-0.011773786961939186
1783174127484434700,4.2634345703125,-0.01950607998073101,-0.01757871038103476,-0.007650779614644125
1783174127494502700,4.273502685546875,-0.027587095105648038,-0.01650776581442915,0.005690832052752375
1783174127504570600,4.283570556640625,-0.012622165685892105,-0.007699377129878848,-0.000961218848126009
1783174127514639600,4.2936396484375,-0.013818681994080543,-0.013528138082288204,-0.01675660774265416
1783174127524707800,4.303707763671875,-0.012322890478372574,-0.01607205041144043,-0.006693917281227186
1783174127534776600,4.313776611328125,-0.012170330265164375,-0.006749866985855624,-0.003275140079995617
1783174127544844500,4.323844482421875,-0.017851883032917976,0.0014953713905997573,-0.0033091519474517553
1783174127554912500,4.33391259765625,-0.00632861849963665,-0.005214035720704123,-0.007556424995232373
1783174127564981800,4.343981689453125,-0.02293722347319126,-0.006950768985971808,0.01426638922896236
1783174127575049700,4.3540498046875,-0.029067689052224156,-0.011802282404061407,0.0062010283309035
1783174127585118700,4.36411865234375,-0.006618541356921195,-0.007983966224920005,-0.00716873171874322
1783174127595186700,4.374186767578125,0.0014648118555545806,-0.012773191529139876,0.005350594647182151
1783174127605255700,4.384255615234375,-0.01618891825675964,-0.017327210704842583,-0.0071125262857880435
1783174127615324000,4.394323974609375,-0.030998364853858946,-0.0020504936558660117,-0.023764659873815253
1783174127625391600,4.4043916015625,-0.009449380868673325,0.0018368600383400916,-0.01805200871489942
1783174127635460600,4.414460693359375,-0.012739654585719108,-0.008216532871779054,-0.005504798828205093
1783174127645528800,4.42452880859375,-0.011843582528829574,-0.017087273602280764,-0.015102173332823439
1783174127655597600,4.43459765625,-0.0347387204259634,0.004711136833019555,0.002561347521143034
1783174127665665500,4.44466552734375,-0.002867079868912697,-0.01243132842206396,0.0007543528981041163
1783174127675733500,4.4547333984375,-0.01633329516351223,-0.010050369835970923,-0.002205729883350432
1783174127685802800,4.464802734375,-0.014384499183297157,-0.00526329995621927,0.004131062789587304
1783174127695870700,4.47487060546875,-0.018724574214220045,-0.01484618927775882,-0.01066022709631361
1783174127705939700,4.484939697265625,-0.005558803170919418,-0.008698599033989013,-0.021098089279374108
1783174127716007700,4.495007568359375,-0.013043605968356131,-0.018391825995361433,-0.01771008167574182
1783174127726075600,4.50507568359375,-0.011547814452648162,-0.003030198008753359,0.00820314366724342
1783174127736145000,4.515144775390625,-0.013041267880797385,-0.013202166664088143,-0.004269567077979445
1783174127746212600,4.525212646484375,-0.015282909327745437,-0.014816981449583544,0.018683401953615248
1783174127756281600,4.535281494140625,-0.0010644143611192702,-0.00809508931604214,-0.0011474256026092916
1783174127766349800,4.545349853515625,-0.015578677403926848,-0.012465075428038834,-0.003616619594581425
1783174127776418600,4.55541845703125,-0.00031388825476169586,-0.014501586224325,0.0026201559031382203
1783174127786486500,4.565486572265625,-0.01123860237300396,-0.009586734379595145,0.0008713120749685913
1783174127796554500,4.575554443359375,-0.03024140900671482,-0.010042771051404997,-0.0032644360228907313
1783174127806623700,4.585623779296875,-0.019915829825401306,-0.006090224900189786,-0.00008887472669593989
1783174127816691700,4.595691650390625,-0.006150923845171928,-0.02600841107945889,-0.017644268164224923
1783174127826760700,4.6057607421875,-0.007796352964639664,-0.0044372426619287576,0.005531814699294045
1783174127836828700,4.61582861328125,0.00028232407271862027,0.000996829017624259,0.0022451577114406974
1783174127846897700,4.625897705078125,-0.011988543957471847,-0.017235340303461997,0.0018397643814794717
1783174127856966000,4.6359658203125,-0.019019173246622084,0.005605829783575609,0.005506798989046365
1783174127867033600,4.64603369140625,-0.017221768435835838,0.00663956587864086,-0.007234481298178434
1783174127877102600,4.6561025390625,-0.01617547425329685,0.006104573085950687,-0.003383322295360267
1783174127887170800,4.6661708984375,-0.012433949637413025,-0.008733624681597576,-0.006890298369852826
1783174127897239800,4.67623974609375,-0.01916881085038185,-0.012921194298239425,-0.016255690749501808
1783174127907307500,4.6863076171875,-0.017521628165245055,-0.028667172826780003,-0.0019902605017647146
1783174127917375500,4.69637548828125,-0.018420038309693337,-0.009841631589271128,-0.007186029913416132
1783174127927444700,4.70644482421875,-0.021112346133589744,-0.0008291716999839991,-0.0183651297846809
1783174127937512700,4.7165126953125,-0.02395195347368717,-0.0023039660934358833,-0.005585535914218053
1783174127947581700,4.726581787109375,-0.011530278795957565,-0.009466405068710446,-0.010220365241169928
1783174127957649700,4.736649658203125,-0.022454992914199827,-0.01658286774409935,-0.005424536666227504
1783174127967718700,4.74671875,-0.0205085350215435,-0.011568144854623824,-0.013963415093859656
1783174127977787000,4.756786865234375,-0.011530278795957565,-0.011443605159502476,0.003980548402993008
1783174127987854600,4.7668544921875,-0.019608955833315848,-0.007015787913044914,-0.00148151639518328
1783174127997923600,4.776923583984375,-0.014222002097964285,-0.0017264310669619588,-0.0005089907017536462
1783174128007991800,4.78699169921875,-0.006438508614897727,0.006088991924328729,-0.00960479975924827
1783174128018060800,4.797060791015625,-0.007335165193676948,0.001508431801572442,-0.013971041277889161
1783174128028128500,4.80712841796875,-0.01317220078408718,-0.0003866429637186229,-0.006558883591555058
1783174128038197800,4.81719775390625,-0.042049920222163195,-0.002804399029398337,-0.006465606684377416
1783174128048265700,4.827265625,-0.03412146531045437,-0.010024842669069766,-0.0007895064098760485
1783174128058333700,4.837333740234375,-0.012423428243398666,-0.006028375177737325,-0.015243143572937696
1783174128068402200,4.847402099609375,-0.012723287972807883,-0.0006098846598062664,-0.02159464062466286
1783174128078470000,4.857469970703125,-0.017810381978750227,0.006333596068853512,-0.02801643556677736
1783174128088539100,4.8675390625,-0.027387773141264914,0.005983056464977562,-0.006032046705856919
1783174128098607000,4.877607177734375,-0.023497195443511008,-0.0006759995654225349,-0.0019184830403421074
1783174128108676000,4.887676025390625,-0.027837854996323585,-0.0018766623257659375,-0.01442425580495037
1783174128118744000,4.897744140625,-0.014071779972314834,-0.009320923050260171,0.001840988224186003
1783174128128812000,4.90781201171875,-0.024698387926816938,0.004169933495251462,-0.024782979204040018
1783174128138881300,4.91788134765625,-0.009584989947080612,-0.004566851257812232,-0.000579617385705933
1783174128148949200,4.92794921875,-0.01781505815386772,0.001083694450324401,-0.012564645078685134
1783174128159018000,4.93801806640625,-0.025894904235005376,-0.007433392270607873,0.0026639311127830295
1783174128169086200,4.948086181640625,-0.005845218896865845,-0.010473024827986954,0.001550517377629876
1783174128179155200,4.9581552734375,-0.018864859467744827,0.004597474724939093,-0.007534267962351441
1783174128189223200,4.96822314453125,-0.01018763201534748,-0.002896178099233657,-0.0033591559684835372
1783174128199291000,4.978290771484375,-0.014975450813770294,-0.012657903719553724,0.007186924962559714
1783174128209360100,4.988360107421875,-0.02844634228348732,-0.008867808987898752,-0.0052476457293611015
1783174128219428000,4.998427978515625,-0.02440554246008396,-0.019266736533213407,-0.011029453134350478
1783174128229497000,5.0084970703125,-0.011687515184283256,0.0016949947490822522,-0.022456554683623835
1783174128239565000,5.01856494140625,-0.00959200420975685,-0.00009547799741849302,-0.004277905648062005
1783174128249634000,5.028634033203125,-0.009290975436568259,0.007569686335604638,-0.004261813029786571
1783174128259702300,5.038702392578125,-0.022907412856817244,-0.007994122292753309,-0.016696867778897284
1783174128269770200,5.048770263671875,-0.012583002719283103,-0.004980026035429909,-0.005295092467125505
1783174128279839000,5.0588388671875,-0.02485387074947357,-0.0034308603646699336,-0.02391874532382935
1783174128289907200,5.0689072265625,-0.025900749453902243,-0.009614937560772523,-0.0008000369370449334
1783174128299976200,5.07897607421875,-0.010037994411587715,0.0035833566457964478,0.003934179377462715
1783174128310044200,5.089044189453125,-0.02440729602575302,0.0017840247394051401,0.004841713543282822
1783174128320113200,5.099113037109375,-0.010640636479854583,0.007227183907711878,-0.009304455972649157
1783174128330181000,5.10918115234375,-0.007049918511509895,-0.009604224370513111,-0.01160987423765473
1783174128340249000,5.1192490234375,0.0014782558590173721,-0.02115528109301813,-0.002721378654753789
1783174128350318000,5.129318115234375,-0.019769699352979658,-0.025605337570747358,0.004157759000267833
1783174128360386000,5.139385986328125,-0.020516718327999114,-0.00041068142643198367,0.009686778954276814
1783174128370455000,5.149455078125,-0.012884031492471694,-0.004730389522761106,-0.01192500460143201
1783174128380523300,5.159523193359375,-0.014826982253789901,-0.022328233862528576,0.0074075180438347155
1783174128390592000,5.169592041015625,-0.007045242336392402,-0.011036650060117245,0.0027918409419246015
1783174128400660000,5.179659912109375,-0.022905074769258498,-0.009292363676056264,0.0033261396148707716
1783174128410728200,5.189728271484375,-0.01841419309079647,-0.0175504432677757,0.014839065417228266
1783174128420797200,5.199797119140625,-0.016315759506821632,-0.011497518170671538,-0.008852510954067111
1783174128430865200,5.209865234375,-0.016465981632471084,0.0020839210014324634,-0.009734892412321642
1783174128440934100,5.21993408203125,-0.01541910292804241,0.0037167007018811997,-0.006552901375340298
1783174128451002000,5.230002197265625,-0.01856149260699749,-0.011732368106162175,-0.014484927350468933
1783174128461071000,5.240071044921875,-0.015568740531802176,-0.006575405468093231,-0.0014361337503418325
1783174128471139000,5.25013916015625,-0.022301848179101944,-0.007902306690299883,0.003625414822390303
1783174128481208000,5.2602080078125,-0.029634675285220145,-0.013388382551725954,-0.0031658253534696994
1783174128491276000,5.270276123046875,-0.02244973221719265,-0.012147132052667438,-0.0071937656952999526
1783174128501344300,5.28034423828125,-0.004790741407871246,-0.03129341141083278,-0.002086377820000052
1783174128511413000,5.2904130859375,-0.01002864206135273,-0.015209542697435244,-0.007380639170063659
1783174128521481000,5.30048095703125,-0.028133623072504995,-0.010988947594026103,0.003933594855573028
1783174128531550200,5.31055029296875,-0.006138064363598823,-0.015796457473607733,-0.000023764468077570198
1783174128541618200,5.3206181640625,-0.000751110628247261,-0.008882933491794393,-0.004809820567676797
1783174128551687000,5.33068701171875,-0.006886836904287338,-0.015884555882168933,-0.003046811216836795
1783174128561755100,5.340755126953125,-0.014070026406645774,-0.005686941328924149,-0.006104070762451738
1783174128571823000,5.350822998046875,-0.004640519282221794,-0.01892838055747561,-0.005484294896293431
1783174128581892000,5.36089208984375,-0.008232406294345854,0.0010679306256119161,-0.005952478663623332
1783174128591960000,5.3709599609375,-0.024842764833569526,0.014431498396489769,-0.007779986351728439
1783174128602029000,5.381029052734375,-0.023645079481601713,-0.015242312455875798,0.004403733117971569
1783174128612097000,5.391096923828125,-0.014066519275307655,-0.014718863970506936,0.009869158917013555
1783174128622166300,5.401166259765625,-0.01571194839477539,-0.011258302587317302,-0.003000113397743553
1783174128632234000,5.41123388671875,-0.005085340440273285,0.003024398455629125,-0.00027251506475731727
1783174128642303000,5.421302978515625,-0.02049859814941883,-0.00735269171721302,-0.008372992941970005
1783174128652371200,5.43137109375,-0.023941432079672812,0.009485922619933262,-0.010151857449067755
1783174128662439200,5.441439208984375,-0.006434416961669922,0.014701620574761182,-0.013085216620378195
1783174128672508000,5.4515078125,-0.002992752075195312,-0.0000662336366251111,-0.009551096810633316
1783174128682576100,5.461576171875,-0.018704700469970702,-0.02605368412644602,-0.007293435810646042
1783174128692645000,5.47164501953125,-0.01286766487956047,-0.010495903380075468,0.0011338354686740784
1783174128702713000,5.481713134765625,-0.006430325308442115,0.001901550171850249,-0.010805078927101567
1783174128712782000,5.491781982421875,-0.0185480486035347,-0.014125135861057788,-0.000567945214221254
1783174128722850000,5.50185009765625,-0.01615501598715782,-0.020304317686334252,-0.006057354677049443
1783174128732919300,5.511919189453125,-0.017801029628515243,-0.0020838022704236206,0.013055862661730496
1783174128742987300,5.5219873046875,-0.01196399403810501,0.0024373832147568464,0.010911078318534419
1783174128753055000,5.532054931640625,-0.006577624824643135,-0.009991588853439315,-0.0011497545570135115
1783174128763124000,5.5421240234375,-0.008672551277279854,-0.008184804292954505,-0.0007289170627482235
1783174128773192200,5.552192138671875,-0.0077729720890522,0.011400533202756196,-0.002368327433383092
1783174128783261200,5.56226123046875,-0.011363690057396889,-0.009975313572073355,-0.0019468871509190648
1783174128793329000,5.572328857421875,-0.018095044139027596,0.00038777547487989065,-0.003302009820612147
1783174128803398100,5.582398193359375,-0.018393734824657438,0.0030986875345464793,0.0014489201666787266
1783174128813466000,5.592466064453125,-0.011061492240428924,0.0010722688740119337,-0.0017690463659819214
1783174128823535000,5.60253515625,-0.02093698956668377,0.006233825488807633,-0.012489534015860409
1783174128833603000,5.61260302734375,0.0034556934118270873,-0.006950796385435387,-0.005796593982167542
1783174128843671000,5.622671142578125,-0.007914426386356354,-0.013001931384252383,-0.005600852214358747
1783174128853740300,5.632740234375,-0.02512391986250877,-0.0085466233426705,-0.015900173576408997
1783174128863808300,5.642808349609375,-0.016890344524383545,-0.004788887377502396,-0.009865176861640065
1783174128873877000,5.652876953125,-0.030957448321580885,-0.005237297865282744,-0.004975569056021049
1783174128883945000,5.662945068359375,-0.007164484801888466,0.010104136716667562,0.007023432363383471
1783174128894014200,5.67301416015625,-0.012552023059129714,-0.0022352299724705516,-0.0074071070518810294
1783174128904082200,5.683082275390625,-0.01464578046798706,0.0009211608323734254,-0.0026615747589152305
1783174128914151200,5.693151123046875,-0.023028993409872054,-0.0015469006484374404,-0.004723311328003183
1783174128924219100,5.70321923828125,-0.024078210201859473,-0.015020148472022264,0.0003611705957446247
1783174128934287000,5.713287109375,-0.016897358787059783,0.00146987162316218,-0.006093658966291695
1783174128944356000,5.723356201171875,-0.015401567271351814,-0.0027725791190285234,-0.009692560241091996
1783174128954424000,5.733424072265625,-0.005076572611927986,-0.020915417055692522,-0.008957834492065012
1783174128964493000,5.7434931640625,-0.010614332994818686,-0.0014439791300799698,-0.02502185686067678
1783174128974561300,5.753561279296875,-0.015255436798930168,-0.002246317622065544,-0.018022399027924983
1783174128984630000,5.763630126953125,-0.004631166931986809,-0.007291362584568559,-0.015751120494538917
1783174128994698000,5.773697998046875,-0.024082886376976965,-0.0031971520734950898,0.001117669785162434
1783174129004767200,5.783767333984375,-0.01585223364830017,-0.008696671938383952,-0.008624319088226183
1783174129014835200,5.793835205078125,-0.01899403880536556,-0.01547349999640137,-0.012321858431911095
1783174129024903200,5.803903076171875,-0.017947744622826577,-0.01745625304514542,-0.010357335159601643
1783174129034972200,5.81397216796875,-0.025279402685165403,-0.011719563423516228,-0.008107428207807242
1783174129045040000,5.8240400390625,-0.030516718816757202,0.002686362140299752,-0.01642081818333827
1783174129055109000,5.834109130859375,-0.008519991064071655,0.0025017628210131076,-0.010824916138732805
1783174129065177000,5.844177001953125,-0.014204466441273688,-0.0009544511806219816,0.010736041412036865
1783174129075246000,5.85424609375,-0.014801847812533377,-0.019751560908090323,-0.00961629840079695
1783174129085314000,5.86431396484375,-0.017641455152630804,-0.005224602780491114,-0.00785017464426346
1783174129095383000,5.874383056640625,-0.017788754668831824,0.0005952990120276808,-0.014326339255273341
1783174129105451000,5.884450927734375,-0.01404839909672737,-0.0092255911833141,-0.007658104404574259
1783174129115520000,5.89452001953125,-0.012401216411590575,-0.021472101090382785,-0.01042773351469077
1783174129125588000,5.904587890625,-0.021081366473436353,-0.00895012610964477,0.01477998304059729
1783174129135656200,5.91465625,-0.016592238360643385,0.0012786233673803507,0.011211065912107005
1783174129145725000,5.924724853515625,-0.014794249027967452,0.0012316606868058443,0.0012698738053441047
1783174129155793000,5.93479296875,-0.01823474487066269,0.007073774311132729,0.004162709170021117
1783174129165862100,5.944862060546875,-0.01269815353155136,-0.011866050088964401,-0.011200416653929278
1783174129175930000,5.95493017578125,-0.005513210463523864,0.0007767382598482072,0.0027609617464710023
1783174129185999000,5.9649990234375,-0.01314297468960285,-0.003659536287700757,-0.010327250548591837
1783174129196067000,5.975067138671875,-0.012243395501375197,-0.00048578335610218343,-0.035438338328991084
1783174129206136000,5.985135986328125,-0.018076339438557625,0.0005714066797867417,-0.0172628584980499
1783174129216204300,5.995204345703125,-0.011192425143718718,-0.011543658867338671,0.016057263834262266
1783174129226273000,6.00527294921875,-0.0053583121627569195,-0.02370588802443817,-0.009425415471196174
1783174129236341000,6.015341064453125,-0.0225695592045784,0.0005848506832495332,-0.009170764856692402
1783174129246409000,6.025408935546875,-0.022570143726468084,-0.01289751202855259,-0.0021026622345205396
1783174129256478000,6.03547802734375,-0.022867665368318555,-0.012920911170449106,-0.00448306369818747
1783174129266546000,6.0455458984375,-0.018529343903064727,-0.005550747728627175,0.012714812405407429
1783174129276615200,6.055615234375,-0.004314356067776679,-0.012634851637529209,-0.0130381534751039
1783174129286683100,6.06568310546875,-0.0034171149671077725,-0.01461014289902523,-0.008822398943593724
1783174129296751900,6.075751953125,-0.004613046753406525,-0.017792252667015417,-0.006567541822046041
1783174129306820000,6.085820068359375,-0.030199323430657385,-0.006785102696018293,0.0026951482349541036
1783174129316889000,6.09588916015625,-0.013738017973303793,-0.012042502634413539,0.0009686167032923549
1783174129326957000,6.10595703125,-0.004162964898347854,-0.011219660210516303,0.0003906158859375864
1783174129337026000,6.116026123046875,-0.016133973199129105,0.0007742631749715655,0.010442702754959463
1783174129347094000,6.126093994140625,-0.0243646259278059,-0.006778362427977845,-0.0007945022454019635
1783174129357163000,6.1361630859375,-0.02840484122931957,0.0041305056671611965,-0.003554642007965594
1783174129367231200,6.146231201171875,-0.024964345386624336,-0.011777951680403203,-0.010548282021284102
1783174129377299000,6.156298828125,-0.021970424267649648,0.011773860027175396,-0.02119651728570461
1783174129387368000,6.166367919921875,-0.01822889965176582,-0.0002491981212515384,-0.027432196804881095
1783174129397436200,6.176436279296875,-0.015088263538479803,0.005240759330848232,-0.008544604915520176
1783174129407505200,6.186505126953125,-0.009849193841218948,-0.012086798433866352,-0.0029434513070620595
1783174129417572900,6.19657275390625,-0.007902151426672934,0.004394271169882267,-0.02460332092135213
1783174129427642000,6.20664208984375,-0.02166939549446106,-0.006575469400174915,-0.00754573920443654
1783174129437710000,6.2167099609375,-0.011194178709387778,-0.007206040654983371,-0.013002652903459965
1783174129447778800,6.22677880859375,-0.010744096854329109,-0.027410103704081847,-0.012758286220952868
1783174129457847000,6.236846923828125,0.0021235680252313614,-0.010665907918429002,-0.009714278882555664
1783174129467916000,6.246916015625,-0.019873159727454185,-0.00397050193301402,-0.007993957895971834
1783174129477984000,6.25698388671875,-0.009397358420491218,-0.01411756447595544,0.00571233149850741
1783174129488053000,6.267052978515625,-0.02570785723030567,-0.00893122047977522,0.0023956446985714135
1783174129498121000,6.277120849609375,-0.026605682852864264,-0.0044089572823606425,0.005737931730644777
1783174129508189000,6.28718896484375,-0.02735211730599403,-0.0010302837626542894,-0.015986965943872927
1783174129518258200,6.297258056640625,-0.020619594180583952,-0.012528523452533408,-0.009319233416672795
1783174129528326100,6.307326171875,-0.025109891337156295,0.006950723320199176,-0.008568150187889114
1783174129538395100,6.31739501953125,-0.022269114953279493,-0.003653599737258628,-0.005847264723479747
1783174129548463000,6.327463134765625,-0.00895545987188816,-0.0038723753207828846,-0.007399563066242262
1783174129558532000,6.337531982421875,-0.012098434072732926,-0.002578426520107314,-0.01023313339119777
1783174129568600000,6.34760009765625,-0.0053664954692125314,-0.005048725623777136,-0.010459279430424793
1783174129578669000,6.3576689453125,-0.01674070692062378,0.0004249839464202523,0.003816535214008763
1783174129588737000,6.367737060546875,-0.026018822875618932,0.003941485901083797,-0.009693765817489474
1783174129598806000,6.377805908203125,-0.01973345899581909,-0.0005099588161334395,-0.01364076814390719
1783174129608874000,6.3878740234375,-0.01120411558151245,-0.019822616850305348,-0.013206504912488162
1783174129618943000,6.39794287109375,-0.006864040550589561,-0.023875792098091913,-0.0005499437666498124
1783174129629011200,6.40801123046875,-0.010007599273324012,0.012032173036644235,-0.004506435440620407
1783174129639080000,6.418079833984375,-0.010009937360882758,-0.005787369496095925,-0.012002572482824325
1783174129649148000,6.42814794921875,-0.006567103430628776,-0.01942081285007298,-0.0004597995314747095
1783174129659216100,6.438216064453125,-0.0046223991036415096,-0.019551901016989722,-0.005033637652499601
1783174129669285000,6.44828515625,-0.009413140511512756,0.009829292697506025,-0.001349259184487164
1783174129679353000,6.45835302734375,-0.006121113228797912,0.006372156247263774,-0.01425121905929409
1783174129689422000,6.468422119140625,-0.012404723542928695,-0.0003658833034802228,-0.01720889068795368
1783174129699490000,6.478489990234375,-0.015396306574344635,-0.004401102769467979,0.00048342700223438437
1783174129709559000,6.48855908203125,-0.020332009410858155,-0.003350269409129396,-0.014966482056025415
1783174129719627300,6.498627197265625,-0.02078092222213745,0.00022953443955630063,-0.011236702676862477
1783174129729696000,6.508696044921875,-0.017787001103162763,-0.01195866027586162,0.004016953156935051
1783174129739764000,6.518763916015625,-0.025718963146209715,-0.0018930654712952673,-0.005757147887768223
1783174129749833200,6.528833251953125,-0.004470423412322998,0.0029667408511042594,-0.01062391367391683
1783174129759901000,6.53890087890625,-0.01703998212814331,0.00006351195657625794,-0.007982230925559997
1783174129769970000,6.548969970703125,-0.016142741027474403,0.006860095027834177,0.0009022004035767168
1783174129780038100,6.5590380859375,-0.014346505260467528,-0.0029280710748396813,0.015447644035937264
1783174129790107100,6.569107177734375,-0.012699322575330733,-0.0035285577186383306,0.00503521768823266
1783174129800174800,6.5791748046875,-0.012698738053441046,-0.013966693896334618,-0.009475300761219113
1783174129810244000,6.589244140625,-0.012548515927791595,0.00331657720208168,0.0143290974679403
1783174129820312000,6.59931201171875,-0.007761866173148155,-0.014711192120704798,-0.00012144355573691427
1783174129830380000,6.609380126953125,-0.014343582651019095,0.0023868403376080096,-0.009653716934891417
1783174129840449000,6.619448974609375,-0.017037644040584565,-0.005149747445993125,-0.005624297022027895
1783174129850517000,6.62951708984375,-0.011952303600311279,-0.0020826880255714057,-0.007912663687532767
1783174129860586200,6.639586181640625,-0.028862521868944165,-0.002272191848838702,-0.009213416688330471
1783174129870654200,6.649654296875,-0.021081950995326042,-0.004331115406332537,-0.002114991993131116
1783174129880723000,6.659722900390625,-0.006416881304979324,0.0024038462713360785,-0.012197090407926589
1783174129890791000,6.669791015625,-0.006117606097459793,0.0015740991826169192,-0.010910411598253995
1783174129900860200,6.679860107421875,-0.017340426379442213,-0.009983770873164757,-0.013319408968742936
1783174129910928100,6.68992822265625,-0.018539280775189397,0.01772527924487367,0.006724842142453417
1783174129920997000,6.6999970703125,-0.02183013901412487,0.00190918548903428,0.004115591225819662
1783174129931065000,6.710065185546875,-0.015394553008675574,0.00043185207862406964,-0.00613041078010574
1783174129941134000,6.720134033203125,-0.004770867663621902,-0.014820132387895136,-0.01077772512929514
1783174129951202000,6.7302021484375,-0.010907178461551665,-0.0061239993056282395,-0.000594166500866413
1783174129961271000,6.74027099609375,-0.02273030272424221,-0.0008301672138273715,-0.00135189866614528
1783174129971339000,6.750339111328125,-0.018841478592157363,-0.005503319257171824,-0.00589724134504795
1783174129981408000,6.760407958984375,-0.010164251139760017,-0.005237644925154745,-0.009698414593143388
1783174129991476000,6.77047607421875,-0.01959142017662525,-0.011497856097389013,-0.0069517371003516015
1783174130001545000,6.780544921875,-0.009864391410350799,-0.021000410191714763,-0.006506705879746004
1783174130011613200,6.79061328125,-0.019741057780385016,-0.01052805208400823,-0.009121098762378096
1783174130021681200,6.80068115234375,-0.021835984233021737,-0.009893142580799758,0.002866933738440275
1783174130031750000,6.81075,-0.0022317045748233796,-0.008927996476227417,-0.011813050393247976
1783174130041818000,6.820818115234375,-0.021984452793002127,-0.0019919044695794583,-0.01158077600733377
1783174130051887000,6.83088720703125,-0.02123743381798267,-0.010185065598925574,-0.007274411449767649
1783174130061955000,6.840955078125,-0.020340192717313764,-0.0041457763015292585,-0.012240052766818553
1783174130072024000,6.851024169921875,-0.014203297397494315,0.0001112600884400308,-0.0015477043660357594
1783174130082092000,6.861092041015625,-0.014354688566923141,-0.0036408498535398393,-0.005049081816803663
1783174130092161000,6.8711611328125,-0.02303425410687923,-0.005706522812228649,-0.006779705001693219
1783174130102229000,6.88122900390625,-0.01480301685631275,-0.015077084557339549,0.0035314529286231845
1783174130112298000,6.891298095703125,-0.017197218516469,-0.02046609325245954,-0.009382316114986316
1783174130122366000,6.901365966796875,-0.008818097227811813,0.0015210720874369143,-0.00022034648610278962
1783174130132435200,6.911435302734375,-0.02423077041506767,-0.004769826484005898,0.0038059590210672467
1783174130142503000,6.9215029296875,-0.008669044145941733,-0.011272303713206202,-0.008761225074576214
1783174130152572200,6.931572265625,-0.024831074395775792,-0.0074922828509937965,-0.011183794312691316
1783174130162640100,6.94164013671875,-0.02453238371014595,-0.01840687743402086,0.006541895924136042
1783174130172708900,6.951708984375,-0.013459201031923293,-0.0002738667716272175,-0.02039747586250305
1783174130182777000,6.961777099609375,-0.010763970598578452,-0.005658217557938769,-0.01303376956093125
1783174130192846000,6.97184619140625,-0.01569967343509197,-0.003638749227998778,0.0004267923110164702
1783174130202914000,6.9819140625,-0.01824117461144924,-0.010159026975370944,-0.0132925026955083
1783174130212983000,6.991983154296875,-0.004473346021771431,-0.002116599428327754,-0.004623102356540039
1783174130223051000,7.002051025390625,-0.0037245734810829162,-0.009809766013128683,-0.0018775208422914147
1783174130233120000,7.0121201171875,-0.019886603730916975,-0.0017488620944786815,-0.003484837307920679
1783174130243188200,7.022188232421875,-0.02317980005741119,0.0032206699464004487,-0.005433204029873013
1783174130253256200,7.032256103515625,-0.009413725033402442,0.0008027403507847339,-0.004507339622918516
1783174130263325000,7.042324951171875,-0.018692425510287283,0.0006863656958099454,0.005064306785399094
1783174130273393200,7.05239306640625,-0.02542377959191799,0.00022504092752933502,-0.0062044075980782504
1783174130283462100,7.062462158203125,-0.010460019215941429,0.0013135668165981768,-0.015773588054673746
1783174130293530000,7.072530029296875,-0.009561609071493149,-0.004252570277405903,-0.003208440652489662
1783174130303599000,7.08259912109375,0.0019610709398984907,-0.0035323662440758198,-0.003720792355109006
1783174130313667000,7.0926669921875,-0.0288654444783926,0.006719206986110657,-0.006837536136154085
1783174130323736000,7.102736083984375,-0.015399813705682754,0.012728493870887904,0.006190808330988511
1783174130333804000,7.112803955078125,-0.01031271969974041,-0.005722770694131032,-0.005351553628407418
1783174130343873000,7.122873046875,-0.007768880435824394,-0.00894945025620982,-0.015345124376378952
1783174130353941000,7.13294091796875,-0.02841886975467205,-0.000875549858668819,0.0006479059820994734
1783174130364010000,7.143010009765625,-0.010765139642357825,-0.00714426399776712,0.008741168667236343
1783174130374078000,7.153077880859375,-0.01106383032798767,-0.014091662849718705,-0.01248444684878923
1783174130384147200,7.163147216796875,-0.00866962866783142,-0.004797956599947065,-0.022635126120923086
1783174130394215200,7.173215087890625,-0.011211714366078375,-0.00037206644909456373,0.0005353763851802795
1783174130404284000,7.183283935546875,-0.02811959454715252,-0.014086475217947736,-0.0005728862508200109
1783174130414352000,7.193351806640625,-0.007170330020785332,-0.00790701939803548,-0.004554786360682919
1783174130424421000,7.203421142578125,-0.01539864466190338,0.0007066504320129752,0.003137549107056111
1783174130434489000,7.213489013671875,-0.02317687744796276,0.001621098395809531,-0.008992942338064313
1783174130444558000,7.22355810546875,-0.005966799449920654,0.005689599076891318,0.0024611476828344165
1783174130454626000,7.2336259765625,-0.013597148197889328,0.000921955416817218,-0.0049475759373977775
1783174130464695000,7.243695068359375,-0.02511749012172222,0.005353508123476058,-0.006197557732183486
1783174130474763300,7.25376318359375,-0.020330255845189094,-0.0021518990705721077,-0.0017844448645133524
1783174130484832000,7.26383203125,-0.012100187638401984,-0.004165257320133969,-0.012373579485993831
1783174130494900000,7.27389990234375,-0.022272622084617614,-0.0042108865601476276,-0.002597715742466971
1783174130504969200,7.28396923828125,-0.01314297468960285,-0.00470408603772521,0.005904118610406294
1783174130515037200,7.294037109375,-0.012993337085843085,-0.0068226399611216034,-0.0013400255652610213
1783174130525106000,7.30410595703125,-0.029152444726228712,0.0006219678232446313,-0.004078245756961405
1783174130535174100,7.314174072265625,-0.017630933758616445,-0.004207415961427614,-0.0010566237803082913
1783174130545243100,7.3242431640625,-0.010148469048738479,-0.0033904552890453485,-0.008440477820765227
1783174130555310800,7.334310791015625,-0.008951368218660355,-0.003990220413636416,0.008933321105316281
1783174130565380000,7.344380126953125,-0.027206571355462072,0.008856493009440601,-0.0005505191553849726
1783174130575448000,7.354447998046875,-0.02151858884692192,-0.00848118429048918,-0.02353630361119285
1783174130585517000,7.36451708984375,0.0012269114464521407,-0.006402624450763687,-0.015688750182278454
1783174130595585000,7.3745849609375,-0.010143792873620987,0.0036989093168638644,-0.0040312465437687935
1783174130605654000,7.384654052734375,-0.02001929019987583,-0.0038926783232949673,-0.018249805442476643
1783174130615722000,7.394721923828125,-0.014482114338874816,-0.00144057246344164,-0.004775872632302344
1783174130625791000,7.404791015625,-0.012387772408127783,-0.0034709914456587283,-0.003936599663412198
1783174130635859000,7.41485888671875,-0.008648585879802703,-0.01729445921271108,0.004068783808872103
1783174130645928200,7.42492822265625,-0.012238134804368018,-0.01583583050277084,-0.016042011466203255
1783174130655996200,7.43499609375,-0.031844168028235434,-0.009655132573843001,-0.008961761748511344
1783174130666064100,7.445064208984375,-0.013587211325764655,0.009475666087400168,0.005894017341500148
1783174130676133000,7.455133056640625,-0.011643676042556762,-0.011213979388400911,0.0038679366076830772
1783174130686201000,7.465201171875,-0.018230068695545196,-0.012017651320947334,-0.020658903277665376
1783174130696270000,7.47527001953125,-0.012841945916414261,0.012568983327085151,-0.008719669221481308
1783174130706338000,7.485338134765625,-0.010295768564939498,-0.00669505892554298,-0.0012789338946342468
1783174130716407000,7.495406982421875,-0.012687632137537002,-0.0021776636994909494,-0.0002500292383134365
1783174130726475000,7.50547509765625,-0.020468203011155126,-0.006313457463122904,0.0009531268732156604
1783174130736544300,7.515544189453125,-0.021964579048752784,0.004394974422780797,-0.0002923614095430821
1783174130746612000,7.525612060546875,-0.013438158243894577,-0.0053528048705775285,0.00008724902519024907
1783174130756681000,7.535680908203125,-0.02884966238737106,-0.006007725115353241,0.011576912682969122
1783174130766749200,7.545749267578125,-0.023162848922610283,0.01379607743662782,0.00422022064407356
1783174130776818000,7.55581787109375,-0.018076339438557625,-0.005483244583522901,-0.017828346893703564
1783174130786886000,7.565885986328125,-0.03169277685880661,-0.013725679081538692,0.003660148209054023
1783174130796955100,7.575955078125,-0.021967501658201216,-0.005202454880764707,0.011795523869711905
1783174130807023000,7.586023193359375,-0.014336568388342857,-0.007066951844701543,-0.00019494718336500227
1783174130817091800,7.596091796875,-0.023614099821448326,-0.0028198614600114524,-0.01223482860242948
1783174130827160000,7.60616015625,-0.02331248652637005,-0.0012608411155175417,0.004420629453845322
1783174130837229000,7.61622900390625,-0.014034955093264578,-0.00776338227679953,0.0002495908468961716
1783174130847297000,7.626297119140625,-0.018522914162278175,0.005041209037601947,-0.005452739847404882
1783174130857366000,7.636365966796875,-0.018072832307219504,0.02746726811826229,-0.004959092845255509
1783174130867434000,7.64643408203125,-0.013583704194426536,0.009594022636907175,0.007053800102183595
1783174130877503200,7.656503173828125,-0.014184592697024344,0.00578054702966474,0.006899796850560232
1783174130887571200,7.6665712890625,-0.01448503694832325,0.004381987077044323,0.01422624901481904
1783174130897640000,7.676639892578125,-0.013138298514485358,-0.000803909394564107,0.003004104586271569
1783174130907708200,7.686708251953125,-0.01702770716845989,0.011079758549481629,0.00985484726387076
1783174130917777200,7.696777099609375,-0.01822246991097927,-0.007987811282975599,-0.0013361439745873211
1783174130927845000,7.70684521484375,-0.004156535157561302,-0.009817063403595238,0.009835210981639102
1783174130937914000,7.7169140625,-0.014030863440036774,-0.007081811487115919,-0.01687695531984791
1783174130947982000,7.726982177734375,-0.01911912648975849,0.0021178232710342853,-0.01719634173363447
1783174130958051000,7.737051025390625,-0.02076397108733654,0.0030657625124789773,-0.008420266149798407
1783174130968119000,7.747119140625,-0.017620412364602087,-0.0007965024062432348,-0.0018967095999512821
1783174130978188000,7.75718798828125,-0.028245266753435132,-0.012020327335223555,-0.01383176067136228
1783174130988256000,7.767256103515625,-0.030343115815520284,0.0060671362855471665,-0.005276113772019744
1783174130998325000,7.777324951171875,-0.01687573147714138,0.00270612628669478,-0.016735583220934495
1783174131008393000,7.78739306640625,-0.02181318787932396,0.008376728402171284,-0.00542397041064687
1783174131018462000,7.7974619140625,-0.020015783068537712,0.00035129765570163723,-0.015116137926094233
1783174131028530200,7.8075302734375,-0.010437807384133338,-0.00801182234622538,-0.019559536334173754
1783174131038599000,7.817598876953125,-0.007443886265158653,0.005366678132303059,-0.004355555727845057
1783174131048667000,7.8276669921875,-0.024204466930031775,0.0003500829461496323,-0.025260241326969114
1783174131058736000,7.837736083984375,-0.013580781584978103,-0.01475814566812478,-0.0229712353406474
1783174131068804400,7.847804443359375,-0.011037526842951773,-0.005172890859562903,0.010591353978030384
1783174131078873000,7.857873046875,-0.015978490376472473,0.015397722213296218,0.010705207882355898
1783174131088941000,7.867941162109375,-0.022563713985681532,-0.002888277920568362,-0.010309733158210292
1783174131099010300,7.87801025390625,-0.0008680150061845779,0.002714209128450602,-0.012108772803656756
1783174131109078300,7.888078369140625,-0.017328735941648483,0.0115478966510389,-0.027363058825116603
1783174131119147300,7.898147216796875,-0.00625496874153614,-0.005060123800626024,-0.01636709696841426
1783174131129215200,7.90821533203125,-0.02391279050707817,0.009776411732798442,0.013309965286962688
1783174131139284200,7.9182841796875,-0.014636428117752074,0.0074753591156564644,0.002843068805662915
1783174131149352200,7.928352294921875,-0.015981997507810593,-0.005741219666274264,0.02139255131445825
1783174131159421200,7.938421142578125,-0.017628011149168014,-0.015806796204531563,0.02104276062925346
1783174131169489200,7.9484892578125,-0.013287351596355437,-0.00005102693433873355,0.0004915737760718911
1783174131179558400,7.958558349609375,-0.00027180267870426176,0.008904789130575954,-0.010554538232134654
1783174131189626000,7.968626220703125,-0.033194413593411444,-0.009537725872406736,0.003510638469457626
1783174131199695000,7.978695068359375,-0.026612697115540502,0.007315930770244449,-0.004174098213715479
1783174131209763300,7.988763427734375,-0.012847206613421439,0.006442326273489743,0.0007788388853892683
1783174131219832000,7.99883203125,-0.01583995868861675,-0.007946027101017534,-0.01705618434427306
1783174131229900000,8.008900146484375,-0.01957739165127277,-0.0017838238100055604,-0.0131080221072305
1783174131239969300,8.01896923828125,-0.01538344709277153,-0.0069023084680549796,-0.0037889165547210723
1783174131250037200,8.029037353515625,-0.010447159734368324,-0.007575485888728872,-0.005521503367833793
1783174131260106000,8.03910595703125,-0.03020166151821613,-0.0063558444332797075,-0.006042842094507068
1783174131270174200,8.04917431640625,-0.020325579670071602,0.007833707566652446,-0.002363742589810863
1783174131280243200,8.0592431640625,-0.025263620594143867,-0.0050166134524624794,-0.003673692677216604
1783174131290311200,8.069311279296874,-0.022720365852117536,0.01170052992948331,0.002300632492033765
1783174131300380200,8.079380126953126,-0.013144728255271911,0.0020143537634052335,0.005427011751104146
1783174131310448000,8.0894482421875,-0.008504793494939803,0.006316316140489653,-0.007968165867589415
1783174131320517400,8.099517333984375,-0.029454642543196675,-0.0024691483261995014,-0.02152452539736405
1783174131330585300,8.10958544921875,-0.010897241589426994,0.0027148941150400784,-0.00864178167968057
1783174131340654000,8.119654052734376,-0.008502455407381057,-0.013880723512778057,0.0010575918946880846
1783174131350723300,8.129723388671875,-0.012842530438303947,-0.0009375457115937024,-0.003187397864460945
1783174131360791300,8.139791259765625,-0.022269699475169182,-0.012322479486418887,-0.01082863333262503
1783174131370860000,8.149860107421874,-0.006555412992835044,0.004276188615011051,-0.003655079308291897
1783174131380928300,8.15992822265625,-0.009551672199368475,0.008766832831455395,0.008749096245365217
1783174131390997200,8.169997314453125,-0.030952772146463393,0.011194562301877885,-0.01255216005644761
1783174131401065200,8.180065185546875,-0.03080605715215206,0.0056364075849298385,-0.011300543427001684
1783174131411134200,8.19013427734375,-0.018235329392552374,-0.005011261423910037,-0.006519136103056371
1783174131421202200,8.2002021484375,-0.011501052701473235,-0.002429483036091551,-0.0003907254837919026
1783174131431271200,8.210271240234375,-0.012998597782850264,-0.007674589748494326,-0.003409799310332164
1783174131441339100,8.220339111328125,-0.020779753178358076,-0.006589744520699605,0.003088942458666861
1783174131451408100,8.230408203125,-0.029459903240203856,-0.004012076052417979,-0.0015577417028602213
1783174131461476000,8.24047607421875,-0.017190788775682447,-0.0016715682077221572,-0.001981830600136891
1783174131471545300,8.25054541015625,-0.025269465813040733,-0.0051266222987324,0.003989973818464204
1783174131481613000,8.260613037109374,-0.010154898789525031,0.010365536732366308,-0.010549862057017162
1783174131491682300,8.270682373046874,-0.01823591391444206,0.0003461830891668796,0.0070360452497843645
1783174131501750300,8.280750244140625,-0.004616553884744644,-0.0080841934626922,-0.003352059507416561
1783174131511819000,8.290819091796875,-0.010900164198875427,0.008526996193593367,-0.012862276318389921
1783174131521887200,8.30088720703125,-0.01554068348109722,0.006099403720488772,0.002626695241779089
1783174131531956200,8.310956298828126,-0.032150457498431206,0.010984828541334719,0.011293264302844181
1783174131542024200,8.321024169921875,-0.012995675173401831,0.0009310794381890445,0.0017407792527228594
1783174131552093200,8.33109326171875,-0.006261398482322693,-0.0001217084172181785,-0.0018944628439377992
1783174131562161200,8.3411611328125,-0.020477555361390114,0.00047186442860402164,0.008209591674339026
1783174131572230100,8.351230224609376,-0.017636778977513312,-0.012074386476865038,-0.007590674324706196
1783174131582298400,8.36129833984375,-0.02182663188278675,-0.014086950141983107,0.008249065168201923
1783174131592368000,8.3713681640625,-0.008956628915667533,-0.01162279765130952,-0.009908066155295818
1783174131602437400,8.381437255859375,-0.007758943563699722,0.0014023410785943269,-0.008914863000018522
1783174131612505000,8.391505126953126,-0.019431845700740812,0.01147104115569964,-0.009671736648771911
1783174131622574000,8.401573974609375,-0.01314998895227909,-0.0037825690123252566,-0.00028962146318517625
1783174131632642300,8.411642333984375,-0.014198621222376823,0.0031442893750965595,-0.00317095818631351
1783174131642711000,8.4217109375,-0.008064063990116119,-0.017698519102111458,0.0028340543821454046
1783174131652779000,8.431779052734376,-0.01943769091963768,-0.007877090050652623,0.004341673332965001
1783174131662848300,8.44184814453125,-0.02781798125207424,0.008292246722802519,-0.009978546708775684
1783174131672917200,8.451917236328125,-0.029764439144730565,-0.003902870923746377,-0.022531053825095293
1783174131682985000,8.46198486328125,-0.02632394330203533,-0.016850469171721488,-0.0006621993689332157
1783174131693054200,8.47205419921875,-0.02826981667280197,-0.00423061417392455,0.0034970392023678867
1783174131703122200,8.4821220703125,-0.016599837145209313,-0.007089373739063739,0.00032379772742278874
1783174131713191200,8.492191162109375,-0.012857143485546112,0.002415198782412335,-0.003329043958010152
1783174131723259100,8.502259033203124,-0.01764554680585861,0.003895162541326135,-0.0078096417044755066
1783174131733328100,8.512328125,-0.0159989486426115,-0.0062746324232313775,-0.012204196002148091
1783174131743396400,8.522396240234375,-0.0234539408236742,-0.01140731000341475,-0.009768310624733567
1783174131753465000,8.532465087890625,-0.015183540606498718,0.0024715594789944586,-0.0035119262442458417
1783174131763533000,8.542532958984374,-0.017084405791759488,-0.00709991339938715,-0.011993284064671024
1783174131773602300,8.552602294921876,-0.04022971905767917,0.009951119845733046,-0.007366108321212232
1783174131783670300,8.562670166015625,-0.004878419691324234,-0.01352634798400104,0.004537926557427272
1783174131793739000,8.572739013671875,-0.03191606422066688,-0.012181792374094948,-0.00576026229346171
1783174131803807200,8.58280712890625,-0.02034253080487251,-0.019778302784543483,0.009252095597749576
1783174131813876200,8.592876220703126,-0.023894670328497885,-0.009018332507647574,-0.010441268849698825
1783174131823944200,8.602944091796875,0.02127367417514324,-0.004571710096020251,0.0038058494232129304
1783174131834013200,8.61301318359375,0.018609423401951788,0.007251021441025659,0.031021663531055673
1783174131844081200,8.6230810546875,-0.003688333123922348,-0.0008488536479882895,-0.006921679888805374
1783174131854150400,8.633150390625,-0.06026420682668686,0.00980313534294255,-0.053066824402194464
1783174131864218000,8.643218017578125,0.0034931028127670287,-0.008249540092237294,-0.01468371959188953
