time,seconds_elapsed,z,y,x
1783174123306059000,0.08505908203125,0.0026656838599592447,-0.001988717820495367,-0.0032065443228930235
1783174123316127700,0.095127685546875,0.0019660715479403734,-0.0012954962439835072,-0.0028571372386068106
1783174123326195700,0.10519580078125,0.00270049343816936,-0.0004908009432256222,-0.0011711411643773317
1783174123336264000,0.115263916015625,0.00341422064229846,0.005943928845226765,0.0009455392137169838
1783174123346332700,0.125332763671875,0.0003902401076629758,-0.004499335773289204,-0.000522236805409193
1783174123356400600,0.135400634765625,0.00310373492538929,0.0056108226999640465,-0.0007459423504769802
1783174123366468900,0.14546875,0.001114717568270862,-0.0018809097819030285,-0.002532924758270383
1783174123376537900,0.155537841796875,-0.00007358490256592631,0.0061615705490112305,0.0031585167162120342
1783174123386605800,0.165605712890625,0.002987224841490388,0.0024020434357225895,-0.001199853839352727
1783174123396674800,0.1756748046875,0.00211344170384109,0.0006773802451789379,-0.0028435566928237677
1783174123406742800,0.18574267578125,0.000057117664255201817,0.00031118839979171753,-0.001719168620184064
1783174123416810800,0.195810791015625,-0.0008992234361357987,0.00021345028653740883,0.0024026057217270136
1783174123426880000,0.2058798828125,-0.0021126894280314445,0.0005858223885297775,0.0005832917522639036
1783174123436947700,0.21594775390625,-0.0004364958731457591,0.0027568312361836433,-0.0008138027042150497
1783174123447015700,0.226015625,-0.0020838973578065634,-0.00013454444706439972,-0.004400546662509441
1783174123457085000,0.2360849609375,-0.0035507665015757084,-0.001898622140288353,0.00043362309224903584
1783174123467153000,0.24615283203125,-0.0014725045766681433,-0.0007045343518257141,0.0037938393652439117
1783174123477220900,0.256220947265625,-0.002216059248894453,0.0009591425769031048,-0.00039185071364045143
1783174123487289900,0.266289794921875,-0.000565451686270535,-0.0008272016420960426,-0.003918621223419905
1783174123497357800,0.27635791015625,0.0004896926693618298,-0.0005140136927366257,-0.000914309173822403
1783174123507425800,0.28642578125,0.0006361862178891897,-0.001429712399840355,0.0031562787480652332
1783174123517495000,0.2964951171875,0.00040049644303508103,0.00010027317330241203,0.0030771829187870026
1783174123527562800,0.306562744140625,-0.000059184792917221785,-0.0003909757360816002,0.00230784947052598
1783174123537630700,0.316630615234375,0.002245248295366764,0.0006918655708432198,-0.0024253870360553265
1783174123547699700,0.32669970703125,0.003097213339060545,0.0012574167922139168,0.001748798182234168
1783174123557768000,0.336767822265625,0.00010595080675557256,0.0012763254344463348,0.0015506589552387595
1783174123567836000,0.3468359375,0.001402013935148716,-0.0005804379470646381,0.001261441153474152
1783174123577904600,0.356904541015625,0.0016720585990697145,-0.0005295709706842899,0.00021162303164601326
1783174123587972900,0.366972900390625,-0.00005377997877076268,0.0005974350497126579,0.0008578110719099641
1783174123598040800,0.377040771484375,0.0018418580293655396,0.0010602925904095173,0.001627997262403369
1783174123608109800,0.38710986328125,0.00020161719294264913,-0.0003184257075190544,0.002306038048118353
1783174123618177800,0.397177734375,-0.0012628550175577402,0.0015665595419704914,-0.0022176075726747513
1783174123628245800,0.407245849609375,-0.000091636145953089,-0.0003427164629101753,0.00047442177310585976
1783174123638314800,0.417314697265625,-0.00003943819319829345,-0.002911602146923542,0.0019114635651931167
1783174123648383000,0.427383056640625,-0.0030398638918995857,0.000022891908884048462,0.000362408347427845
1783174123658451000,0.437450927734375,-0.0009578047320246696,0.0015816399827599525,-0.0007923382800072432
1783174123668519700,0.447519775390625,-0.0007139776134863496,0.0016400627791881561,0.0006554108113050461
1783174123678588000,0.457587890625,0.0023300154134631157,-0.0030167410150170326,0.00041040009818971157
1783174123688657000,0.467656982421875,-0.0002294774167239666,-0.00039194244891405106,-0.002467942191287875
1783174123698724900,0.477724853515625,-0.00035917339846491814,-0.0007405504584312439,-0.0021126766223460436
1783174123708792800,0.487792724609375,0.0003819526173174381,0.0001479494385421276,-0.0010397983714938164
1783174123718861800,0.49786181640625,-0.0003472209209576249,-0.0012510092929005623,-0.0019857531879097223
1783174123728929800,0.5079296875,0.00045541641884483397,-0.0005898019298911095,-0.0001326184719800949
1783174123738997800,0.517997802734375,-0.0007283586310222745,-0.0022092703729867935,-0.002260217908769846
1783174123749066800,0.528066650390625,0.0006642871303483844,0.0007911580614745617,-0.0034774967934936285
1783174123759134700,0.538134765625,0.0033418291714042425,0.0003634542226791382,-0.00026519177481532097
1783174123769202700,0.54820263671875,0.001754743279889226,0.0016662292182445526,-0.0016414064448326826
1783174123779272000,0.55827197265625,0.0007483346853405237,0.002946144435554743,-0.002711731242015958
1783174123789340000,0.56833984375,0.0031614939216524363,0.001679799985140562,0.0007546395063400269
1783174123799407600,0.57840771484375,0.0005705044022761285,-0.0006177090108394623,0.0013080444186925888
1783174123809476900,0.588476806640625,0.0003635079483501613,-0.0003266138955950737,0.0003636872861534357
1783174123819544800,0.598544921875,-0.0009419735870324075,-0.0002206200733780861,-0.0014555181842297316
1783174123829612800,0.60861279296875,-0.0007714032544754446,-0.00018206611275672913,-0.0018519565928727388
1783174123839681800,0.618681884765625,0.0003135685692541301,0.0002914438955485821,-0.0010743136517703533
1783174123849749800,0.628749755859375,-0.0017585281748324633,-0.0005737729370594025,0.0008057728409767151
1783174123859817700,0.638817626953125,-0.0010775579139590263,-0.0008070655167102814,-0.0029319736640900373
1783174123869887000,0.648886962890625,0.0012899229768663645,0.001314419787377119,0.00038046552799642086
1783174123879954700,0.65895458984375,-0.00038999912794679403,0.003140549175441265,0.00008272426202893257
1783174123890023700,0.669023681640625,-0.0015368154272437096,-0.00017317291349172592,0.0017106074374169111
1783174123900092000,0.679091796875,-0.0036074230447411537,-0.0011910330504179,0.001900224480777979
1783174123910160000,0.689159912109375,-0.0026616358663886786,0.0006779804825782776,0.000976906972937286
1783174123920228600,0.699228515625,0.0009291042806580663,0.0013064863160252571,-0.001420737011358142
1783174123930296800,0.709296875,-0.0018426745664328337,0.0027987114153802395,-0.0007633091881871223
1783174123940364800,0.71936474609375,0.001560046337544918,0.0030040410347282887,0.0007946400437504053
1783174123950433800,0.729433837890625,0.002190998522564769,0.0021593794226646423,0.00011425651609897614
1783174123960502000,0.739501953125,-0.00048787519335746765,0.00004376424476504326,-0.0004418115131556988
1783174123970569700,0.74956982421875,0.0019713665824383497,-0.0003918185830116272,0.0012259121285751462
1783174123980638700,0.759638671875,0.0012728194706141949,0.00027157505974173546,-0.0022127616684883833
1783174123990707000,0.76970703125,-0.0026939392555505037,-0.001529092900454998,0.002764366799965501
1783174124000775000,0.77977490234375,-0.0017045747954398394,-0.001018298789858818,-0.0008138564880937338
1783174124010843600,0.78984375,-0.0017786305397748947,-0.0003830296918749809,0.0009649223648011684
1783174124020911600,0.79991162109375,0.0013468553079292178,-0.0003662519156932831,-0.0033824217971414328
1783174124030979800,0.809979736328125,0.0022182613611221313,0.0017857435159385204,-0.0001525934785604477
1783174124041048800,0.820048828125,0.0006675026961602271,-0.0005333367735147476,-0.0011853673495352268
1783174124051116800,0.83011669921875,-0.0029047431889921427,0.0001525944098830223,-0.0007228292524814606
1783174124061186000,0.84018603515625,0.0011898669181391597,-0.0030112406238913536,0.0017411274602636695
1783174124071254300,0.850254150390625,0.0008163250749930739,0.0006253104656934738,0.0026063898112624884
1783174124081322200,0.860322265625,-0.0006934209959581494,-0.0009781792759895325,-0.0018429532647132874
1783174124091391000,0.870390869140625,-0.00032573798671364784,0.0014285151846706867,-0.0028022252954542637
1783174124101459200,0.880459228515625,0.00009211193537339568,-0.003315107896924019,0.00042286282405257225
1783174124111527200,0.890527099609375,-0.00035368133103474975,0.0001519555225968361,-0.0007279424462467432
1783174124121596200,0.90059619140625,0.00013234553625807166,-0.0015122536569833755,0.0009887312771752477
1783174124131664400,0.910664306640625,0.00027720164507627487,-0.00026552192866802216,-0.0007033881265670061
1783174124141732000,0.920732177734375,-0.0000242682290263474,-0.001311611384153366,0.0011728089302778244
1783174124151801000,0.930801025390625,0.001388165750540793,0.0008558901026844978,-0.00043216999620199203
1783174124161869300,0.940869384765625,-0.0006108029629103839,-0.0010011326521635056,-0.002198378322646022
1783174124171937300,0.950937255859375,0.0030334466136991978,0.0004631797783076763,-0.0019517166074365377
1783174124182006000,0.961006103515625,0.002278174040839076,-0.00019648484885692596,0.0013870884431526065
1783174124192074200,0.97107421875,0.0013573404867202044,0.0007120687514543533,0.0012754473136737943
1783174124202143200,0.981143310546875,0.0026465768460184336,0.0010220608673989773,0.00041418103501200676
1783174124212211200,0.991211181640625,-0.00010990235023200512,0.0012483848258852959,0.000558365834876895
1783174124222279200,1.001279052734375,0.000024054665118455887,0.000449436716735363,-0.002866459311917424
1783174124232348200,1.01134814453125,0.0017572399228811264,0.0005335924215614796,0.0018020619172602892
1783174124242416000,1.021416015625,-0.0006108430097810924,-0.0013258261606097221,0.0005559688434004784
1783174124252484000,1.031484130859375,-0.0007353390683420002,-0.0000791400671005249,-0.0011741246562451124
1783174124262553000,1.041552978515625,0.00122022011782974,-0.000910845585167408,-0.0005823702085763216
1783174124272621000,1.05162109375,-0.0018494592513889074,-0.0020119622349739075,-0.0033376256469637156
1783174124282689000,1.06168896484375,-0.00036421424010768533,-0.00030114781111478806,0.002055275486782193
1783174124292758300,1.07175830078125,-0.0012959276791661978,-0.0003768419846892357,0.0002468277234584093
1783174124302826200,1.081826171875,-0.0009209545096382499,0.0005901516415178776,-0.0013105887919664383
1783174124312894200,1.091894287109375,-0.00001308973878622055,0.0027866875752806664,0.0008267083903774619
1783174124322963200,1.101963134765625,-0.0008168317726813257,0.0022718985565006733,-0.0011110075283795595
1783174124333031200,1.11203125,-0.001237138407304883,0.0007233205251395702,-0.0026549489703029394
1783174124343100200,1.12210009765625,-0.000704239762853831,0.0009606080129742622,-0.0023446909617632627
1783174124353168100,1.132168212890625,-0.0012529310770332813,-0.00005896110087633133,-0.00048772385343909264
1783174124363236000,1.142236083984375,-0.00037621852243319154,-0.0020267702639102936,-0.0016573842149227858
1783174124373305000,1.15230517578125,0.0008419313817285001,-0.00011179689317941666,0.0017506099538877606
1783174124383373300,1.162373291015625,0.002962872851639986,-0.002009032294154167,-0.0009951090905815363
1783174124393441300,1.172441162109375,0.00003466580528765917,0.0012948103249073029,0.00035424414090812206
1783174124403510000,1.182510009765625,0.00046716316137462854,0.0016817678697407246,0.000490864273160696
1783174124413578200,1.192578125,0.0007014167495071888,-0.0019127065315842628,0.00034134858287870884
1783174124423646200,1.202646240234375,0.0008814464672468603,0.0001965165138244629,-0.002787332981824875
1783174124433715200,1.212715087890625,0.0004629237810149789,-0.0003428338095545769,-0.0012226221151649952
1783174124443783200,1.222783203125,-0.0017024923581629992,0.00027129054069519043,0.0026293739210814238
1783174124453851100,1.23285107421875,0.0012272510211914778,0.0019498812034726143,-0.0029254471883177757
1783174124463920000,1.242920166015625,-0.0005725132068619132,0.0006238929927349091,-0.004222939256578684
1783174124473988400,1.25298828125,-0.0017929000314325094,-0.0018487907946109772,0.003043125383555889
1783174124484057000,1.26305712890625,0.00001378857996314764,0.0035542300902307034,-0.004106396809220314
1783174124494125000,1.273125,-0.001953648403286934,0.0005656750872731209,0.0012243431992828846
1783174124504193000,1.283193115234375,-0.0039435625076293945,-0.0010247649624943733,-0.0012241671793162823
1783174124514262300,1.29326220703125,-0.00020850467262789607,0.001908772625029087,-0.00006259698420763016
1783174124524330200,1.303330322265625,-0.0000923908082768321,0.0009678779169917107,0.0012484771432355046
1783174124534398000,1.31339794921875,0.0000731569598428905,0.0011526965536177158,-0.0005350450519472361
1783174124544467200,1.32346728515625,0.0015759787056595087,0.0011795945465564728,-0.0003704617265611887
1783174124554535200,1.33353515625,0.0015932295937091112,0.002021203748881817,-0.0020425012335181236
1783174124564603100,1.34360302734375,0.000994550995528698,-0.0010816454887390137,-0.0006797616370022297
1783174124574672100,1.353672119140625,-0.0006717822980135679,0.0002675834111869335,0.0029511412139981985
1783174124584740000,1.363739990234375,0.0011484883725643158,-0.00037264078855514526,-0.001179421553388238
1783174124594809300,1.373809326171875,-0.00018132617697119713,0.00020374218001961708,-0.0028673375491052866
1783174124604877300,1.383877197265625,-0.000278797815553844,0.0013510319404304028,-0.0007277540862560272
1783174124614945300,1.3939453125,0.0029556485824286938,0.0007840539328753948,0.00164164905436337
1783174124625014000,1.404013916015625,-0.0005575934192165732,-0.00133475661277771,0.0024579078890383244
1783174124635082200,1.414082275390625,0.0013776029227301478,0.00031574349850416183,0.0017013222677633166
1783174124645150200,1.424150146484375,0.00021353521151468158,0.0008885893039405346,-0.0010569137521088123
1783174124655219200,1.43421923828125,0.000009482668247073889,0.0019020275212824345,-0.0015846316237002611
1783174124665287200,1.444287109375,-0.0004826695076189935,0.00033502373844385147,-0.00010125106200575829
1783174124675355100,1.454355224609375,-0.0018480318831279874,-0.0011030295863747597,-0.0017378691118210554
1783174124685424000,1.464424072265625,-0.0018509613582864404,-0.00018104258924722672,-0.00022998708300292492
1783174124695492400,1.474492431640625,-0.0006827727775089443,-0.0006375685334205627,0.00024202861823141575
1783174124705561000,1.48456103515625,-0.001746705500409007,0.0010074661113321781,0.00031979288905858994
1783174124715629000,1.494629150390625,-0.0006656883633695543,-0.0010819938033819199,-0.001436933409422636
1783174124725697300,1.504697265625,0.0010957263875752687,0.0016512083820998669,-0.0031078006140887737
1783174124735766300,1.514766357421875,-0.0003159153275191784,-0.0014665508642792702,-0.00035755266435444355
1783174124745834200,1.524834228515625,-0.001969205681234598,-0.002084936946630478,0.003826806088909507
1783174124755902200,1.534902099609375,-0.0013159323716536164,-0.00009821821004152298,0.0004027800168842077
1783174124765971200,1.54497119140625,0.0006180350901558995,-0.0002049049362540245,0.0016846121288836002
1783174124776039200,1.5550390625,-0.0006327321170829237,-0.0007107825949788094,0.004023734480142593
1783174124786107400,1.565107421875,0.0014863451942801476,0.0009353174827992916,0.0029736501164734364
1783174124796176100,1.575176025390625,-0.0005746230017393827,-0.000596330501139164,0.002371456939727068
1783174124806244000,1.585244140625,0.0003026222693733871,0.0007589519955217838,0.0015887540066614747
1783174124816313300,1.595313232421875,0.00017461634706705809,0.0014858930371701717,-0.0005361668299883604
1783174124826381300,1.60538134765625,0.00019166059792041779,0.0005924026481807232,0.0008928854949772358
1783174124836449000,1.615448974609375,0.0007052019936963916,-0.00044767744839191437,0.0014361104695126414
1783174124846518300,1.625518310546875,-0.0012431666254997253,-0.00009800493717193604,0.000029428862035274506
1783174124856586200,1.635586181640625,-0.001628370606340468,-0.0002449303865432739,0.00023095961660146713
1783174124866654200,1.645654296875,-0.0001207551104016602,0.0015228763222694397,0.001283174497075379
1783174124876723200,1.65572314453125,-0.0008639468578621745,0.0009677382186055183,-0.002638360718265176
1783174124886791200,1.665791259765625,-0.0014770065899938345,0.002925960812717676,-0.00033232965506613255
1783174124896859100,1.675859130859375,0.0001267533516511321,-0.0018619289621710777,0.0024543157778680325
1783174124906928400,1.685928466796875,-0.0017678193980827928,0.0012193485163152218,-0.0005654424894601107
1783174124916996400,1.695996337890625,-0.00007543677929788828,0.0011509261094033718,-0.0006860739085823298
1783174124927065000,1.706065185546875,-0.0004528067074716091,0.000005234032869338989,-0.0006810138002038002
1783174124937133000,1.716133056640625,-0.000584433029871434,-0.0015909718349575996,0.0010678820544853806
1783174124947201300,1.726201171875,0.0015290515730157495,0.0016346494667232037,0.00015255366452038288
1783174124957270300,1.736270263671875,0.0014213514514267445,-0.00041342247277498245,-0.0026817135512828827
1783174124967338000,1.746337890625,0.0003038890426978469,0.0025224462151527405,0.002016901271417737
1783174124977406200,1.75640625,0.002849042881280184,0.0006470736116170883,0.0034057043958455324
1783174124987475200,1.76647509765625,0.00031025154748931527,0.0011088657192885876,-0.0007592132315039635
1783174124997543200,1.776543212890625,-0.0004104452091269195,-0.0020548412576317787,-0.0010512906592339277
1783174125007611400,1.786611328125,-0.0009848889894783497,0.0008232370018959045,-0.0013586191926151514
1783174125017680100,1.79668017578125,0.00017863028915598989,0.00021487334743142128,-0.0014173048548400402
1783174125027748000,1.806748046875,-0.0005026063299737871,-0.00018540024757385254,0.0031191236339509487
1783174125037817300,1.8168173828125,0.0012191090499982238,-0.00046714115887880325,0.001035165973007679
1783174125047885000,1.826885009765625,0.0005906031001359224,0.00020876899361610413,0.0006042665336281061
1783174125057953000,1.836953125,-0.0009358848910778761,-0.0004192078486084938,0.0019562283996492624
1783174125068022000,1.84702197265625,-0.001762530067935586,0.0004867999814450741,0.0008709903340786695
1783174125078090000,1.857090087890625,0.001068541081622243,-0.0009947549551725388,-0.0030380086973309517
1783174125088158000,1.867157958984375,-0.0010635857470333576,0.0002947477623820305,-0.00013862503692507744
1783174125098227000,1.87722705078125,0.0006189228734001517,-0.002183184027671814,-0.0012966934591531754
1783174125108295000,1.887294921875,-0.00007483060471713543,0.0010344465263187885,-0.0024847297463566065
1783174125118364000,1.897364013671875,-0.0012094218982383609,-0.003984338603913784,0.0005609304644167423
1783174125128432000,1.90743212890625,0.0015645265812054276,-0.0002085082232952118,0.00012070988304913044
1783174125138500000,1.9175,-0.0007746121846139431,-0.00066424161195755,0.001809391425922513
1783174125148568800,1.92756884765625,-0.0005881908582523465,-0.00006556231528520584,-0.0005453757476061583
1783174125158637000,1.937636962890625,0.0010543783428147435,-0.0027275672182440758,0.0019639739766716957
1783174125168705000,1.947705078125,0.002022437285631895,0.00040084775537252426,0.00012532761320471764
1783174125178773800,1.957773681640625,0.0013259544502943754,0.000751191284507513,0.0007655165391042829
1783174125188841700,1.967841796875,-0.0007505122339352965,0.0002467883750796318,0.0002371452283114195
1783174125198910000,1.977909912109375,-0.0011767479591071606,0.00008846353739500046,0.0029446533881127834
1783174125208979000,1.98797900390625,0.001166301080957055,-0.0008340552449226379,-0.0021092272363603115
1783174125219047000,1.998046875,-0.0024519336875528097,0.0008436348289251328,0.0032199984416365623
1783174125229116000,2.008115966796875,-0.00045110087376087904,0.00001912051811814308,0.002374711213633418
1783174125239184000,2.018183837890625,-0.00005436543142423034,0.0011642896570265293,0.0018585342913866043
1783174125249251800,2.028251953125,-0.0026679919101297855,-0.0015555964782834053,0.0013778337743133307
1783174125259321000,2.038321044921875,-0.0007473279256373644,0.0000029853545129299164,0.0001340771559625864
1783174125269388800,2.048388916015625,-0.0002506484743207693,0.0007681115530431271,-0.000578318489715457
1783174125279456800,2.058456787109375,-0.0024386965669691563,-0.0025711599737405777,-0.00038941623643040657
1783174125289526000,2.068526123046875,-0.000695391558110714,-0.0004757847636938095,0.0007504166569560766
1783174125299594000,2.078593994140625,-0.0003266764688305557,-0.00043950602412223816,0.0008725476218387485
1783174125309662700,2.088662841796875,0.0021077189594507217,0.0009309570305049419,-0.00006994511932134628
1783174125319731000,2.09873095703125,0.00031035061692819,-0.0004492332227528095,0.0040556760504841805
1783174125329799000,2.108798828125,-0.00046143343206495047,-0.0016228887252509594,-0.0000890013761818409
1783174125339868000,2.118867919921875,0.00042112485971301794,0.0006940863095223904,-0.0005251516122370958
1783174125349936000,2.12893603515625,0.0008869117591530085,-0.001854026224464178,0.00042852642945945263
1783174125360003800,2.13900390625,-0.00002717843744903803,0.0006599985063076019,0.002254913793876767
1783174125370072800,2.14907275390625,-0.00011639425065368414,-0.00177306542173028,0.0012980400351807475
1783174125380141000,2.15914111328125,0.000813037040643394,0.0018138205632567406,-0.003269175300374627
1783174125390209000,2.169208984375,0.0014577882830053568,0.00036372942849993706,0.0013085320824757218
1783174125400277800,2.17927783203125,-0.00007588055450469255,0.001984533853828907,0.0014331891434267163
1783174125410346000,2.189345947265625,-0.001136351260356605,0.0008124765008687973,0.0012094835983589292
1783174125420415000,2.1994150390625,-0.00026672950480133295,-0.0002761129289865494,0.0011501912958920002
1783174125430483000,2.20948291015625,0.002642241306602955,-0.0008036848157644272,-0.0009547711815685034
1783174125440551200,2.21955126953125,0.001981817651540041,0.001907356083393097,0.00040957750752568245
1783174125450620000,2.229619873046875,-0.0008131698705255985,-0.0007243799045681953,-0.00007911259308457375
1783174125460688000,2.23968798828125,0.0002839007065631449,0.00265932222828269,0.0016946739051491022
1783174125470755800,2.249755859375,-0.0010506092803552747,-0.0009178356267511845,0.0003441849257797003
1783174125480824800,2.259824951171875,-0.00037093815626576543,-0.0021903524175286293,0.0006477964343503118
1783174125490892800,2.269892822265625,-0.0014338057953864336,-0.0011405348777770996,0.0002930634655058384
1783174125500962000,2.279962158203125,0.0007493128068745136,-0.0010215481743216515,0.00010238518007099628
1783174125511030000,2.290030029296875,0.000792189734056592,0.000696190632879734,-0.0006318481173366308
1783174125521098000,2.300097900390625,0.00039751530857756734,-0.001042017713189125,0.00003548199310898781
1783174125531167000,2.3101669921875,0.0009123043855652213,-0.0006484026089310646,0.0006099257152527571
1783174125541235000,2.32023486328125,-0.00004653615178540349,-0.0007922211661934853,-0.0007542481180280447
1783174125551303000,2.330302978515625,-0.0009655929752625525,-0.001946701668202877,-0.00047940993681550026
1783174125561372200,2.3403720703125,0.0018320127855986357,-0.0004730760119855404,0.00023122085258364677
1783174125571439900,2.35043994140625,0.00014809600543230772,-0.0019103842787444592,0.00012149871326982975
1783174125581508900,2.3605087890625,-0.00003290519816800952,0.0008567650802433491,0.0035836147144436836
1783174125591576800,2.370576904296875,-0.00006326520815491676,0.0006333258934319019,0.00006850855425000191
1783174125601645000,2.38064501953125,-0.0014077485539019108,-0.0022896085865795612,-0.00030239811167120934
1783174125611713800,2.3907138671875,0.0025800687726587057,-0.0011569657362997532,0.0025181558448821306
1783174125621781800,2.40078173828125,-0.0004725586040876806,-0.0012550726532936096,-0.00018722820095717907
1783174125631850000,2.41085009765625,-0.000837145431432873,0.0018895883113145828,-0.0008144024759531021
1783174125641919000,2.4209189453125,0.00014217756688594818,0.000548096839338541,0.00026743137277662754
1783174125651987000,2.430987060546875,0.0007757435669191182,-0.0017781737260520458,0.001163851353339851
1783174125662056000,2.441055908203125,0.0005862170364707708,0.0006649801507592201,-0.0007775311823934317
1783174125672124000,2.4511240234375,0.0023308538366109133,-0.00009428709745407104,0.0006637716433033347
1783174125682192000,2.46119189453125,-0.0013135294429957867,-0.0011757323518395424,-0.0021565109491348267
1783174125692260900,2.4712607421875,-0.0011795724276453257,-0.0017088968306779861,0.0011996045941486955
1783174125702328800,2.481328857421875,-0.0004420928889885545,0.003732379525899887,0.0014745296211913228
1783174125712396800,2.491396728515625,-0.0013177403016015887,-0.0016858214512467384,0.002132863039150834
1783174125722466000,2.501466064453125,-0.00039643101627007127,-0.0017744284123182297,0.0013936125906184316
1783174125732534000,2.511533935546875,0.0013125194236636162,0.0003760741092264652,0.0029294576961547136
1783174125742602800,2.521602783203125,0.0003805170417763293,0.0014062165282666683,-0.0009518328588455915
1783174125752671000,2.5316708984375,-0.0007292221416719258,-0.00038049835711717606,-0.0009787308517843485
1783174125762739000,2.541739013671875,0.00032496254425495863,-0.0008216081187129021,-0.00016511650756001472
1783174125772808000,2.551807861328125,0.003292256500571966,0.00012434646487236023,0.0007579352241009474
1783174125782876000,2.5618759765625,0.0012103618355467916,-0.0007444163784384727,-0.0013606648426502943
1783174125792943900,2.57194384765625,0.0022697672247886658,-0.000007520429790019989,-0.002616079291328788
1783174125803012900,2.582012939453125,-0.0008990292553789914,-0.0017199181020259857,0.0022856872528791428
1783174125813081000,2.5920810546875,0.0015436219982802868,0.0013248743489384651,-0.0005950538907200098
1783174125823149000,2.602149169921875,-0.00003272696631029248,0.0007122675888240337,-0.0006669596768915653
1783174125833217800,2.6122177734375,0.0012868692865595222,0.0009287828579545021,-0.0011881403625011444
1783174125843286000,2.6222861328125,0.0017183723393827677,-0.0009030168876051903,-0.0008988005574792624
1783174125853355000,2.63235498046875,0.001037401962094009,0.00191221060231328,0.0002993557136505842
1783174125863423000,2.642423095703125,0.0006981085170991719,-0.00034677982330322266,0.0006032716482877731
1783174125873491000,2.652490966796875,-0.0008728902321308851,-0.0013947337865829468,0.0016096802428364754
1783174125883560000,2.662559814453125,-0.000028156908228993416,0.0015258542262017727,0.0005744649097323418
1783174125893628000,2.6726279296875,0.0006687923450954258,0.00047257402911782265,-0.0019017420709133148
1783174125903696000,2.68269580078125,0.0006667044945061207,0.000007373280823230743,-0.00017748423852026463
1783174125913764900,2.692764892578125,-0.000144494348205626,0.0003522527404129505,-0.0011945453006774187
1783174125923832800,2.702832763671875,-0.0002636864082887769,0.001011766493320465,-0.0022951362188905478
1783174125933902000,2.712902099609375,0.0008194211986847222,0.0009273444302380085,-0.0016823431942611933
1783174125943970000,2.722969970703125,0.0000602597719989717,0.0021089930087327957,-0.0008359777275472879
1783174125954038000,2.7330380859375,-0.0008079307153820992,0.0003502410836517811,0.0004450026899576187
1783174125964107000,2.74310693359375,-0.0007524185930378735,0.00029984861612319946,-0.0017110027838498354
1783174125974175000,2.753175048828125,0.0010297687258571386,-0.00043039023876190186,-0.0009730409365147352
1783174125984243000,2.763242919921875,-0.0020911244209855795,0.000585116446018219,-0.0007675117813050747
1783174125994312000,2.77331201171875,-0.00018989364616572857,-0.0009323526173830032,-0.0017725885845720768
1783174126004380000,2.7833798828125,0.00018888566410169005,-0.0018115751445293427,0.0012574848951771855
1783174126014449000,2.793448974609375,0.0022198124788701534,-0.001169753260910511,-0.0000021902378648519516
1783174126024516900,2.803516845703125,0.0012559787137433887,0.0008749230764806271,-0.0012222153600305319
1783174126034585000,2.813585205078125,-0.0012620401103049517,0.003267773427069187,-0.001050707884132862
1783174126044653800,2.82365380859375,0.00045094318920746446,0.001443312969058752,-0.00046165473759174347
1783174126054721800,2.8337216796875,0.00014361442299559712,-0.0018707243725657463,-0.0025666174478828907
1783174126064790000,2.8437900390625,-0.0017389074200764298,-0.00040593184530735016,0.0027657714672386646
1783174126074859300,2.853859375,0.0007769809453748167,-0.0008197873830795288,-0.0013738458510488272
1783174126084927000,2.863927001953125,-0.0011254306882619858,0.0020641335286200047,-0.00032043876126408577
1783174126094996000,2.873995849609375,0.002380354329943657,0.002800497692078352,-0.0004330903757363558
1783174126105064200,2.884064208984375,-0.0018288230057805777,0.0002518016844987869,0.0004969416186213493
1783174126115132200,2.894132080078125,0.001966181444004178,0.0006102630868554115,-0.001538245938718319
1783174126125201000,2.904200927734375,-0.00027033465448766947,0.0001620110124349594,0.00040364149026572704
1783174126135269000,2.91426904296875,0.0016130527947098017,0.002409718930721283,-0.0007846609223634005
1783174126145338000,2.924338134765625,-0.0009934213012456894,0.0007302663289010525,-0.0009278096258640289
1783174126155406000,2.934406005859375,0.0007520144572481513,0.0020408080890774727,-0.0003903836477547884
1783174126165474300,2.944474365234375,-0.0018472555093467236,-0.00048597902059555054,0.0017977661918848753
1783174126175543000,2.95454296875,-0.000730592233594507,-0.0005083493888378143,0.0011618033749982715
1783174126185611000,2.964611083984375,-0.000793228333350271,-0.0005584228783845901,0.0013917902251705527
1783174126195679000,2.974678955078125,0.001155140227638185,0.0016035311855375767,-0.0019709833431988955
1783174126205748000,2.984748046875,-0.0008219407172873616,0.0011827745474874973,-0.0018547829240560532
1783174126215816000,2.99481591796875,0.0015975411515682936,-0.000627908855676651,-0.0025330903008580208
1783174126225885200,3.00488525390625,-0.0027974173426628113,0.0005036038346588612,0.001180474879220128
1783174126235953200,3.014953125,0.0021403494756668806,-0.00013076141476631165,0.001254777074791491
1783174126246021000,3.025021240234375,0.0002806867705658078,0.0012777354568243027,-0.0010405820794403553
1783174126256090000,3.035090087890625,-0.0015824607107788324,0.003982175141572952,-0.0008355185855180025
1783174126266158000,3.045157958984375,0.00017201219452545047,0.0014258623123168945,0.0018744143890216947
1783174126276226000,3.05522607421875,0.00014724483480677009,0.000788035336881876,-0.0008851531893014908
1783174126286295300,3.06529541015625,0.0024263733066618443,0.0013063331134617329,-0.000014043878763914108
1783174126296363000,3.075363037109375,-0.0012184290681034327,-0.0009275265038013458,0.000638430705294013
1783174126306432000,3.085431884765625,0.0009274257463403046,-0.0006489800289273262,0.0030601986218243837
1783174126316500000,3.0955,-0.001653709914535284,-0.0026732487604022026,0.0018545857165008783
1783174126326568200,3.105568115234375,-0.0009208453120663762,0.000022887252271175385,-0.0000672296155244112
1783174126336637000,3.115636962890625,0.0020507099106907845,-0.0005254577845335007,-0.00034126872196793556
1783174126346705000,3.125704833984375,-0.0003659724025055766,-0.0031186407431960106,0.0010079066269099712
1783174126356773000,3.135773193359375,0.0014764023944735527,-0.0017636241391301155,0.0019120498327538371
1783174126366842000,3.145842041015625,-0.0006696361815556884,-0.0004950659349560738,-0.002250999677926302
1783174126376910000,3.15591015625,0.0003527513472363353,-0.0005983961746096611,-0.0018669720739126205
1783174126386979000,3.16597900390625,-0.0016466043889522552,-0.0006588846445083618,-0.0005318133626133204
1783174126397047000,3.176047119140625,0.0003017642302438617,-0.0018354691565036774,0.002037071855738759
1783174126407115000,3.186114990234375,-0.0001982397516258061,0.0006869803182780743,-0.0008460637181997299
1783174126417184000,3.19618408203125,-0.0008062394335865974,-0.0001559099182486534,0.0004202693235129118
1783174126427252000,3.206251953125,-0.0007657278329133987,0.0016551269218325615,-0.00023050280287861824
1783174126437321000,3.216321044921875,-0.0006789087783545256,-0.0015329429879784584,0.0023780635092407465
1783174126447389200,3.22638916015625,-0.0015060401055961847,0.00023707468062639236,0.0005733708385378122
1783174126457457200,3.23645703125,-0.00013291434152051806,0.0015428229235112667,0.0012125293724238873
1783174126467526000,3.24652587890625,0.00021025555906817317,-0.0013088034465909004,-0.0015655311290174723
1783174126477594000,3.256593994140625,0.000003594264853745699,-0.0008986769244074821,-0.0030736790504306555
1783174126487662000,3.266662109375,0.0016896517481654882,0.0023747365921735764,0.0006752153858542442
1783174126497731000,3.27673095703125,-0.00048588443314656615,0.0003898823633790016,-0.0008004421833902597
1783174126507799000,3.286799072265625,-0.0005356059409677982,0.00022302521392703056,0.0021393534261733294
1783174126517868000,3.296867919921875,-0.0012661111541092396,-0.00016606319695711136,-0.0009302059188485146
1783174126527936000,3.30693603515625,0.0011765982490032911,0.0011336482129991055,-0.0018888125196099281
1783174126538004200,3.317004150390625,0.0006399712292477489,0.0005016801878809929,-0.0001295281108468771
1783174126548073000,3.327072998046875,-0.0009111335384659469,-0.00027463585138320923,-0.0009928983636200428
1783174126558141000,3.337140869140625,0.00037730380427092314,0.0017704055644571781,0.0009275070624426007
1783174126568209200,3.347209228515625,0.0018036009278148413,0.0020293882116675377,0.000019687926396727562
1783174126578278100,3.357278076171875,-0.0009953813860192895,-0.0013693375512957573,0.0038937884382903576
1783174126588346000,3.36734619140625,-0.0033217277377843857,-0.0008439645171165466,-0.000048673246055841446
1783174126598415000,3.3774150390625,-0.0002809304278343916,-0.00007377844303846359,-0.0008798458147794008
1783174126608483000,3.387483154296875,-0.0011273854179307818,-0.0030535459518432617,0.0003996982704848051
1783174126618551000,3.397551025390625,-0.001967080170288682,-0.002139815129339695,-0.0026903674006462097
1783174126628620000,3.4076201171875,0.0011140336282551289,0.0009696558117866516,0.0010596895590424538
1783174126638688000,3.41768798828125,0.0011625031474977732,0.0017829849384725094,-0.0006287544965744019
1783174126648757000,3.427757080078125,0.0010708961635828018,0.001249043270945549,0.0020357579924166203
1783174126658825200,3.4378251953125,-0.001959514804184437,-0.0008489955216646194,-0.0003264660481363535
1783174126668893200,3.44789306640625,0.0019900675397366285,0.00042616063728928566,0.0007852129638195038
1783174126678962000,3.4579619140625,-0.0015719104558229446,-0.00044442713260650635,-0.0006731338798999786
1783174126689030100,3.468030029296875,-0.0028403529431670904,-0.0008300933986902237,0.00034950533881783485
1783174126699098000,3.47809814453125,-0.0003364488366059959,-0.00048761069774627686,-0.0010965911205857992
1783174126709167000,3.4881669921875,0.001357329310849309,0.0004084436222910881,-0.001408272422850132
1783174126719234800,3.49823486328125,0.0008444045670330524,-0.0012938492000102997,0.0004937571939080954
1783174126729304000,3.508303955078125,-0.00005591742228716612,-0.0007981806993484497,-0.000632760813459754
1783174126739372000,3.5183720703125,0.003145734779536724,0.0006183544173836708,-0.0029398570768535137
1783174126749440000,3.52843994140625,-0.0009011908550746739,-0.001064106822013855,-0.0004349627997726202
1783174126759509000,3.538509033203125,0.0004487654659897089,0.0010403231717646122,0.0015634732553735375
1783174126769577000,3.548576904296875,-0.0016825543716549873,0.0011105681769549847,-0.0006234822794795036
1783174126779646200,3.558646240234375,0.0009350668406113982,0.0016871425323188305,-0.0017033941112458706
1783174126789714200,3.568714111328125,0.0017677852883934975,0.001052661333233118,0.000677518779411912
1783174126799782100,3.5787822265625,0.0005097080138511956,0.001119240652769804,-0.00269564101472497
1783174126809851100,3.58885107421875,0.0006729615270160139,-0.00009641703218221664,0.00009108870290219784
1783174126819919000,3.598919189453125,0.000372823269572109,-0.0009829830378293991,-0.00037496467120945454
1783174126829988000,3.608988037109375,0.0009583279024809599,-0.0021398914977908134,0.0002480859402567148
1783174126840056000,3.61905615234375,0.001640363479964435,0.00013657892122864723,-0.0043535903096199036
1783174126850124000,3.6291240234375,-0.0006444434402510524,0.003504776395857334,-0.00036262162029743195
1783174126860193000,3.639193115234375,-0.0012665579561144114,-0.00025028083473443985,0.0006509774830192327
1783174126870261000,3.649260986328125,0.0014320786576718092,-0.0001388927921652794,0.001520664431154728
1783174126880330000,3.659330078125,-0.0009903325699269772,0.001830780878663063,-0.0005978802219033241
1783174126890398000,3.66939794921875,-0.0017861805390566587,-0.0009305430576205254,0.0018007047474384308
1783174126900466000,3.6794658203125,-0.00047350849490612745,-0.0008748834952712059,-0.00106991664506495
1783174126910535200,3.68953515625,-0.0009512815740890801,0.0007417798042297363,-0.0032757108565419912
1783174126920603100,3.69960302734375,0.0019089533016085625,-0.00006063096225261688,0.0006473918911069632
1783174126930672000,3.709672119140625,-0.002977917902171612,0.00036142393946647644,0.0008761505596339703
1783174126940740000,3.719739990234375,-0.0008646995993331075,-0.0020322250202298164,0.001181881409138441
1783174126950808000,3.72980810546875,-0.0005032274057157338,-0.0029390808194875717,0.0027098734863102436
1783174126960877000,3.739876953125,-0.0020997924730181694,0.000025549903512001038,0.0015071899397298694
1783174126970945000,3.749945068359375,0.0001625028089620173,0.00035222945734858513,-0.0007874194998294115
1783174126981013000,3.760012939453125,0.00017075857613235712,0.000624670647084713,0.0011585523607209325
1783174126991082000,3.77008203125,-0.002403431572020054,-0.0005704965442419052,0.0016851031687110662
1783174127001150200,3.780150146484375,-0.0015341759426519275,0.00026493705809116364,-0.0028691687621176243
1783174127011219000,3.790218994140625,0.0011460853274911642,-0.0000574430450797081,-0.0008782553486526012
1783174127021287000,3.800286865234375,0.0036161672323942184,0.0017883935943245888,-0.002174948574975133
1783174127031355100,3.810355224609375,-0.0011318265460431576,0.0003793151117861271,-0.001193471485748887
1783174127041424100,3.820424072265625,-0.000002113578375428915,-0.0010870210826396942,-0.00032741157338023186
1783174127051492000,3.8304921875,-0.000968818087130785,-0.001087874174118042,0.0019846484065055847
1783174127061561000,3.84056103515625,0.0008890031022019684,0.0017172330990433693,0.0010725156171247363
1783174127071629800,3.8506298828125,0.0018450524657964706,0.0007755458354949951,0.000415990361943841
1783174127081697800,3.86069775390625,-0.0015403579454869032,0.0020677116699516773,0.0007563423132523894
1783174127091766500,3.8707666015625,0.0007737487321719527,-0.001063711941242218,-0.0006098418962210417
1783174127101834800,3.880834716796875,-0.0010571745224297047,-0.0007257573306560516,0.0006367836613208055
1783174127111903700,3.89090380859375,-0.0009742622496560216,-0.0006829285994172096,0.0004389318637549877
1783174127121971700,3.9009716796875,-0.001163080451078713,-0.0005545644089579582,-0.0013014436699450016
1783174127132039700,3.911039794921875,-0.000981096993200481,-0.0005404297262430191,-0.0011069129686802626
1783174127142108700,3.921108642578125,-0.0018642012728378177,0.001748290378600359,0.0009045726619660854
1783174127152176600,3.9311767578125,0.0020469487644732,-0.0004199109971523285,0.0033392414916306734
1783174127162245600,3.94124560546875,0.00075052201282233,0.0012909038923680782,-0.000523140886798501
1783174127172313600,3.951313720703125,-0.00023105402942746878,0.0017632963135838509,-0.0018139698076993227
1783174127182381600,3.961381591796875,-0.00043265538988634944,0.0003209281712770462,-0.0005966390017420053
1783174127192450800,3.971450927734375,-0.0007045379024930298,-0.0015543214976787567,0.000017904210835695267
1783174127202518800,3.981518798828125,0.00038043386302888393,0.0025818338617682457,-0.0024172901175916195
1783174127212587500,3.99158740234375,-0.0009975277353078127,0.0009180540218949318,-0.0006912488024681807
1783174127222655700,4.00165576171875,0.0010091641452163458,-0.0018212730064988136,-0.0006789981853216887
1783174127232723700,4.0117236328125,0.000042389146983623505,0.00211261585354805,-0.0019851403776556253
1783174127242792700,4.021792724609375,-0.0006079548038542271,-0.00007730163633823395,-0.0004349143709987402
1783174127252860700,4.031860595703125,-0.000043323379941284657,-0.00004952866584062576,-0.002004004083573818
1783174127262929700,4.0419296875,0.0001023515360429883,-0.00011024810373783112,-0.00002154707908630371
1783174127272997600,4.05199755859375,-0.0017865215195342898,-0.001767018809914589,0.0015897898701950908
1783174127283065900,4.06206591796875,-0.0000978111638687551,0.0009792326018214226,-0.0013679168187081814
1783174127293134600,4.072134521484375,-0.0007965185795910656,0.0013785893097519875,-0.00156760448589921
1783174127303202600,4.08220263671875,0.000005359237547963858,-0.0020158756524324417,0.0025957152247428894
1783174127313271800,4.092271728515625,0.00009229761781170964,0.00005738763138651848,-0.001019009156152606
1783174127323339800,4.10233984375,-0.00023926590802147985,-0.0010899025946855545,0.002560279332101345
1783174127333407700,4.11240771484375,0.0012025694595649838,0.0018326505087316036,0.0016670550685375929
1783174127343476700,4.122476806640625,-0.002888956107199192,0.00017825886607170105,-0.00195977627299726
1783174127353544700,4.132544677734375,-0.001439117593690753,-0.0009664660319685936,0.0013768294593319297
1783174127363613700,4.14261376953125,0.00037795715616084635,0.0008591306395828724,-0.002921778941527009
1783174127373681700,4.152681640625,0.00022931379498913884,-0.0009157713502645493,-0.0015762767288833857
1783174127383749600,4.16274951171875,-0.0000423286110162735,-0.0018571987748146057,-0.0017051736358553171
1783174127393818600,4.172818603515625,0.0012213533045724034,-0.00022971909493207932,0.002953383605927229
1783174127403886800,4.182886962890625,0.00041867655818350613,-0.001129601150751114,-0.0011300412006676197
1783174127413955600,4.19295556640625,0.0008110991911962628,-0.0010749297216534615,-0.0017085790168493986
1783174127424023600,4.2030234375,-0.0007553721079602838,-0.00008849427103996277,0.0019005369395017624
1783174127434092800,4.2130927734375,-0.0007233377546072006,0.0020625111646950245,-0.000962347723543644
1783174127444160800,4.223160888671875,-0.000698037794791162,-0.0009207623079419136,0.00033700838685035706
1783174127454228700,4.233228759765625,-0.001902539050206542,-0.0005903709679841995,0.00032449490390717983
1783174127464297700,4.243297607421875,-0.0006402006838470697,0.00026956386864185333,-0.0009980308823287487
1783174127474365700,4.25336572265625,-0.0011948616011068225,-0.0003213845193386078,0.00014304998330771923
1783174127484434700,4.2634345703125,0.0018640451598912477,-0.00014588236808776855,0.000995794078335166
1783174127494502700,4.273502685546875,-0.000430798449087888,0.0014062747359275818,-0.0011594544630497694
1783174127504570600,4.283570556640625,0.00019451172556728125,0.0024877842515707016,0.001790262758731842
1783174127514639600,4.2936396484375,0.00038054041215218604,-0.0011497694067656994,-0.00016832351684570312
1783174127524707800,4.303707763671875,0.0019507401157170534,0.0007701031863689423,0.0008514008950442076
1783174127534776600,4.313776611328125,-0.00036651926347985864,0.0016008326783776283,-0.0005507897585630417
1783174127544844500,4.323844482421875,-0.0004203151329420507,0.00041998689994215965,-0.0003020504955202341
1783174127554912500,4.33391259765625,-0.0010474545415490866,0.0011891257017850876,-0.0003394510131329298
1783174127564981800,4.343981689453125,0.0005749431438744068,-0.0007643029093742371,-0.0009205527603626251
1783174127575049700,4.3540498046875,0.00021842552814632654,-0.000011059921234846115,0.001875897403806448
1783174127585118700,4.36411865234375,-0.000791711441706866,0.0028047007508575916,0.0013571135932579637
1783174127595186700,4.374186767578125,-0.0020983859430998564,0.00041898107156157494,0.004027252085506916
1783174127605255700,4.384255615234375,0.0009706409182399511,0.0019183405674993992,0.0009632854489609599
1783174127615324000,4.394323974609375,-0.0008958239341154695,0.0026525245048105717,-0.0013260156847536564
1783174127625391600,4.4043916015625,0.001804088824428618,0.0004165344871580601,0.0010801502503454685
1783174127635460600,4.414460693359375,-0.0003962335176765919,-0.000451862346380949,0.002044185996055603
1783174127645528800,4.42452880859375,-0.0007973054889589548,0.0004911627620458603,-0.003897059941664338
1783174127655597600,4.43459765625,0.0002590566873550415,0.00026696640998125076,0.0004663676954805851
1783174127665665500,4.44466552734375,-0.00035506824497133493,-0.0019021783955395222,-0.0010135509073734283
1783174127675733500,4.4547333984375,0.00023493688786402345,-0.0010783490724861622,0.0013161000097170472
1783174127685802800,4.464802734375,0.0007582480320706964,0.0015659038908779621,0.0016053193248808384
1783174127695870700,4.47487060546875,0.00132455094717443,-0.00053791468963027,-0.0007360409945249557
1783174127705939700,4.484939697265625,0.00005102733848616481,-0.0006471038796007633,-0.002496124245226383
1783174127716007700,4.495007568359375,-0.0017209944780915976,-0.00025934167206287384,-0.0011749581899493933
1783174127726075600,4.50507568359375,-0.00027729483554139733,0.000914313830435276,0.00042267213575541973
1783174127736145000,4.515144775390625,-0.0000143788056448102,0.001718707848340273,-0.0014937182422727346
1783174127746212600,4.525212646484375,0.001721203327178955,0.0018468056805431843,0.0008637120481580496
1783174127756281600,4.535281494140625,-0.0003508433001115918,0.0011984342709183693,-0.0008673716802150011
1783174127766349800,4.545349853515625,-0.0008158311247825623,0.0014668810181319714,0.0001092094462364912
1783174127776418600,4.55541845703125,0.0004971114685758948,-0.0019097886979579926,0.0005054406356066465
1783174127786486500,4.565486572265625,0.001729089766740799,0.00010249577462673187,-0.0006402512080967426
1783174127796554500,4.575554443359375,0.00013870472321286798,0.0018491833470761776,-0.0000130445696413517
1783174127806623700,4.585623779296875,0.00042313034646213055,-0.0010358188301324844,0.00045993272215127945
1783174127816691700,4.595691650390625,0.00043852851376868784,-0.00028753653168678284,-0.00126646738499403
1783174127826760700,4.6057607421875,-0.0013532463926821947,-0.0014036670327186584,0.0005916201043874025
1783174127836828700,4.61582861328125,-0.00027327181305736303,-0.002534187398850918,-0.0008019737433642149
1783174127846897700,4.625897705078125,-0.00028898450545966625,0.0003311079926788807,-0.0010384623892605305
1783174127856966000,4.6359658203125,0.002877803985029459,0.0010077394545078278,-0.00038561434485018253
1783174127867033600,4.64603369140625,0.0012274431064724922,-0.0001771007664501667,-0.0018167973030358553
1783174127877102600,4.6561025390625,0.0027294575702399015,-0.0015307157300412655,0.000583242392167449
1783174127887170800,4.6661708984375,-0.0018573047127574682,-0.00015279604122042656,0.00029881694354116917
1783174127897239800,4.67623974609375,-0.0021999492309987545,0.0017287512309849262,-0.00008686701767146587
1783174127907307500,4.6863076171875,0.0014190201181918383,-0.002218053210526705,-0.0005920685362070799
1783174127917375500,4.69637548828125,-0.0006379532278515399,-0.0003482033498585224,-0.000710255466401577
1783174127927444700,4.70644482421875,-0.0007860250188969076,-0.00013195397332310677,-0.00042716134339571
1783174127937512700,4.7165126953125,0.0012658511986956,-0.0007169842720031738,0.0029609468765556812
1783174127947581700,4.726581787109375,0.0006581178749911487,0.0004785084165632725,0.001047465717419982
1783174127957649700,4.736649658203125,-0.0019815745763480663,0.0016157613135874271,-0.0006507318466901779
1783174127967718700,4.74671875,0.0016594992484897375,0.001416557002812624,0.0002323724329471588
1783174127977787000,4.756786865234375,-0.0011599381687119603,-0.0006712819449603558,-0.0008365961257368326
1783174127987854600,4.7668544921875,-0.0014283847995102406,0.0013489923439919949,-0.0019806898199021816
1783174127997923600,4.776923583984375,0.0005875038914382458,0.0013267104513943195,0.001008103135973215
1783174128007991800,4.78699169921875,0.0017443810356780887,0.003006366081535816,-0.0009573097340762615
1783174128018060800,4.797060791015625,0.0011655439157038927,-0.0021536345593631268,0.0014814304886385798
1783174128028128500,4.80712841796875,-0.00012901873560622334,0.00009167660027742386,0.0010931416181847453
1783174128038197800,4.81719775390625,-0.0016531622968614101,0.0014047082513570786,0.002826942829415202
1783174128048265700,4.827265625,0.001367128686979413,-0.0011876127682626247,-0.000597615959122777
1783174128058333700,4.837333740234375,-0.0002624058397486806,0.0008449447341263294,0.0007269079796969891
1783174128068402200,4.847402099609375,-0.001162021653726697,-0.0010352474637329578,0.00005179666914045811
1783174128078470000,4.857469970703125,0.00044908165000379086,0.00028503313660621643,-0.0003339869435876608
1783174128088539100,4.8675390625,0.0014592186780646443,0.0011106128804385662,0.0005216868594288826
1783174128098607000,4.877607177734375,-0.0009797391248866916,-0.0006506964564323425,0.0010263212025165558
1783174128108676000,4.887676025390625,-0.0018151727272197604,-0.00045229028910398483,-0.0007111250888556242
1783174128118744000,4.897744140625,-0.00010564143303781748,0.00048254942521452904,0.0014620883157476783
1783174128128812000,4.90781201171875,0.0012365917209535837,-0.0009622154757380486,-0.0017906965222209692
1783174128138881300,4.91788134765625,0.0028469315730035305,0.0038765710778534412,-0.0008919676765799522
1783174128148949200,4.92794921875,-0.0011004058178514242,0.00048183975741267204,-0.00176601717248559
1783174128159018000,4.93801806640625,0.00031238305382430553,0.0007563736289739609,-0.0007194704376161098
1783174128169086200,4.948086181640625,-0.0023121621925383806,-0.00008891383185982704,0.0009894799441099167
1783174128179155200,4.9581552734375,0.00022615352645516396,-0.001263194251805544,-0.00008228118531405926
1783174128189223200,4.96822314453125,-0.0010548268910497427,0.00023137172684073448,0.0005334417801350355
1783174128199291000,4.978290771484375,0.001319959876127541,-0.0012457258999347687,-0.0018695842009037733
1783174128209360100,4.988360107421875,-0.0004654232761822641,-0.0017253616824746132,0.0018489876529201865
1783174128219428000,4.998427978515625,-0.0025459935422986746,0.000517579261213541,-0.0018296518828719854
1783174128229497000,5.0084970703125,-0.0009984306525439024,-0.0014078859239816666,0.001195166609250009
1783174128239565000,5.01856494140625,-0.002032489748671651,0.00047845393419265747,0.004974797368049622
1783174128249634000,5.028634033203125,-0.00001807481748983264,-0.0005266228690743446,0.00017764512449502945
1783174128259702300,5.038702392578125,-0.0009462215821258724,0.0001858132891356945,0.0009882365120574832
1783174128269770200,5.048770263671875,-0.001822667894884944,0.0004811580292880535,-0.00038568838499486446
1783174128279839000,5.0588388671875,0.0008208578219637275,-0.00028461311012506485,0.0012615238083526492
1783174128289907200,5.0689072265625,0.002283199690282345,0.0025591100566089153,-0.0017182871233671904
1783174128299976200,5.07897607421875,0.000601469015236944,-0.00005471939221024513,-0.0031587842386215925
1783174128310044200,5.089044189453125,-0.00010506762191653252,-0.0021077501587569714,0.001025574398227036
1783174128320113200,5.099113037109375,-0.0016777449054643512,-0.000440722331404686,0.0024334050249308348
1783174128330181000,5.10918115234375,0.0008037886000238359,-0.00018931925296783447,-0.0008532020729035139
1783174128340249000,5.1192490234375,-0.00010573363397270441,0.001366257667541504,-0.000774487154558301
1783174128350318000,5.129318115234375,-0.002085527405142784,0.001833109650760889,-0.0005387973506003618
1783174128360386000,5.139385986328125,-0.0010710785863921046,-0.0007418878376483917,0.0015449661295861006
1783174128370455000,5.149455078125,-0.001770957256667316,0.0004863622598350048,-0.00037517305463552475
1783174128380523300,5.159523193359375,0.0010792544344440103,-0.00041099637746810913,0.002290183212608099
1783174128390592000,5.169592041015625,0.0002656587166711688,0.000953874085098505,0.00014021340757608414
1783174128400660000,5.179659912109375,-0.0018232527654618025,0.001484652515500784,0.0015611296985298395
1783174128410728200,5.189728271484375,-0.0007068557315506041,0.001443639863282442,0.0006902760360389948
1783174128420797200,5.199797119140625,0.002007668372243643,0.002443284261971712,0.0002472694031894207
1783174128430865200,5.209865234375,-0.0008464414859190583,0.00011541508138179779,-0.0003239787183701992
1783174128440934100,5.21993408203125,-0.0006486064521595836,0.0025175074115395546,-0.002756021451205015
1783174128451002000,5.230002197265625,0.0010259891860187054,-0.0009443354792892933,-0.0013943472877144814
1783174128461071000,5.240071044921875,-0.00010663032298907638,-0.0004306160844862461,-0.0006973699200898409
1783174128471139000,5.25013916015625,0.0010124299442395568,-0.000015162862837314606,0.0003708240110427141
1783174128481208000,5.2602080078125,-0.0012684380635619164,0.00030094990506768227,-0.0012761836405843496
1783174128491276000,5.270276123046875,0.00029696806450374424,0.0012514321133494377,-0.0009321032557636499
1783174128501344300,5.28034423828125,0.00022083366638980806,-0.0008213096298277378,0.0018969806842505932
1783174128511413000,5.2904130859375,0.00006450613727793097,-0.0013779099099338055,-0.0010977438651025295
1783174128521481000,5.30048095703125,-0.0006035275291651487,0.0005574510432779789,0.001588177285157144
1783174128531550200,5.31055029296875,0.0011272609699517488,-0.000857220496982336,0.000038750236853957176
1783174128541618200,5.3206181640625,0.0003126373630948365,0.0016055414453148842,0.00006987899541854858
1783174128551687000,5.33068701171875,-0.0008884482667781413,-0.0003300444222986698,-0.0019506614189594984
1783174128561755100,5.340755126953125,-0.0002034211065620184,0.0010123117826879025,-0.0005267101805657148
1783174128571823000,5.350822998046875,-0.00011819996871054173,-0.00008118199184536934,0.0004682466387748718
1783174128581892000,5.36089208984375,0.0003194051969330758,-0.0009320294484496117,-0.002494605490937829
1783174128591960000,5.3709599609375,0.0012403263244777918,0.000055470969527959824,0.0012093187542632222
1783174128602029000,5.381029052734375,0.0017856350168585777,0.00245047640055418,-0.0011527466122061014
1783174128612097000,5.391096923828125,-0.0007496943580918014,0.0028302432037889957,-0.0002661803737282753
1783174128622166300,5.401166259765625,0.00044116858043707907,-0.0008347490802407265,0.0015525956405326724
1783174128632234000,5.41123388671875,0.00045102229341864586,0.001612162683159113,0.000768294557929039
1783174128642303000,5.421302978515625,-0.0003936113207601011,-0.0012599816545844078,0.0003791535273194313
1783174128652371200,5.43137109375,0.00008868717122823,0.001996797975152731,-0.001662692055106163
1783174128662439200,5.441439208984375,-0.00043662881944328547,0.0008289222605526447,-0.0026023441459983587
1783174128672508000,5.4515078125,-0.0014683374902233481,-0.00026936549693346024,0.0016592461615800858
1783174128682576100,5.461576171875,-0.0022589561995118856,-0.0003089737147092819,0.0012383479624986649
1783174128692645000,5.47164501953125,-0.0005257709417492151,0.00044336915016174316,0.0017259727464988828
1783174128702713000,5.481713134765625,0.0005253948038443923,0.0015845303423702717,0.0020395114552229643
1783174128712782000,5.491781982421875,-0.000010699557606130838,-0.000798465684056282,0.00030313036404550076
1783174128722850000,5.50185009765625,-0.000060009071603417397,-0.0003390219062566757,0.0007732845842838287
1783174128732919300,5.511919189453125,-0.0007060919306240976,0.002910034265369177,0.0004084315150976181
1783174128742987300,5.5219873046875,0.0010511762229725718,-0.0005402653478085995,0.0008658070582896471
1783174128753055000,5.532054931640625,-0.0009456619736738503,-0.0004459894262254238,-0.0012777710799127817
1783174128763124000,5.5421240234375,0.0008925452129915357,-0.00043465709313750267,-0.0036587975919246674
1783174128773192200,5.552192138671875,-0.0005783186061307788,0.0007139644585549831,0.004208712838590145
1783174128783261200,5.56226123046875,-0.0008175637922249734,-0.00026856735348701477,0.002280708635225892
1783174128793329000,5.572328857421875,-0.001583222532644868,0.0011913771741092205,0.0002567062620073557
1783174128803398100,5.582398193359375,-0.0004637865931726992,-0.0011534281075000763,0.000052426476031541824
1783174128813466000,5.592466064453125,0.0000065275817178189754,0.002317470032721758,-0.0007284122984856367
1783174128823535000,5.60253515625,-0.001447896589525044,-0.00012013036757707596,-0.0016364345792680979
1783174128833603000,5.61260302734375,0.0012099380837753415,0.002019719686359167,-0.0005868826992809772
1783174128843671000,5.622671142578125,0.00020846165716648102,0.0001667332835495472,0.004100581631064415
1783174128853740300,5.632740234375,-0.000654402538202703,-0.00053793890401721,-0.00180337973870337
1783174128863808300,5.642808349609375,0.0016967827687039971,0.0013946346007287502,0.0007703711744397879
1783174128873877000,5.652876953125,-0.0023482926189899445,-0.0024911840446293354,0.0021158000454306602
1783174128883945000,5.662945068359375,-0.00045430706813931465,-0.0018356554210186005,0.0010472290450707078
1783174128894014200,5.67301416015625,0.00017792737344279885,0.002052027266472578,-0.0003994000144302845
1783174128904082200,5.683082275390625,-0.0027375868521630764,-0.0006193597801029682,0.0017836673650890589
1783174128914151200,5.693151123046875,0.00016499229241162539,-0.0023370995186269283,0.0005604776088148355
1783174128924219100,5.70321923828125,0.0013328236527740955,-0.0019370773807168007,0.002537925960496068
1783174128934287000,5.713287109375,-0.0017396652838215232,-0.00021907221525907516,-0.0008906277362257242
1783174128944356000,5.723356201171875,-0.00001712603261694312,0.001733195036649704,0.0024691810831427574
1783174128954424000,5.733424072265625,-0.002589739626273513,-0.000034611206501722336,-0.0007636300288140774
1783174128964493000,5.7434931640625,-0.0012620999477803707,-0.001173611730337143,0.00009176437743008137
1783174128974561300,5.753561279296875,-0.00021334708435460925,-0.0012018410488963127,-0.00046723312698304653
1783174128984630000,5.763630126953125,0.0023205531761050224,-0.000440909992903471,0.0017226975178346038
1783174128994698000,5.773697998046875,-0.0005245018401183188,0.0012962697073817253,0.0005024371203035116
1783174129004767200,5.783767333984375,-0.0013598231598734856,-0.0003852830268442631,0.0006663557142019272
1783174129014835200,5.793835205078125,0.0005888118175789714,-0.0014952882193028927,-0.00021754740737378597
1783174129024903200,5.803903076171875,-0.0001717560808174312,-0.0003037722781300545,0.0004739612340927124
1783174129034972200,5.81397216796875,-0.00011316651944071054,0.00027599791064858437,-0.0020001153461635113
1783174129045040000,5.8240400390625,-0.0012617099564522505,0.00004728557541966438,0.00327047286555171
1783174129055109000,5.834109130859375,-0.0003748771850951016,-0.0000919979065656662,0.0003156957682222128
1783174129065177000,5.844177001953125,-0.00011810014257207513,-0.0003361920826137066,-0.001236948650330305
1783174129075246000,5.85424609375,-0.0005095848464407027,0.001110703218728304,0.0003628120757639408
1783174129085314000,5.86431396484375,0.00046358443796634674,0.00006182584911584854,0.0009007749613374472
1783174129095383000,5.874383056640625,0.00015971774701029062,-0.000898243859410286,0.0030850996263325214
1783174129105451000,5.884450927734375,-0.0005396644119173288,0.0003393520601093769,-0.0028394272085279226
1783174129115520000,5.89452001953125,-0.0008334111189469695,0.0007492122240364552,0.00020110374316573143
1783174129125588000,5.904587890625,0.0010849813697859645,-0.0019717328250408173,-0.0002129699569195509
1783174129135656200,5.91465625,-0.0006498016882687807,0.0008056778460741043,-0.0017336348537355661
1783174129145725000,5.924724853515625,-0.0018470799550414085,0.001116184052079916,-0.0008473512716591358
1783174129155793000,5.93479296875,0.00016600341768935323,0.000328154768794775,0.0008448213338851929
1783174129165862100,5.944862060546875,0.0012761886464431882,-0.0007829773239791393,0.004909565206617117
1783174129175930000,5.95493017578125,0.001391503494232893,0.0009014722891151905,-0.001729695126414299
1783174129185999000,5.9649990234375,-0.0011232605902478099,0.001443303655833006,0.0006027426570653915
1783174129196067000,5.975067138671875,-0.0009624056983739138,-0.0012933607213199139,0.002254967577755451
1783174129206136000,5.985135986328125,-0.0012733428739011288,-0.001502246130257845,0.003936342895030975
1783174129216204300,5.995204345703125,-0.0006229988648556173,-0.0004814569838345051,0.0015216547762975097
1783174129226273000,6.00527294921875,-0.0008128629997372627,-0.001077958382666111,-0.0018337885849177837
1783174129236341000,6.015341064453125,0.001473727053962648,0.0017716242000460625,-0.00035120686516165733
1783174129246409000,6.025408935546875,0.0011612264206632972,0.00031795911490917206,-0.0001485026441514492
1783174129256478000,6.03547802734375,0.0013697519898414612,-0.000945710577070713,0.0005580340512096882
1783174129266546000,6.0455458984375,-0.0011655534617602825,-0.0000604875385761261,-0.0014300888869911432
1783174129276615200,6.055615234375,-0.0017937931697815657,0.0011832085438072681,0.0018946013879030943
1783174129286683100,6.06568310546875,0.001892312429845333,0.0018187761306762695,-0.0031956417951732874
1783174129296751900,6.075751953125,-0.00025898905005306005,0.0003082309849560261,-0.003585262456908822
1783174129306820000,6.085820068359375,0.0011911510955542326,0.0015333620831370354,-0.00024143490009009838
1783174129316889000,6.09588916015625,0.0005988640477880836,-0.0007806583307683468,-0.0010507695842534304
1783174129326957000,6.10595703125,0.0013596689095720649,-0.0019305823370814323,-0.00171181233599782
1783174129337026000,6.116026123046875,-0.0005799112841486931,-0.001144682988524437,-0.0004481426440179348
1783174129347094000,6.126093994140625,-0.000746311794500798,-0.0020989440381526947,0.0003631340805441141
1783174129357163000,6.1361630859375,-0.0007484423113055527,-0.00039878208190202713,0.000059800222516059875
1783174129367231200,6.146231201171875,-0.0016694462392479181,-0.0004844921641051769,0.0010321467416360974
1783174129377299000,6.156298828125,-0.0013860859908163548,-0.0003705085255205631,-0.0008355281315743923
1783174129387368000,6.166367919921875,-0.0017887117573991418,-0.00027940329164266586,0.0017285420326516032
1783174129397436200,6.176436279296875,0.0009407619363628328,0.00014856690540909767,0.0006619459018111229
1783174129407505200,6.186505126953125,0.00139874336309731,0.001215354073792696,-0.00034518283791840076
1783174129417572900,6.19657275390625,0.001844556536525488,0.00007578730583190918,-0.0020181809086352587
1783174129427642000,6.20664208984375,-0.0011547987814992666,-0.00008695758879184723,0.0009713086765259504
1783174129437710000,6.2167099609375,0.002399988705292344,0.0014110701158642769,-0.0032415459863841534
1783174129447778800,6.22677880859375,0.0014270611573010683,0.0004080147482454777,0.0003061059396713972
1783174129457847000,6.236846923828125,0.0005061400006525218,-0.00028254278004169464,0.0007164990529417992
1783174129467916000,6.246916015625,-0.00008746632374823093,0.0010500666685402393,-0.00013595633208751678
1783174129477984000,6.25698388671875,0.000736249377951026,0.00011636270210146904,0.00047470652498304844
1783174129488053000,6.267052978515625,0.0007168035372160375,0.00010314397513866425,-0.0019223098643124104
1783174129498121000,6.277120849609375,0.00015887129120528698,0.000684778206050396,-0.0003494466654956341
1783174129508189000,6.28718896484375,0.0003497229190543294,-0.00018732203170657158,-0.0011716391891241074
1783174129518258200,6.297258056640625,0.0003561145276762545,0.00025396374985575676,-0.000453384593129158
1783174129528326100,6.307326171875,-0.00035644235322251916,0.0017340355552732944,-0.0020821860525757074
1783174129538395100,6.31739501953125,-0.0003367349854670465,-0.0020244838669896126,-0.0007751067169010639
1783174129548463000,6.327463134765625,0.00009978184243664145,-0.0012712064199149609,0.0001855357550084591
1783174129558532000,6.337531982421875,-0.001177736558020115,0.001789831556379795,0.00017488328740000725
1783174129568600000,6.34760009765625,-0.0005828181747347116,-0.0027313283644616604,-0.0006707480642944574
1783174129578669000,6.3576689453125,0.0008270593243651092,-0.0027060280553996563,-0.001187401358038187
1783174129588737000,6.367737060546875,0.001957023749127984,0.00028298282995820045,-0.00012802798300981522
1783174129598806000,6.377805908203125,0.0006555368890985847,-0.0002429913729429245,0.0018826585728675127
1783174129608874000,6.3878740234375,0.0003626719117164612,-0.000008543021976947784,-0.0016109573189169168
1783174129618943000,6.39794287109375,0.0005749257979914546,0.00024019600823521614,0.0005382134113460779
1783174129629011200,6.40801123046875,0.0022490662522614002,0.000309135764837265,-0.0016728495247662067
1783174129639080000,6.418079833984375,0.002045334316790104,0.0017059636302292347,0.0009674082975834608
1783174129649148000,6.42814794921875,0.0016091223806142807,-0.001299451570957899,0.0010053355945274234
1783174129659216100,6.438216064453125,0.0008708940586075187,0.0004366631619632244,0.0002940052654594183
1783174129669285000,6.44828515625,-0.0016264584846794605,-0.00023983558639883995,-0.00004465063102543354
1783174129679353000,6.45835302734375,-0.0015590805560350418,-0.0016758120618760586,0.0022113132290542126
1783174129689422000,6.468422119140625,-0.00023117981618270278,-0.002091219648718834,-0.0001520973164588213
1783174129699490000,6.478489990234375,0.0009784279391169548,0.0007471772842109203,0.0005166223272681236
1783174129709559000,6.48855908203125,0.00042027069139294326,-0.0008716341108083725,0.0017414781032130122
1783174129719627300,6.498627197265625,0.0005345202516764402,0.0020421305671334267,0.0010511867003515363
1783174129729696000,6.508696044921875,-0.000730744213797152,-0.001112832222133875,0.0018166668014600873
1783174129739764000,6.518763916015625,-0.0014423407847061753,0.001618239562958479,-0.0016188111621886492
1783174129749833200,6.528833251953125,0.0030558453872799873,0.001732666976749897,0.0011902939295396209
1783174129759901000,6.53890087890625,0.0002446126309223473,-0.0018673939630389214,0.0014379678759723902
1783174129769970000,6.548969970703125,0.0005310004344210029,0.0011995756067335606,0.0010790422093123198
1783174129780038100,6.5590380859375,0.00036721600918099284,0.0005841189995408058,-0.0012051512021571398
1783174129790107100,6.569107177734375,-0.0003428187337704003,0.0016450602561235428,0.0008025779388844967
1783174129800174800,6.5791748046875,0.00013947970001026988,-0.00001036049798130989,-0.00036921282298862934
1783174129810244000,6.589244140625,-0.000017931510228663683,-0.000990430824458599,0.0007168552838265896
1783174129820312000,6.59931201171875,0.0000720833195373416,0.0006516743451356888,0.00011764420196413994
1783174129830380000,6.609380126953125,0.0023526130244135857,0.0018439260311424732,0.0022366507910192013
1783174129840449000,6.619448974609375,0.0007461942150257528,-0.0007955324836075306,-0.0014251957181841135
1783174129850517000,6.62951708984375,0.0003820116980932653,0.0006004604510962963,0.00017257384024560452
1783174129860586200,6.639586181640625,0.00025844102492555976,-0.0012027653865516186,0.0015076164854690433
1783174129870654200,6.649654296875,0.0003777870151679963,0.00031475210562348366,-0.0008422599639743567
1783174129880723000,6.659722900390625,-0.0006400732090696692,0.0008124969899654388,0.0006339300889521837
1783174129890791000,6.669791015625,0.0019771787337958813,-0.00027366820722818375,-0.0005699952598661184
1783174129900860200,6.679860107421875,0.0011217715218663216,0.00006774859502911568,0.0022481619380414486
1783174129910928100,6.68992822265625,-0.0002547877957113087,0.0016608131118118763,-0.0015529603697359562
1783174129920997000,6.6999970703125,-0.001683307345956564,-0.0011975578963756561,0.000907001318410039
1783174129931065000,6.710065185546875,0.0005652595427818596,-0.0018545305356383324,0.003228340530768037
1783174129941134000,6.720134033203125,0.0010848422534763813,0.00016201520338654518,-0.0005118027329444885
1783174129951202000,6.7302021484375,-0.00014719506725668907,-0.0012645279057323933,-0.0017483904957771301
1783174129961271000,6.74027099609375,0.0005316446768119931,-0.0012360312975943089,0.002664201194420457
1783174129971339000,6.750339111328125,-0.00041474506724625826,-0.0010498873889446259,-0.000036685727536678314
1783174129981408000,6.760407958984375,0.00007394491694867611,0.0009450865909457207,0.0006381592247635126
1783174129991476000,6.77047607421875,-0.0018506792839616537,0.0003287801519036293,0.0009553424315527081
1783174130001545000,6.780544921875,-0.0000698232906870544,0.0018510431982576847,-0.002169344574213028
1783174130011613200,6.79061328125,-0.0006751141045242548,0.0011437907814979553,-0.0009401715360581875
1783174130021681200,6.80068115234375,0.0011784459929913282,0.0011411276645958424,-0.0005023479461669922
1783174130031750000,6.81075,0.00037540023913607,-0.00017764046788215637,0.0006284536793828011
1783174130041818000,6.820818115234375,-0.00004964024992659688,-0.0011765919625759125,-0.0012245739344507456
1783174130051887000,6.83088720703125,0.0014788191765546799,-5.541369318962097e-7,-0.002902471926063299
1783174130061955000,6.840955078125,0.0009536438155919313,0.0007299510762095451,-0.0000036212150007486343
1783174130072024000,6.851024169921875,-0.0012765859719365835,-0.0013202368281781673,0.0017027223948389292
1783174130082092000,6.861092041015625,-0.0004731101798824966,0.00005528563633561134,-0.0024765764828771353
1783174130092161000,6.8711611328125,0.0016085596289485693,-0.0005321996286511421,0.00036800093948841095
1783174130102229000,6.88122900390625,-0.00198297924362123,0.0004853946156799793,-0.00040724524296820164
1783174130112298000,6.891298095703125,0.0008236157009378076,-0.0011520334519445896,0.0020076448563486338
1783174130122366000,6.901365966796875,0.0014923354610800743,-0.00012911297380924225,-0.0018126596696674824
1783174130132435200,6.911435302734375,-0.001114814542233944,-0.0020074243657290936,-0.0006631177384406328
1783174130142503000,6.9215029296875,-0.0006397066754288971,0.0005942173302173615,0.001382722519338131
1783174130152572200,6.931572265625,-0.0000890964874997735,0.0003421790897846222,-0.0016758409328758717
1783174130162640100,6.94164013671875,-0.0029479998629540205,-0.0007196231745183468,0.0011074289213865995
1783174130172708900,6.951708984375,0.00042070570634678006,0.00020326394587755203,-0.0011583962477743626
1783174130182777000,6.961777099609375,-0.0010139391524717212,-0.0010015503503382206,0.0036661862395703793
1783174130192846000,6.97184619140625,0.001425447640940547,0.0016400618478655815,-0.001162586733698845
1783174130202914000,6.9819140625,-0.00136288208886981,-0.00032268837094306946,0.0017328017856925726
1783174130212983000,6.991983154296875,0.0017329411348327994,-0.0003630346618592739,-0.0003979003522545099
1783174130223051000,7.002051025390625,-0.0010628453455865383,-0.0003925957717001438,-0.0003979003522545099
1783174130233120000,7.0121201171875,-0.0007085698307491839,0.00014824140816926956,-0.00274151423946023
1783174130243188200,7.022188232421875,-0.0004047031397931278,0.0001730090007185936,-0.001916999462991953
1783174130253256200,7.032256103515625,-0.0004909531562589109,0.000041014980524778366,-0.0017536175437271595
1783174130263325000,7.042324951171875,-0.00004647154128178954,-0.001240232028067112,0.000029901275411248207
1783174130273393200,7.05239306640625,0.002110558096319437,0.0006545735523104668,0.00014151539653539658
1783174130283462100,7.062462158203125,-0.0018471656367182732,0.0028383652679622173,-0.0016238940879702568
1783174130293530000,7.072530029296875,-0.0007390360115095973,0.00030389241874217987,0.002675088355317712
1783174130303599000,7.08259912109375,-0.00024475331883877516,-0.0013145110569894314,-0.0015252490993589163
1783174130313667000,7.0926669921875,-0.00018435769015923142,-0.00038149114698171616,-0.0004007879178971052
1783174130323736000,7.102736083984375,-0.0003603925579227507,-0.0002853516489267349,-0.0022490217816084623
1783174130333804000,7.112803955078125,-0.0007003818755038083,-0.0003079064190387726,0.001029703300446272
1783174130343873000,7.122873046875,0.0008471810142509639,-0.001998480409383774,0.0006169131956994534
1783174130353941000,7.13294091796875,0.001583237899467349,-0.00030971504747867584,0.0008254470303654671
1783174130364010000,7.143010009765625,0.0008641844033263624,-0.0008767023682594299,-0.0036220320034772158
1783174130374078000,7.153077880859375,0.0020034685730934143,-0.0008489293977618217,0.002123740501701832
1783174130384147200,7.163147216796875,0.0015454047825187445,0.0010038320906460285,-0.000947949243709445
1783174130394215200,7.173215087890625,0.0009513807017356157,0.0017835772596299648,0.0005981274880468845
1783174130404284000,7.183283935546875,0.000026464869733899832,0.002584389876574278,0.001080692163668573
1783174130414352000,7.193351806640625,-0.0017728069797158241,-0.0020457361824810505,0.003115189028903842
1783174130424421000,7.203421142578125,-0.0008127373293973505,0.0005702865310013294,0.0006219374481588602
1783174130434489000,7.213489013671875,0.00017984863370656967,0.002658496145159006,0.0015545611968263984
1783174130444558000,7.22355810546875,0.0000853064120747149,0.002676605712622404,-0.003159233834594488
1783174130454626000,7.2336259765625,0.0016719463746994734,-0.00006276648491621017,0.0035616974346339703
1783174130464695000,7.243695068359375,-0.0004236950189806521,0.000733252614736557,0.0008458059746772051
1783174130474763300,7.25376318359375,0.00023982656421139836,-0.002183116041123867,-0.0030567811336368322
1783174130484832000,7.26383203125,-0.0018329117447137833,0.0005610049702227116,-0.0013776577543467283
1783174130494900000,7.27389990234375,-0.00032684195321053267,-0.00042309192940592766,0.00013268622569739819
1783174130504969200,7.28396923828125,0.0023376508615911007,-0.000907254870980978,0.0021156761795282364
1783174130515037200,7.294037109375,0.00031551311258226633,0.00022676074877381325,0.0031076560262590647
1783174130525106000,7.30410595703125,0.00009686755947768688,0.00042729685083031654,0.0006410363130271435
1783174130535174100,7.314174072265625,-0.00024657417088747025,-0.0009807581081986427,-0.0010504506062716246
1783174130545243100,7.3242431640625,0.00028126436518505216,-0.0009189723059535027,0.002184490906074643
1783174130555310800,7.334310791015625,0.0023103163111954927,0.0028399727307260036,-0.00044147297739982605
1783174130565380000,7.344380126953125,-0.002770995022729039,0.0000902591273188591,-0.00197625276632607
1783174130575448000,7.354447998046875,-0.0012958386214450002,0.0006236364133656025,0.00320678879506886
1783174130585517000,7.36451708984375,-0.0006779853720217943,0.00133230397477746,0.001894116634503007
1783174130595585000,7.3745849609375,0.0008467250736430287,0.001395899336785078,-0.0008878649678081274
1783174130605654000,7.384654052734375,-0.0006009692442603409,0.0010478240437805653,-0.0004220781847834587
1783174130615722000,7.394721923828125,-0.0010869037359952927,-0.00010636728256940842,0.0007524923421442509
1783174130625791000,7.404791015625,-0.0014480284880846739,-0.00023313378915190697,0.0000020135194063186646
1783174130635859000,7.41485888671875,-0.0013207700103521347,-0.0008249948732554913,-0.0005362341180443764
1783174130645928200,7.42492822265625,-0.0004427258390933275,-0.000036965589970350266,0.00006297719664871693
1783174130655996200,7.43499609375,-0.000008009723387658596,0.0003969566896557808,-0.0024938685819506645
1783174130666064100,7.445064208984375,0.001358990790322423,-0.00105206947773695,-0.0009801278356462717
1783174130676133000,7.455133056640625,-0.0015440575079992414,0.000891510397195816,-0.0021787439472973347
1783174130686201000,7.465201171875,-0.0007501691579818726,0.000028646085411310196,-0.0017196149565279484
1783174130696270000,7.47527001953125,0.0007798346923664212,0.001943069975823164,0.0013481492642313242
1783174130706338000,7.485338134765625,0.002281857654452324,-0.0008521834388375282,0.0020845134276896715
1783174130716407000,7.495406982421875,-0.0007678839028812945,0.0005301856435835361,-0.0007855631411075592
1783174130726475000,7.50547509765625,0.0009202939108945429,0.0016870624385774136,0.0006775774527341127
1783174130736544300,7.515544189453125,-0.000988947693258524,-0.0017224261537194252,-0.002285514259710908
1783174130746612000,7.525612060546875,0.0007825870416127145,0.0005119657143950462,-0.0013763110619038343
1783174130756681000,7.535680908203125,0.0005306479288265109,-0.002410503104329109,0.0008120406419038773
1783174130766749200,7.545749267578125,-0.0003026552149094641,-0.00014175660908222198,-0.00006680237129330635
1783174130776818000,7.55581787109375,-0.00040764111327007413,-0.0008432473987340927,0.0012294277548789978
1783174130786886000,7.565885986328125,-0.0006140360492281616,-0.0001955665647983551,0.0021058740094304085
1783174130796955100,7.575955078125,-0.0005195888224989176,-0.00043409038335084915,0.0003051415551453829
1783174130807023000,7.586023193359375,0.00027509848587214947,0.000626646913588047,-0.00014093797653913498
1783174130817091800,7.596091796875,0.000014627701602876186,0.0015816767700016499,-0.0022939087357372046
1783174130827160000,7.60616015625,0.0016250412445515394,-0.0023432900197803974,0.002974090166389942
1783174130837229000,7.61622900390625,-0.000007877242751419544,-0.0009938147850334644,0.0030274391174316406
1783174130847297000,7.626297119140625,-0.0006848527700640261,0.0016352576203644276,0.0004449719563126564
1783174130857366000,7.636365966796875,0.0001642247079871595,0.0006475117988884449,0.0009309599408879876
1783174130867434000,7.64643408203125,0.0009099097806029022,-0.0006699543446302414,-0.0008360473439097404
1783174130877503200,7.656503173828125,-0.0011625613551586866,0.0005227089859545231,0.0014257136499509215
1783174130887571200,7.6665712890625,-0.0009580305777490139,-0.0007023457437753677,0.001763668842613697
1783174130897640000,7.676639892578125,-0.00033774442272260785,-0.001505859661847353,0.0015310242306441069
1783174130907708200,7.686708251953125,0.001369341742247343,0.00005049165338277817,0.0012695018667727709
1783174130917777200,7.696777099609375,0.0022937250323593616,0.00014130538329482079,0.002084695501253009
1783174130927845000,7.70684521484375,0.0003371005295775831,-0.0011788238771259785,0.0004055723547935486
1783174130937914000,7.7169140625,-0.0015153943095356226,0.002431623637676239,0.00023805955424904823
1783174130947982000,7.726982177734375,-0.0003973992425017059,0.00020894967019557953,-0.0016056469175964594
1783174130958051000,7.737051025390625,0.00011209800140932202,0.0006374064832925797,0.0013307870831340551
1783174130968119000,7.747119140625,0.0016010713297873735,0.0007508574053645134,-0.0017685997299849987
1783174130978188000,7.75718798828125,0.0009619498741813004,-0.0006904536858201027,0.0020672623068094254
1783174130988256000,7.767256103515625,0.0002857733052223921,-0.0004441114142537117,0.00014259573072195053
1783174130998325000,7.777324951171875,-0.000032675627153366804,-0.0008541624993085861,0.003067387267947197
1783174131008393000,7.78739306640625,0.0009292581817135215,-0.003200939856469631,0.000788786681368947
1783174131018462000,7.7974619140625,-0.001154052559286356,-0.0004914072342216969,0.00004564179107546806
1783174131028530200,7.8075302734375,-0.0006810752092860639,0.0012521645985543728,0.0012999905738979578
1783174131038599000,7.817598876953125,-0.0003400769201107323,-0.0002038930542767048,0.0003219461068511009
1783174131048667000,7.8276669921875,-0.000690282613504678,0.0012131747789680958,-0.0032964907586574554
1783174131058736000,7.837736083984375,0.0006137766758911312,-0.0012699714861810207,0.00010628299787640572
1783174131068804400,7.847804443359375,-0.0005462962435558438,0.0004743989557027817,-0.0015786988660693169
1783174131078873000,7.857873046875,0.0008821288356557488,-0.0023492835462093353,-0.0001668690238147974
1783174131088941000,7.867941162109375,0.0003913082182407379,0.0006648818962275982,0.0020259779412299395
1783174131099010300,7.87801025390625,0.0018695567268878222,-0.0012936913408339024,0.0005110381171107292
1783174131109078300,7.888078369140625,-0.002237037755548954,0.00008848868310451508,0.0007411350961774588
1783174131119147300,7.898147216796875,0.0012554149143397808,-0.0020855474285781384,-0.0007912507280707359
1783174131129215200,7.90821533203125,-0.0010671280324459076,-0.0022117807529866695,0.0028953631408512592
1783174131139284200,7.9182841796875,-0.0008560576243326068,-0.0011639362201094627,-0.0006034234538674355
1783174131149352200,7.928352294921875,0.0009333203197456896,0.0005418183282017708,-0.0016266100574284792
1783174131159421200,7.938421142578125,0.0012244026875123382,0.001893816515803337,0.00275700306519866
1783174131169489200,7.9484892578125,0.0013567617861554027,-0.000979467760771513,0.0008453859481960535
1783174131179558400,7.958558349609375,-0.002041543833911419,-0.0032957387156784534,0.000534075079485774
1783174131189626000,7.968626220703125,-0.0008979825070127845,0.001611135434359312,0.000637405551970005
1783174131199695000,7.978695068359375,-0.0018651480786502361,-0.0020238077268004417,-0.0009485695045441389
1783174131209763300,7.988763427734375,-0.00018389447359368205,-0.0000022025778889656067,0.0006237607449293137
1783174131219832000,7.99883203125,0.000528514152392745,-0.0009273351170122623,0.0008284561336040497
1783174131229900000,8.008900146484375,0.0002523444127291441,0.002139028161764145,0.0006223274394869804
1783174131239969300,8.01896923828125,-0.0005885417922399938,-0.00040705641731619835,-0.000790794612839818
1783174131250037200,8.029037353515625,-0.0007336841081269085,-0.002181787509471178,0.0008379947394132614
1783174131260106000,8.03910595703125,-0.00017896812641993165,-0.0015168385580182076,0.00006890948861837387
1783174131270174200,8.04917431640625,-0.001810154179111123,-0.0014920709654688835,0.0008044745773077011
1783174131280243200,8.0592431640625,0.0012106839567422867,0.0007660784758627415,0.0009210696443915367
1783174131290311200,8.069311279296874,0.0009504931513220072,0.00037086568772792816,-0.0017716526053845882
1783174131300380200,8.079380126953126,-0.002448461716994643,0.0025905449874699116,0.0009946839418262243
1783174131310448000,8.0894482421875,-0.0012231413275003433,0.00007891794666647911,0.0025963089428842068
1783174131320517400,8.099517333984375,0.0007164906710386276,-0.0003112694248557091,0.0010147015564143658
1783174131330585300,8.10958544921875,0.0023548672907054424,0.0027343216352164745,0.0003265407867729664
1783174131340654000,8.119654052734376,-0.002570250304415822,-0.0013604308478534222,-0.0008499561809003353
1783174131350723300,8.129723388671875,0.0009632317814975977,-0.0021505909971892834,0.0009229100542142987
1783174131360791300,8.139791259765625,-0.0020091990008950233,0.0017829150892794132,-0.0026589888148009777
1783174131370860000,8.149860107421874,-0.0005252856644801795,-0.0012283208779990673,0.0008105775341391563
1783174131380928300,8.15992822265625,0.0005012441542930901,-0.0023681800812482834,-0.004022576846182346
1783174131390997200,8.169997314453125,-0.000676938274409622,0.0007748827338218689,-0.0006478193681687117
1783174131401065200,8.180065185546875,-0.0003156482125632465,-0.0006927372887730598,-0.0008067253511399031
1783174131411134200,8.19013427734375,0.00045400537783280015,-0.0013753054663538933,0.0012665454996749759
1783174131421202200,8.2002021484375,-0.0006338413222692907,-0.0003161025233566761,-0.0012970729731023312
1783174131431271200,8.210271240234375,0.001629312988370657,0.0020064404234290123,-0.0014539333060383797
1783174131441339100,8.220339111328125,0.002207777462899685,0.0005323518998920918,-0.0017143103759735823
1783174131451408100,8.230408203125,0.0004429006075952202,0.00027695484459400177,-0.0017425401601940393
1783174131461476000,8.24047607421875,-0.0008681174367666245,-0.0017508217133581638,0.0030136469285935163
1783174131471545300,8.25054541015625,0.0012741293758153915,0.0003765113651752472,0.0014058967353776097
1783174131481613000,8.260613037109374,-0.0016867112135514617,0.0028304485604166985,-0.0019615308847278357
1783174131491682300,8.270682373046874,-0.0002233041450381279,0.002382504753768444,-0.00012288452126085758
1783174131501750300,8.280750244140625,-0.0006648471462540329,0.0016978862695395947,0.0014897685032337904
1783174131511819000,8.290819091796875,-0.0005311564891599119,-0.0013399813324213028,-0.0010263861622661352
1783174131521887200,8.30088720703125,0.0018679526401683688,-0.0003436668775975704,-0.0009284967090934515
1783174131531956200,8.310956298828126,-0.0022921711206436157,0.000381512101739645,0.0002576753031462431
1783174131542024200,8.321024169921875,-0.00017991731874644756,-0.0003860592842102051,0.0011607474880293012
1783174131552093200,8.33109326171875,0.0004781497991643846,0.0025048023089766502,-0.0007620546966791153
1783174131562161200,8.3411611328125,-0.00032824091613292694,-0.001170535571873188,-0.00000784662552177906
1783174131572230100,8.351230224609376,-0.0005945570301264524,0.00011230958625674248,-0.0019924344960600138
1783174131582298400,8.36129833984375,-0.000027761096134781837,-0.0009203795343637466,0.0016113744350150228
1783174131592368000,8.3713681640625,-0.00045972579391673207,0.0002671238034963608,0.0014473237097263336
1783174131602437400,8.381437255859375,0.0023696431890130043,-0.001558840274810791,0.0011163094313815236
1783174131612505000,8.391505126953126,0.0010545742698013783,-0.00005761627107858658,-0.0024195697624236345
1783174131622574000,8.401573974609375,0.0011934703215956688,-0.00228146743029356,-0.0002422782126814127
1783174131632642300,8.411642333984375,-0.0024955403059720993,0.00010712211951613426,0.00008049700409173965
1783174131642711000,8.4217109375,0.0018217233009636402,0.0001793811097741127,-0.0005650485400110483
1783174131652779000,8.431779052734376,0.0010906856041401625,-0.0012909499928355217,0.0011513588251546025
1783174131662848300,8.44184814453125,0.0011090099578723311,-0.000003407709300518036,0.0013559004291892052
1783174131672917200,8.451917236328125,-0.001610343810170889,0.0017673280090093613,-0.0027339160442352295
1783174131682985000,8.46198486328125,-0.0003864423488266766,0.000015877187252044678,-0.0014111739583313465
1783174131693054200,8.47205419921875,0.0003118384047411382,0.0003162818029522896,0.00023758923634886742
1783174131703122200,8.4821220703125,0.0003256095224060118,-0.001315005123615265,0.0013793687103316188
1783174131713191200,8.492191162109375,-0.0018523236503824592,0.001956688240170479,-0.00009282678365707397
1783174131723259100,8.502259033203124,0.0002625584020279348,0.001879919320344925,-0.0005731137935072184
1783174131733328100,8.512328125,0.0025376968551427126,0.0016053477302193642,-0.0009203900117427111
1783174131743396400,8.522396240234375,-0.0004279185086488724,0.029333675280213356,0.010875701904296875
1783174131753465000,8.532465087890625,-0.00015947187785059214,0.013447386212646961,0.007608535699546337
1783174131763533000,8.542532958984374,0.001125628361478448,0.03262016922235489,0.01246512308716774
1783174131773602300,8.552602294921876,0.0005514508811756968,0.018216464668512344,0.008330033160746098
1783174131783670300,8.562670166015625,-0.00029834196902811527,0.025455906987190247,0.009712842293083668
1783174131793739000,8.572739013671875,-0.0015098139410838485,0.029356639832258224,0.010557863861322403
1783174131803807200,8.58280712890625,0.0012669310672208667,0.034050099551677704,0.011194122955203056
1783174131813876200,8.592876220703126,0.0007404241478070617,0.01233361754566431,0.0036315438337624073
1783174131823944200,8.602944091796875,-0.0007914862362667918,-0.04422900080680847,-0.019246676936745644
1783174131834013200,8.61301318359375,0.0009145347285084426,-0.08649097383022308,-0.03470419719815254
1783174131844081200,8.6230810546875,-0.001915586180984974,-0.06804612278938293,-0.02309522032737732
1783174131854150400,8.633150390625,-0.0003216844634152949,0.03548559546470642,0.013260656967759132
1783174131864218000,8.643218017578125,-0.0011876476928591728,-0.028090495616197586,-0.009587517939507961
