time,seconds_elapsed,z,y,x
1783170417433900300,0.066900390625,5.006700034278631,1.7925944878950715,0.41576749752461906
1783170417443970300,0.07697021484375,5.152912339764833,2.304092057903111,1.0444044232696295
1783170417454040300,0.087040283203125,5.209014166215062,2.7420322242692112,1.3630425029069184
1783170417464111400,0.097111328125,5.1068707195580005,2.816321157056093,1.1090806013196706
1783170417474181400,0.107181396484375,4.451051187855005,2.453247431103885,0.8339818036794662
1783170417484251100,0.117251220703125,3.6691666511595247,2.1578648471087214,0.10836977382600307
1783170417494321400,0.1273212890625,2.7021348059058186,1.9032152555182575,0.2723334245800972
1783170417504392400,0.137392333984375,1.7818313940793276,1.8448980911061166,0.19471534737050533
1783170417514462200,0.147462158203125,0.9114783003360033,2.059203397348523,-0.02864449520409107
1783170417524532200,0.1575322265625,-0.03477203817367554,2.2535635015405715,-0.07737433158159256
1783170417534602500,0.1676025390625,-0.6822714852988719,2.2548167164720594,-0.12398644515275954
1783170417544673300,0.17767333984375,-0.975036288011074,2.2462144539520144,-0.1644137326091528
1783170417554743300,0.187743408203125,-1.194944528827071,1.9938412828609346,-0.48681554869413374
1783170417564813300,0.197813232421875,-1.3830150313556193,1.6458111045226453,-1.0044365700185298
1783170417574883300,0.20788330078125,-1.6294675802260636,1.4004660785026848,-1.2189999426752327
1783170417584953300,0.217953369140625,-2.1229706438601017,1.0256826255343854,-0.8646019828706979
1783170417595024400,0.2280244140625,-2.868746340820193,0.6226524445079267,-0.584606645360589
1783170417605094100,0.23809423828125,-3.3099837951660156,0.6357371131390332,-0.6402332555145025
1783170417615164200,0.2481640625,-3.620214111942053,0.6467256862737238,-0.7816472208082675
1783170417625234400,0.258234375,-3.704977969253063,0.47770036821588874,-0.8701011648088693
1783170417635305500,0.268305419921875,-3.7289679166495797,0.33361279979869723,-1.1207821450293063
1783170417645375200,0.278375244140625,-3.8585821385562418,0.1662432861238718,-1.5424889694750308
1783170417655445200,0.2884453125,-3.947747737957537,-0.09742606274634599,-2.103456380572915
1783170417665515500,0.298515625,-3.6364527145594354,-0.567163343128562,-2.3379186319202185
1783170417675585300,0.308585205078125,-3.2159003208458423,-1.3196636721685528,-1.6783932314366101
1783170417685656300,0.31865625,-2.754136211299896,-1.8514818534106015,-1.0310784932285546
1783170417695726300,0.328726318359375,-2.428552550308406,-1.8469363189354537,-1.1584779616951941
1783170417705796400,0.33879638671875,-2.335979188290238,-1.3681637914434075,-1.2178081025421619
1783170417715866400,0.348866455078125,-2.1411413835838435,-1.0214306671783326,-1.3675684558987617
1783170417725937400,0.3589375,-1.9671815317332744,-0.8358388297230005,-1.4384078327536582
1783170417736007200,0.369007080078125,-2.098892433658242,-1.1460016342207788,-1.7200106054604052
1783170417746077200,0.3790771484375,-1.8936445863574742,-1.6372195095270872,-2.188664474520087
1783170417756147500,0.3891474609375,-1.3470301102608442,-2.0981714259073136,-2.4068156425356864
1783170417766217200,0.39921728515625,-0.9887433263242245,-1.9811483900263904,-2.411372575187683
1783170417776288300,0.409288330078125,-0.9288578896820545,-0.996468952140212,-2.3691905530184507
1783170417786358300,0.419358154296875,-1.457505916455388,-1.9073069087460637,-2.9109318701207636
1783170417796428300,0.42942822265625,-1.352173902890086,-2.304705513626337,-2.937615294384956
1783170417806498300,0.439498291015625,-0.9761100547224283,-2.091656929446757,-2.276390688768029
1783170417816569300,0.4495693359375,-0.7459872938841581,-2.0988763593062756,-1.154423717868328
1783170417826639400,0.459639404296875,-0.5169824311599135,-2.403364040777087,-0.4325263246238231
1783170417836709400,0.46970947265625,-0.42060646198838947,-2.74867414650172,0.2159130336999893
1783170417846779400,0.479779296875,-0.5105655498549342,-2.950633473651111,0.8469330551892519
1783170417856849200,0.48984912109375,-0.6795857533462345,-3.041201925587654,1.0739666178405285
1783170417866920200,0.499920166015625,-0.429783163395524,-3.2293247428253293,1.1547329299479723
1783170417876990200,0.509990234375,-1.0209145343497394,-2.679706116476655,0.006993219888210296
1783170417887060500,0.520060546875,-1.630750021252036,-1.2077508189082145,-1.6213620151817798
1783170417897130200,0.530130126953125,-1.6534224563091993,-0.46882454945147034,-2.2766209903925656
1783170417907201300,0.540201171875,-1.4534347214937209,-0.6956465151786804,-2.532297294682264
1783170417917271300,0.550271240234375,-1.2102569565102457,-1.0660317331880331,-2.754156669566035
1783170417927341300,0.56034130859375,-1.286973408704996,-1.4732605349481105,-3.1510446945756674
1783170417937411300,0.570411376953125,-1.4685057416364549,-1.8210130653887986,-3.3093151021242138
1783170417947481300,0.5804814453125,-1.6287823744408785,-1.9725603021621703,-3.587967792853713
1783170417957552000,0.59055224609375,-1.822799072022736,-2.003488524389267,-3.7571985703557726
1783170417967619600,0.60061962890625,-1.9441025617018342,-2.0930840396404267,-3.9716678349882364
1783170417977689600,0.610689697265625,-1.791935877855867,-2.2834745095491407,-4.1445881146579975
1783170417987759600,0.620759521484375,-1.4810479739539324,-2.409392215025425,-4.085582383459807
1783170417997829600,0.63082958984375,-1.1870983453713357,-2.375752980273962,-3.7876001383602618
1783170418007900400,0.640900390625,-1.0343510851584374,-2.1734563839942216,-3.413583285850286
1783170418017970700,0.650970703125,-1.1887253620512783,-1.9728893879860638,-3.104679249241948
1783170418028040700,0.661040771484375,-1.382791013341397,-1.9461422508358954,-2.672079859381914
1783170418038110500,0.6711103515625,-1.5235703339934348,-1.9493559521853923,-2.3644915815472602
1783170418048181500,0.681181396484375,-1.6151538081914185,-1.8237848681896924,-1.8644068014353512
1783170418058251500,0.69125146484375,-1.9239706049077212,-2.1584897010087967,-2.0703373703032733
1783170418068321500,0.701321533203125,-2.342621841175109,-2.197426457646489,-2.4542075083076953
1783170418078391600,0.7113916015625,-2.243851085821539,-1.9353098911762237,-2.190947617021203
1783170418088462600,0.721462646484375,-2.1490679387994107,-1.8093220430731771,-1.8812240807235239
1783170418098532400,0.731532470703125,-2.267039069185406,-1.6845383100628852,-1.677529892605543
1783170418108602600,0.7416025390625,-2.1074825673490762,-1.5297925695091485,-1.6100667141854763
1783170418118672600,0.751672607421875,-1.9871191349990664,-1.4710487041175364,-1.6751953121781349
1783170418128742400,0.761742431640625,-1.8937759576521813,-1.5657237145900726,-1.693641653972864
1783170418138813400,0.7718134765625,-1.680226876604557,-1.7837807745814322,-1.68217917971611
1783170418148883500,0.781883544921875,-1.2679174105793236,-1.8907278221279382,-1.6021756686747073
1783170418158953700,0.79195361328125,-0.8411766836196184,-1.9163900866508483,-1.581437416550517
1783170418169023500,0.8020234375,-0.6176606275700033,-1.7508043876528738,-1.4977484949946402
1783170418179093500,0.812093505859375,-0.8020698311120271,-1.3919938721030949,-1.410962776467204
1783170418189164500,0.82216455078125,-1.133561547103524,-0.8747241484344005,-1.228464521113038
1783170418199234600,0.832234619140625,-1.5778180570095777,-0.26581775907576083,-1.0993430511593818
1783170418209304600,0.8423046875,-1.9813515113830564,0.2520119365632534,-0.9222270733654498
1783170418219374600,0.85237451171875,-1.8415359211966393,0.75413377546072,-0.5630202519744635
1783170418229445400,0.8624453125,-1.4592214882016181,0.8887614416152239,-0.4710270279318094
1783170418239515600,0.872515625,-0.888309898455441,0.985735961201787,-0.27443594981729985
1783170418249585700,0.882585693359375,-0.3781295485258102,0.8969622837275266,-0.14194646473526953
1783170418259655400,0.892655517578125,-0.033708792856335636,0.7694552632331848,0.0055085342884063715
1783170418269725400,0.902725341796875,0.24350363593697547,0.6866226662456989,0.037891631498932835
1783170418279796500,0.91279638671875,0.25670214020609855,0.415853422242403,-0.2384440144598484
1783170418289866500,0.922866455078125,0.23984335986375807,0.2468570380181074,-0.41890170389711856
1783170418299936500,0.9329365234375,0.013808306730538606,0.13679098166823386,-0.5860299561619758
1783170418310006500,0.943006591796875,-0.26249562891572714,0.005849895071983337,-0.6009229893893003
1783170418320076500,0.95307666015625,-0.5153273574292659,0.051555415192246434,-0.5196165790557861
1783170418330147600,0.963147705078125,-0.5938260168656706,0.25366087281405925,-0.29201661469340323
1783170418340217600,0.973217529296875,-0.5497234018974005,0.4408101688444614,0.06004267303049564
1783170418350287600,0.98328759765625,-0.4753733865730464,0.5871861404597759,0.35155192272365093
1783170418360357600,0.993357666015625,-0.42883623793423176,0.6909294235289096,0.5727770913571119
1783170418370428700,1.0034287109375,-0.39869361312687396,0.7476637026637792,0.7573433851569891
1783170418380498700,1.013498779296875,-0.31425416546463963,0.7737421467721461,0.9060767335534096
1783170418390568400,1.023568359375,-0.20817104127109048,0.7252043258354067,0.9488058682113886
1783170418400638500,1.033638427734375,-0.10226707303673029,0.7471753346249461,0.9893693492680787
1783170418410708700,1.043708740234375,-0.053257542935013766,0.7649950689539313,1.0162930120289324
1783170418420779500,1.053779541015625,-0.04459785113930702,0.7261883684366941,1.0818237610816954
1783170418430849500,1.063849609375,-0.05275193150043487,0.7321554601475596,1.1689064167290926
1783170418440919600,1.07391943359375,0.02960048075467348,0.7288073187634349,1.243526481166482
1783170418450989600,1.083989501953125,0.1070157288685441,0.7045309556409716,1.3199515491992235
1783170418461060600,1.094060546875,0.15961422337293624,0.7154223520115017,1.3935130444943904
1783170418471130600,1.104130615234375,0.1889905399829149,0.7641112718567251,1.4614549463421105
1783170418481200400,1.114200439453125,0.1476122354120016,0.8328104218125343,1.5281693522214888
1783170418491270700,1.124270751953125,0.086025255548954,0.9213704565361142,1.5694763451218605
1783170418501340700,1.134340576171875,0.023828034833073615,0.9288906229078769,1.5626672496289014
1783170418511411700,1.14441162109375,-0.06288140358775854,0.9254398979321121,1.5216577783703804
1783170418521481500,1.1544814453125,-0.15465250931233165,0.8628542624205351,1.3998247118592262
1783170418531551500,1.164551513671875,-0.13647300176024435,0.8013032306537031,1.349986621978879
1783170418541621500,1.17462158203125,-0.009268179082870483,0.8043307617813348,1.3189444179832934
1783170418551691500,1.18469140625,0.03784136261641979,0.8810542282387613,1.2098206109195946
1783170418561762600,1.194762451171875,0.01302227091938257,1.0411901373982428,1.0837088441759348
1783170418571832600,1.20483251953125,0.06467588578909635,1.1536205847918986,1.026980410259962
1783170418581902600,1.214902587890625,0.10114245292097329,1.1940507948577403,0.9642302318364381
1783170418591972600,1.22497265625,0.13736176729351282,1.2409341265857219,0.8958084375172853
1783170418602042600,1.235042724609375,0.14976619857549667,1.281326050467789,0.7907517337620258
1783170418612113400,1.245113525390625,0.10115443561971187,1.290892043453455,0.6657312693864107
1783170418622183700,1.25518359375,0.051120530906319614,1.3295254332304,0.5612275233387947
1783170418632253700,1.265253662109375,-0.07190028408467769,1.3824755176514387,0.45851124522984027
1783170418642323500,1.275323486328125,-0.23905688566118477,1.4494497435107827,0.3342810544490814
1783170418652394500,1.28539453125,-0.36223639834523197,1.465609435673058,0.24583938540816305
1783170418662464500,1.295464599609375,-0.3547024957090616,1.4898060115575789,0.21436872686743735
1783170418672534500,1.305534423828125,-0.30782325563430785,1.5204673995420337,0.25167817456424235
1783170418682604500,1.3156044921875,-0.2629419113785028,1.5506576628834008,0.29348727176785466
1783170418692674600,1.325674560546875,-0.09260974850580096,1.6833806644603608,0.07481997092366219
1783170418702745300,1.335745361328125,0.022408523423969744,1.9749346300780772,-0.057060442349314684
1783170418712815600,1.345815673828125,-0.02777355758845806,2.103519508937001,-0.0013905775755643844
1783170418722885600,1.3558857421875,-0.1777852553576231,2.0486799575075505,-0.11808978832960128
1783170418732955400,1.365955322265625,-0.3219235310487449,2.0128630864560604,-0.31387539528012276
1783170418743025700,1.376025634765625,-0.46750002284944053,1.91224641097486,-0.3387415409892797
1783170418753096700,1.3860966796875,-0.5865548568189144,1.7722364672601223,-0.3248316735804081
1783170418763166700,1.396166748046875,-0.6783844147324561,1.7035925546228885,-0.4064467114716768
1783170418773236500,1.406236572265625,-0.7756605476140975,1.5112246471613644,-0.30459903289079665
1783170418783306500,1.416306396484375,-0.8899830923646688,1.0975000536412,-0.14037410085201263
1783170418793376500,1.42637646484375,-0.9894003289282322,0.6385726288259029,-0.08130407224595547
1783170418803447600,1.436447509765625,-1.0672399399340151,0.16945815651714802,-0.07576105116605758
1783170418813517600,1.446517578125,-1.0832720601938663,-0.27944997858703136,-0.046530865028500554
1783170418823587600,1.456587646484375,-1.1027180805504322,-0.7043740115135908,0.0683054744631052
1783170418833657600,1.46665771484375,-1.0858141458921133,-1.0329507168412209,0.30271336527466775
1783170418843727600,1.4767275390625,-0.9321744668841362,-1.290571140936017,0.4775719195306301
1783170418853798700,1.486798583984375,-0.7795217530868948,-1.5112059424608946,0.6195470258384943
1783170418863868400,1.496868408203125,-0.6059381872028112,-1.6661778929859399,0.6102367611795664
1783170418873938700,1.506938720703125,-0.4619936805181205,-1.7259873417824505,0.6440764869391917
1783170418884008700,1.5170087890625,-0.3416898694008589,-1.7387883711665868,0.6113841776490211
1783170418894078500,1.527078369140625,-0.18908260218054054,-1.6690408812016249,0.49388534094989295
1783170418904149500,1.5371494140625,-0.060305123358964915,-1.5398901851534843,0.3142383833736181
1783170418914219500,1.547219482421875,0.10804536417722702,-1.280524378696084,0.10186696780323981
1783170418924289500,1.55728955078125,0.258700620546937,-0.9769728090316057,-0.09544541032314299
1783170418934359600,1.567359619140625,0.3410577089771628,-0.6637754591435193,-0.2162356897830963
1783170418944430600,1.5774306640625,0.36716771726757286,-0.3700666535794735,-0.22569150039255617
1783170418954500600,1.58750048828125,0.3111877636313438,-0.1710270132690668,-0.28590543833673
1783170418964570600,1.597570556640625,0.266596926754713,-0.09578384849727153,-0.37452830916345115
1783170418974642000,1.607641845703125,0.1774140839576721,-0.01453296774327755,-0.5196124874025583
1783170418984712000,1.6177119140625,0.08803557245805858,0.018483166673779486,-0.6233738906502724
1783170418994783000,1.627782958984375,0.05914075575470924,-0.0007639701098203659,-0.6607610797584057
1783170419004852700,1.637852783203125,0.05337444731295109,-0.10371639506220817,-0.7219593525648117
1783170419014922800,1.6479228515625,0.058061728346347805,-0.3000567132860422,-0.7354553784757852
1783170419024993000,1.657992919921875,0.035188510020077224,-0.5284264929771423,-0.7118272501289844
1783170419035062800,1.668062744140625,-0.03850479496121406,-0.7556383348047733,-0.6446621778726578
1783170419045133800,1.6781337890625,-0.1542861602179706,-0.9798521638602018,-0.5776362218260764
1783170419055203800,1.688203857421875,-0.2421402386292815,-1.156928394165635,-0.4822153614223003
1783170419065273900,1.69827392578125,-0.29847178218215703,-1.2732014884620904,-0.4454781606554985
1783170419075344000,1.70834375,-0.42318946421891446,-1.3715788605839012,-0.40152620620429513
1783170419085414000,1.718413818359375,-0.5115903628580272,-1.4438848028600215,-0.28752281040549277
1783170419095484700,1.728484619140625,-0.5414852965146303,-1.464717747530341,-0.15862404329180715
1783170419105555000,1.738554931640625,-0.5554582922875881,-1.5039672233790158,-0.0051245034068822855
1783170419115625000,1.748625,-0.5163970324873924,-1.5598405017703771,0.07645663221478462
1783170419125694700,1.75869482421875,-0.4290354137681424,-1.6000883410066364,0.15135609811544418
1783170419135764700,1.7687646484375,-0.2732636911675334,-1.6567121455043554,0.13291443249583243
1783170419145835800,1.778835693359375,-0.06698737760186195,-1.6954121707767247,0.12139701318144798
1783170419155906000,1.788906005859375,0.061896776464581485,-1.6913339615523815,0.06785597712993621
1783170419165975800,1.798975830078125,0.1848819356203079,-1.6456804638803004,-0.0260550632327795
1783170419176045800,1.8090458984375,0.2223008350409567,-1.5919605641305445,-0.207765383079648
1783170419186115800,1.81911572265625,0.20545959035530686,-1.5189198778390884,-0.3751584237605333
1783170419196187000,1.829186767578125,0.09271218596696854,-1.4367816928565502,-0.47050212727487084
1783170419206257000,1.8392568359375,-0.09486176521629094,-1.406016552236676,-0.6030506490677595
1783170419216327000,1.849326904296875,-0.26541429284140466,-1.4240432073146103,-0.8008353208810091
1783170419226396700,1.859396728515625,-0.42044352651163935,-1.4689543621867893,-0.9652034607827663
1783170419236467000,1.869467041015625,-0.5034175777964294,-1.4692173970371485,-1.1623322990357876
1783170419246538000,1.8795380859375,-0.46173955962657925,-1.4639491012454031,-1.2782044113159179
1783170419256607700,1.889607666015625,-0.432127388434112,-1.4244009347110986,-1.2513345245689154
1783170419266677800,1.899677734375,-0.5299278374508023,-1.4049281724780798,-1.3273428284943103
1783170419276748000,1.909748046875,-0.6532800763532519,-1.493319572636485,-1.4293155947595835
1783170419286817800,1.91981787109375,-0.7456289819657802,-1.6016332323610782,-1.5378852750718592
1783170419296888800,1.929888916015625,-0.8641329040542245,-1.6959423321306704,-1.6099755287706852
1783170419306958800,1.939958740234375,-0.9408598776429891,-1.7782430141985415,-1.648749203801155
1783170419317028900,1.95002880859375,-1.0421253724217414,-1.794091156193614,-1.5952321331471204
1783170419327099000,1.960098876953125,-1.1541476774059236,-1.732476703801751,-1.5137304925024508
1783170419337169000,1.9701689453125,-1.1334935964338482,-1.6387889508008957,-1.4865934792518616
1783170419347239700,1.98023974609375,-1.1060988090299069,-1.6094973898649214,-1.4631827930480241
1783170419357309700,1.990309814453125,-1.011665790619701,-1.578237159204483,-1.3868898269623517
1783170419367380000,2.0003798828125,-0.8859270949721336,-1.5995815605282782,-1.4093728769272564
1783170419377449700,2.01044970703125,-0.9337564753785729,-1.6291045921325682,-1.5204419728398322
1783170419387519700,2.020519775390625,-0.8453335110381245,-1.4752391415446995,-1.727118391638994
1783170419397590800,2.0305908203125,-0.6219622702866793,-1.041962290814519,-1.983683753722906
1783170419407661000,2.0406611328125,-0.517451509976387,-0.41719665354490276,-1.898510731089115
1783170419417730800,2.050730712890625,-0.5838156411133706,0.03966331734657287,-1.7189567124933003
1783170419427800800,2.06080078125,-0.7676423685923218,0.25126433306634427,-1.6332587892025707
1783170419437870800,2.070870849609375,-1.1579887168735266,0.3851426421582699,-1.52639532828629
1783170419447940900,2.08094091796875,-1.4738187533527611,0.39995676493048665,-1.4877245291084051
1783170419458012000,2.091011962890625,-1.6897937463730572,0.35883214285969733,-1.4720207640200853
1783170419468082000,2.10108203125,-1.8547239040717483,0.257615163397789,-1.4320096561491489
1783170419478151700,2.111151611328125,-1.8864345088481902,0.05981470949351787,-1.2994324927836656
1783170419488222000,2.121221923828125,-1.8168863408476112,-0.09511573997735977,-1.1530033296763895
1783170419498291700,2.131291748046875,-1.7229827531389892,-0.2495627898454666,-0.9921288771092891
1783170419508362800,2.14136279296875,-1.699623504861444,-0.3906394860088825,-0.8706950390487909
1783170419518432800,2.151432861328125,-1.68316336844787,-0.47038756098449225,-0.7368722595363855
1783170419528503000,2.1615029296875,-1.6670802486531435,-0.5096452201396227,-0.6628501609921456
1783170419538572800,2.17157275390625,-1.6004178652219474,-0.5725204862475395,-0.6501818180769682
1783170419548642800,2.181642822265625,-1.3716617165617644,-0.5756500164449214,-0.6223048001140356
1783170419558713900,2.1917138671875,-1.0076035096168519,-0.5138000017315149,-0.49490123999416824
1783170419568784000,2.201783935546875,-0.5982984861046076,-0.37477731548845766,-0.3535778755933046
1783170419578854000,2.21185400390625,-0.20889994006752965,-0.14642624049782751,-0.12276187179386615
1783170419588924000,2.221923828125,0.13008943820297716,0.18637831165790555,0.1063730470508337
1783170419598993700,2.23199365234375,0.45571898416280743,0.5687076499611139,0.3194599174141884
1783170419609064700,2.242064697265625,0.6007467560395598,0.9073319943115115,0.4846405427426099
1783170419619135000,2.252135009765625,0.6018710838943719,1.1708414764449,0.5711708252042532
1783170419629204700,2.262204833984375,0.6026838615819812,1.2620844666421414,0.6305711086779833
1783170419639274800,2.272274658203125,0.7489590031713247,1.319918815973401,0.6245183845102786
1783170419649345000,2.282344970703125,0.8898007215350866,1.3328946174025535,0.5617722977399826
1783170419659416000,2.292416015625,1.0003098454773425,1.3597133584842085,0.5743120458394289
1783170419669485800,2.30248583984375,1.1289604830488562,1.4482374451115727,0.5871726964563131
1783170419679555800,2.312555908203125,1.0782044015407561,1.6072580865055321,0.6423609151929617
1783170419689625900,2.3226259765625,0.8452373571872711,1.8543217530116438,0.7445312498569489
1783170419699695900,2.33269580078125,0.5851584340244531,2.1433482459783555,0.8649223008662462
1783170419709766000,2.342765869140625,0.41982670978754755,2.352460367491841,1.0370055451899767
1783170419719837000,2.3528369140625,0.3445706855341792,2.447071080556512,1.277903967064619
1783170419729906700,2.36290673828125,0.34952100141793485,2.3294027325093745,1.5271476079583166
1783170419739977000,2.37297705078125,0.47229456364959477,2.1219512376844882,1.6896575527727602
1783170419750046700,2.383046630859375,0.6024605742201209,1.9946318487167358,1.7739625604003666
1783170419760116700,2.39311669921875,0.7107701422914863,1.911194563834369,1.828386224505305
1783170419770187800,2.403187744140625,0.839498813535273,1.8448343782201408,1.9121727612167596
1783170419780258000,2.413258056640625,0.9471110469922422,1.852549482642114,1.9349200150758026
1783170419790327800,2.423327880859375,1.1199433561176062,1.8713728410556911,2.0336293956309555
1783170419800397800,2.433397705078125,1.1823565576717256,1.8464383062854408,2.1355314347475765
1783170419810467800,2.4434677734375,1.1018889362499118,1.8936743969738483,2.1534113748311996
1783170419820539000,2.453538818359375,0.8585843300163746,1.9065762563839554,2.1377824285447597
1783170419830609000,2.46360888671875,0.6035740884199738,1.823569179612398,2.095638400298357
1783170419840679000,2.473678955078125,0.466010953335464,1.6988561737507581,2.013337133708596
1783170419850748700,2.483748779296875,0.5703752909123897,1.5199942290723323,1.820943507283926
1783170419860819000,2.49381884765625,0.8640238907217979,1.3512865986615419,1.686291875731945
1783170419870890000,2.503889892578125,1.2362111897170542,1.304023619966209,1.6060674154162407
1783170419880959700,2.513959716796875,1.4876567245692014,1.4213599595800042,1.5795821440726519
1783170419891029800,2.52402978515625,1.5842577346682547,1.6350743141919373,1.567315367695689
1783170419901100000,2.53410009765625,1.4840145686745643,1.904493897151947,1.5397762033849953
1783170419911169800,2.544169677734375,1.1993167525619268,2.1928093192398546,1.4366928455293178
1783170419921240800,2.55424072265625,0.9854930923566222,2.4627999800860882,1.3138643382400272
1783170419931310800,2.564310791015625,0.7981587951481341,2.745079629141092,1.1395458822101354
1783170419941380900,2.574380859375,0.6219155085355043,2.8625819729715585,0.905326207447052
1783170419951451000,2.584450927734375,0.5891869588881731,2.902115526458621,0.7104694057792424
1783170419961521000,2.59452099609375,0.5702887816727161,2.9280989857599136,0.41665830888450145
1783170419971590100,2.604590087890625,0.43381081147640943,2.8998370601326227,0.11298866579830646
1783170419981661200,2.6146611328125,0.26539807235896584,2.740557475541532,-0.18531857347190378
1783170419991731200,2.624731201171875,0.256578221565485,2.5307635092437266,-0.41498073106110095
1783170420001801000,2.634801025390625,0.34297640208005903,2.332232695238292,-0.8155079893559217
1783170420011871000,2.64487109375,0.5555550306603312,2.3442355599820615,-1.1661445508003234
1783170420021941000,2.65494091796875,0.7462617269113659,2.5177979369476438,-1.2032745502769946
1783170420032012000,2.665011962890625,0.8897203497752547,2.4883535235375165,-0.9410136068999767
1783170420042082000,2.67508203125,0.8925207941487431,2.106748115594685,-0.7315478496432304
1783170420052152000,2.685152099609375,0.9899534327663481,1.5329513258010148,-0.6061047759413719
1783170420062222000,2.69522216796875,1.1677639686957002,0.9602452538534998,-0.5348252541035413
1783170420072292000,2.7052919921875,1.248675826753676,0.5332429533481597,-0.5267506687194109
1783170420082362000,2.715362060546875,1.3176381576903164,0.3393506127983332,-0.5206178650528193
1783170420092433000,2.725432861328125,1.2647284052796661,0.39753392169773577,-0.5025859492778778
1783170420102503200,2.735503173828125,1.0260209175780415,0.6501151825815439,-0.3314882088601589
1783170420112573200,2.7455732421875,0.8955804739803075,0.8582716108053922,-0.12701017688810826
1783170420122643000,2.755642822265625,0.648620121718198,0.9051765698432922,0.02273673246502876
1783170420132713000,2.765712890625,0.37720425037443633,0.8373305295854806,0.0829845726788044
1783170420142784000,2.775783935546875,0.05470394235104322,0.6782470520883798,0.13057576041519642
1783170420152854000,2.78585400390625,-0.20745032578110695,0.4177665623873472,0.1445060860902071
1783170420162924000,2.795924072265625,-0.2543167063742876,0.1719938124746084,0.09485095156133175
1783170420172994000,2.805994140625,-0.1872662004083395,-0.017937807750701903,0.10280804804563522
1783170420183064000,2.81606396484375,-0.09330912894681095,-0.1428366915732622,0.1075058504730463
1783170420193135000,2.826135009765625,0.11545344847664236,-0.2689601487547159,0.10905074182748795
1783170420203205000,2.836205078125,0.3125250035844743,-0.300403919288516,0.16843582773208618
1783170420213275000,2.84627490234375,0.4803920915178954,-0.18940379695892332,0.19041677339375018
1783170420223345200,2.85634521484375,0.6728432933486997,-0.08727028717398642,0.2498024438202381
1783170420233415200,2.866415283203125,0.7937561762750148,0.05192775563597679,0.38226796350479125
1783170420243485000,2.87648486328125,0.7115081011772155,0.20213351467251778,0.5966559795945883
1783170420253556000,2.886555908203125,0.4231435792505741,0.35908290275037286,0.82118077429533
1783170420263626000,2.8966259765625,0.04484159676730633,0.5806909332215786,1.0536509750425815
1783170420273696000,2.906696044921875,-0.30463688068315387,0.7905062345683574,1.1846283019959927
1783170420283766000,2.91676611328125,-0.4536269803196192,0.9313701647639274,1.269828212636709
1783170420293836000,2.9268359375,-0.5059568870157003,0.9757482356727123,1.323189800468087
1783170420303907000,2.936906982421875,-0.649169426164031,1.0310317314773798,1.2469085248202085
1783170420313977000,2.94697705078125,-0.7607710215181112,1.0845511402189731,1.086778168618679
1783170420324047000,2.957047119140625,-0.9506412669450044,1.1113023690223693,1.0329963095486163
1783170420334117000,2.9671171875,-1.1029518893063068,1.1139093366503714,1.0497580592572688
1783170420344187100,2.977187255859375,-1.2004824353404342,1.1447077950179576,1.1090122122585773
1783170420354257200,2.987257080078125,-1.4715116454541681,1.16007078384459,1.1998317163467407
1783170420364328200,2.997328125,-1.7161287955909967,1.1166624347507954,1.2967431075692175
1783170420374398000,3.00739794921875,-1.910860071182996,0.9412193586051464,1.2366776381850242
1783170420384468000,3.017468017578125,-1.9059863276667892,0.6668892072498798,1.1306313388705254
1783170420394538200,3.027538330078125,-1.7383501258797942,0.35895313889086244,1.0839034899652003
1783170420404608000,3.03760791015625,-1.447535726583004,0.06505903988778591,1.0438444512993097
1783170420414679000,3.047678955078125,-1.111126866324991,-0.1372650289207697,1.0562509284079074
1783170420424749000,3.0577490234375,-0.9495470419675112,-0.31938159148097034,1.0672060376644135
1783170420434819000,3.067819091796875,-0.8946567832641303,-0.3950304144442081,1.1200614295393228
1783170420444889000,3.07788916015625,-0.9193516640596091,-0.31776948010921474,1.1739993559539317
1783170420454959000,3.087958984375,-1.049050057118386,-0.23825579841136932,1.1665209828972816
1783170420465029000,3.098029052734375,-1.1566488465718925,-0.1914917091488838,1.1259855588912964
1783170420475100200,3.10810009765625,-1.1082890125505624,-0.1244675066679716,1.029043188008666
1783170420485170200,3.118170166015625,-1.035655738016218,-0.11736264309883117,0.8977192395746707
1783170420495240000,3.128239990234375,-0.9025666796058416,-0.22417641965448856,0.7831938657283782
1783170420505310000,3.13831005859375,-0.6938233914047479,-0.34956045664548874,0.6101672030746936
1783170420515380200,3.148380126953125,-0.4107854713283479,-0.37642742078304287,0.41820495380461215
1783170420525451000,3.158450927734375,-0.29557459943592546,-0.4102309061855077,0.3337935631930828
1783170420535521000,3.16852099609375,-0.26763781410977244,-0.4302110334187746,0.19951018043160437
1783170420545591000,3.178591064453125,-0.352670697620511,-0.42729894536435603,0.04217793051600456
1783170420555661000,3.1886611328125,-0.5478453330658376,-0.44822073736190793,-0.1912964788377285
1783170420565731000,3.19873095703125,-0.7053215214967727,-0.4821814591526985,-0.4261848466426134
1783170420575801000,3.208801025390625,-0.7977928844451904,-0.5407330168426037,-0.7042232048660516
1783170420585872100,3.2188720703125,-0.7345435243278742,-0.6243295839399099,-1.013498412874341
1783170420595942100,3.228942138671875,-0.6359773516356945,-0.7382032158792018,-1.3157324701994657
1783170420606012200,3.23901220703125,-0.5336110560081899,-0.9585410802841186,-1.5568664543956516
1783170420616082000,3.24908203125,-0.33521219781935213,-1.1937106031179427,-1.672363888144493
1783170420626152000,3.25915185546875,-0.18643311058506368,-1.3527555021703241,-1.7191712320268153
1783170420636222200,3.26922216796875,-0.1537684199541807,-1.4381272622466086,-1.6501280909389255
1783170420646293200,3.279293212890625,-0.18784239286109805,-1.4993354719251393,-1.4836860673725605
1783170420656363000,3.289363037109375,-0.303153948649019,-1.5216986949026583,-1.283312548109889
1783170420666433000,3.29943310546875,-0.4045920235157013,-1.4699439577460287,-1.120881513750553
1783170420676503000,3.3095029296875,-0.4468387814842164,-1.353798289221525,-1.0060124410331248
1783170420686573000,3.319572998046875,-0.38345688102841374,-1.0487316388189791,-1.0275374596208333
1783170420696644000,3.32964404296875,-0.33686537185385823,-0.5666419496029615,-1.0602537343084812
1783170420706714000,3.339714111328125,-0.38615386502742766,-0.14281798687279224,-1.0094447535693645
1783170420716784000,3.3497841796875,-0.5163818349182605,0.19980127233266828,-1.0292156219661235
1783170420726854100,3.359854248046875,-0.670321373655647,0.3914157310783863,-1.067559088885784
1783170420736924200,3.369924072265625,-0.7506459333449602,0.4281190295755863,-1.1973884148478506
1783170420746994000,3.379993896484375,-0.823940156006068,0.2613753927141428,-1.3972779499858616
1783170420757065000,3.39006494140625,-0.9013906215637921,-0.0478401940613985,-1.6455372560173271
1783170420767135200,3.40013525390625,-0.9714812258780002,-0.3914735987454653,-1.80758250592947
1783170420777205000,3.410205078125,-1.1480663116656242,-0.7761948006212711,-1.8767098181694746
1783170420787275000,3.42027490234375,-1.3254336338721215,-1.0785621289372445,-1.97213184761703
1783170420797345300,3.43034521484375,-1.4732185955025254,-1.3393997615128754,-2.026712748110294
1783170420807416000,3.440416015625,-1.6749176642805337,-1.5285235724866388,-2.0054495953291656
1783170420817486000,3.450486083984375,-1.7875240527629852,-1.7233207529217003,-1.9103455457895993
1783170420827556000,3.46055615234375,-1.7893658812373876,-1.8577713089436292,-1.835956952020526
1783170420837625900,3.4706259765625,-1.6035013643205165,-1.892763127347827,-1.7461451636701821
1783170420847696100,3.480696044921875,-1.1982424013286828,-1.8589754240363836,-1.6569447852164505
1783170420857766100,3.49076611328125,-0.7062326449923216,-1.7870640340358017,-1.5457570313602684
1783170420867837000,3.5008369140625,-0.24384265863299368,-1.6764754151165484,-1.4352765489906072
1783170420877907000,3.510906982421875,0.2139808965936303,-1.5230711522996425,-1.4540882169663905
1783170420887977200,3.520977294921875,0.6322992476448417,-1.3632494236558674,-1.5045026454299688
1783170420898047000,3.531046875,1.0197492899626492,-1.0628104330539703,-1.509224413254857
1783170420908117000,3.541116943359375,1.204148410502076,-0.6615291415214538,-1.466534441563487
1783170420918187300,3.551187255859375,1.2507250143684445,-0.28445523952841756,-1.3145710252046585
1783170420928258000,3.561258056640625,1.3334247787564992,0.02690261997282505,-1.1126409241497517
1783170420938328000,3.571328125,1.4230653021931647,0.4414239168286323,-1.0079577298820017
1783170420948398000,3.581398193359375,1.3264821200117467,0.854870277929306,-0.9106231448113917
1783170420958467800,3.5914677734375,1.3314960026510059,1.2985785063028334,-0.7504635625153779
1783170420968538000,3.6015380859375,1.2788136292554437,1.590796196526289,-0.5732049613803625
1783170420978607600,3.611607666015625,1.1546171946138142,1.8191291513383387,-0.4828834699422121
1783170420988678700,3.6216787109375,1.0254625530429184,1.8857739991128444,-0.3393757472395897
1783170420998748700,3.631748779296875,0.8373528875477612,1.7784890979140995,-0.24380524923205374
1783170421008818700,3.641818603515625,0.5864059498675167,1.6062018554508686,-0.17528759332299232
1783170421018888700,3.651888671875,0.3483803069502115,1.4446967037647962,-0.07198796236813068
1783170421028958700,3.661958740234375,0.1256704527169466,1.3438883051037787,0.027511107259988784
1783170421039029800,3.67202978515625,-0.0636858518384397,1.283103873795271,0.15297639279365538
1783170421049099800,3.682099853515625,-0.19293343238979577,1.3686059822529553,0.284321968537569
1783170421059169800,3.692169677734375,-0.2910292110912502,1.5723919403076172,0.3514946395784616
1783170421069239600,3.702239501953125,-0.4105300352625549,1.727514112958312,0.499314380261302
1783170421079309800,3.712309814453125,-0.47869507834166286,1.7586060013145208,0.6765531076520681
1783170421089379800,3.7223798828125,-0.47494434750601644,1.6730647298902273,0.7815946138381957
1783170421099451000,3.732450927734375,-0.47289676732644437,1.5768565185010432,0.8749398370116949
1783170421109520600,3.742520751953125,-0.38616935485750437,1.487150528612733,0.9624193830221891
1783170421119590700,3.752590576171875,-0.24572715720534324,1.4725292980641125,1.1093705241769551
1783170421129660700,3.76266064453125,-0.06124298873096704,1.5568021569877861,1.3034066571116447
1783170421139730700,3.772730712890625,0.13613047193288802,1.7237062451079488,1.4478449386626482
1783170421149800700,3.78280078125,0.35335692631900306,1.909863022969663,1.5515046351015567
1783170421159871700,3.792871826171875,0.5705690599188208,2.1398177337646485,1.6237211455285547
1783170421169941800,3.802941650390625,0.7020844392716884,2.3790996603533623,1.78816761136353
1783170421180011800,3.81301171875,0.7089198382496833,2.5523475645422935,1.9967057323813437
1783170421190081800,3.823081787109375,0.7537061976984143,2.661087925246358,2.2280600808411837
1783170421200151800,3.83315185546875,0.7691492660239339,2.757653571771085,2.4089584997832776
1783170421210221800,3.843221923828125,0.8026374018669128,2.8390403538644313,2.553257080602646
1783170421220292900,3.85329296875,0.7885238285794853,2.8452091056272386,2.6357950785577295
1783170421230362600,3.863362548828125,0.7694520483627915,2.837587524707615,2.62361598046422
1783170421240432600,3.8734326171875,0.7020064055994153,2.83437090074867,2.6029770970612764
1783170421250503000,3.8835029296875,0.6156801212772727,2.8155577714681623,2.5428321327000853
1783170421260572700,3.89357275390625,0.57709816942662,2.7724165488779544,2.4337837289601563
1783170421270642700,3.903642578125,0.563192685931921,2.6735397028014063,2.245965155366063
1783170421280713700,3.913713623046875,0.546763821439445,2.5764848114550114,1.9898878690600394
1783170421290783700,3.92378369140625,0.5177943320646882,2.509081546528637,1.7614900323182343
1783170421300853800,3.933853759765625,0.43391456411182877,2.5353756792142987,1.600453082665801
1783170421310923800,3.943923828125,0.22027999673783777,2.6287176875174043,1.4448562782406806
1783170421320993500,3.95399365234375,0.04709858191385865,2.7770529765069485,1.326123515832424
1783170421331063800,3.964063720703125,-0.030718671129643917,2.9695658453971148,1.3189029169291258
1783170421341134800,3.974134765625,-0.15617591948732734,3.1556431282818314,1.3317583068490026
1783170421351204600,3.98420458984375,-0.32717677540183066,3.283462283465266,1.3916811528921127
1783170421361274600,3.994274658203125,-0.5872141975104809,3.274644770759344,1.478177533084154
1783170421371345000,4.004344970703125,-0.8219662255845963,3.1495486107990143,1.5344722517579794
1783170421381414700,4.01441455078125,-1.0197294162183999,2.9856778990253803,1.5957389136254787
1783170421391485700,4.024485595703125,-1.1282152176395057,2.728070626673102,1.6403309195458888
1783170421401555700,4.0345556640625,-1.1402210049927235,2.4492960631296037,1.671895686110854
1783170421411625700,4.044625732421875,-1.0253811583697796,2.2201859864652156,1.7199930698037147
1783170421421695700,4.05469580078125,-0.9149385237924754,2.1108245712533593,1.68924780292809
1783170421431765800,4.064765869140625,-0.850793237748742,2.142335854065418,1.6138970861285924
1783170421441835500,4.07483544921875,-0.8668084068737923,2.287444874484837,1.6125480096071958
1783170421451905800,4.08490576171875,-1.0161264232903717,2.4257304786249994,1.669443032261729
1783170421461976800,4.094976806640625,-1.296991383241862,2.4466516861006617,1.742178598126769
1783170421472046600,4.105046630859375,-1.6466050313793121,2.2760037352770564,1.7273808419674634
1783170421482116600,4.11511669921875,-1.8372003762103617,1.9811255936726926,1.6458534823596476
1783170421492187000,4.125186767578125,-1.9161461948923766,1.6766715222105384,1.6432792479574678
1783170421502256600,4.135256591796875,-1.8950320951931177,1.4422580784410237,1.5508300968408584
1783170421512326700,4.14532666015625,-1.8015122461050748,1.1889704228535294,1.3847580756306648
1783170421522397700,4.155397705078125,-1.690942185755819,0.9553872924283147,1.3292238199353217
1783170421532468000,4.165468017578125,-1.5768978734247385,0.8709399537205695,1.273577336037159
1783170421542537700,4.175537841796875,-1.4331884906701742,0.8460118486911058,1.2414666260272265
1783170421552607700,4.185607666015625,-1.3546416081778705,0.9056512016177177,1.2781471281707286
1783170421562677500,4.195677490234375,-1.3810812868140636,0.9700304425477981,1.2879776173114776
1783170421572747800,4.205747802734375,-1.4851931109346448,0.9434592464864253,1.3040443704932927
1783170421582818800,4.21581884765625,-1.4953659837722777,0.849303291451931,1.2667927904635667
1783170421592888800,4.225888916015625,-1.4328219954453407,0.746181355151534,1.1783236488938331
1783170421602958600,4.23595849609375,-1.5032289722323418,0.6758136874616145,1.1013427005439995
1783170421613028900,4.24602880859375,-1.6668302194148301,0.554770310023427,0.9327163186758756
1783170421623098600,4.2560986328125,-1.8333337639100848,0.40089316899776456,0.6699386579483747
1783170421633168600,4.266168701171875,-1.9270963357128201,0.2151893956005573,0.43240766668021674
1783170421643239700,4.27623974609375,-1.8479191924929619,0.03180149793028831,0.23128186774551868
1783170421653309700,4.286309814453125,-1.6880910341084003,-0.08819792341291904,0.09800970785319804
1783170421663379700,4.296379638671875,-1.552713280238956,-0.22907880474328993,0.06002396833002567
1783170421673449700,4.30644970703125,-1.437958919942379,-0.36008535779118533,0.03848492121696472
1783170421683519700,4.316519775390625,-1.3613234240293501,-0.5001163442939519,0.026605682852864264
1783170421693589800,4.32658984375,-1.3246166184008121,-0.6485369734793901,-0.01783084024488926
1783170421703660800,4.336660888671875,-1.2672349812731145,-0.7544014864861964,-0.18935528164207935
1783170421713730800,4.346730712890625,-1.2191544025845824,-0.8157669325530529,-0.3307002733528614
1783170421723800600,4.356800537109375,-1.1031133634783328,-0.8544272103369236,-0.4375859461009502
1783170421733870800,4.366870849609375,-0.9804502758838236,-0.8248048100113868,-0.4693547108054161
1783170421743940900,4.37694091796875,-0.8794197589047252,-0.8566916481375694,-0.4506926804333925
1783170421754010600,4.3870107421875,-0.7936081461064517,-0.8987854075014591,-0.41125966471135617
1783170421764081700,4.39708154296875,-0.7462162803344428,-0.9781810157775879,-0.38918285745978354
1783170421774151700,4.407151611328125,-0.7114699611239135,-1.069770919716358,-0.34965398014783855
1783170421784221700,4.4172216796875,-0.6987747302018106,-1.1226005926281213,-0.33909751482009887
1783170421794291700,4.427291748046875,-0.7440892051778734,-1.1180343076258896,-0.33539106151759623
1783170421804361700,4.43736181640625,-0.8310024956077336,-1.0691419741630555,-0.30820261034071444
1783170421814431700,4.447431640625,-0.9649556235015392,-1.0559838019043206,-0.2838105118840933
1783170421824502800,4.457502685546875,-1.0621312186181544,-1.0327619162708521,-0.2726777079731226
1783170421834572800,4.46757275390625,-1.015739323668927,-0.9557079026848078,-0.3370072645425796
1783170421844642600,4.477642578125,-0.815832837396115,-0.8425058863967657,-0.38739538952112196
1783170421854712800,4.487712890625,-0.5903875668495893,-0.7232248424559832,-0.4562485609948635
1783170421864782800,4.497782958984375,-0.4828795244194567,-0.6330214244395495,-0.5193307478517294
1783170421874852600,4.5078525390625,-0.47944823479652404,-0.5702642317533493,-0.5226742130607366
1783170421884923600,4.517923583984375,-0.5940032731287181,-0.5210556719481945,-0.6178589266210794
1783170421894993700,4.52799365234375,-0.7498952611081302,-0.5125976402044295,-0.7091045471668243
1783170421905063700,4.538063720703125,-0.95135365299806,-0.6227040285646915,-0.8306459372550249
1783170421915133700,4.5481337890625,-1.0512215559385716,-0.8435434127509593,-0.9977490550786257
1783170421925203700,4.55820361328125,-1.1023660522423684,-1.0697177282243966,-1.197486614525318
1783170421935273700,4.568273681640625,-1.207153875928372,-1.2320371189028023,-1.351851246806979
1783170421945343700,4.57834375,-1.3364296596609055,-1.3852888215065002,-1.4101222339898347
1783170421955414800,4.588414794921875,-1.4629846401274202,-1.4610510417163372,-1.4407102644771337
1783170421965484500,4.598484619140625,-1.4960551350802183,-1.5381985788047312,-1.4731073902130125
1783170421975554800,4.608554931640625,-1.440937058970332,-1.6391525234162807,-1.3373387373298407
1783170421985624800,4.618624755859375,-1.295468849849701,-1.7078449513703584,-1.1838549795359372
1783170421995694600,4.628694580078125,-1.1434906743131577,-1.7874287756949663,-1.1447697543382644
1783170422005764600,4.6387646484375,-0.9771423203796148,-1.89367088984251,-1.114980765274167
1783170422015835600,4.648835693359375,-0.7453378900647163,-1.9242337858885525,-1.1246762298583983
1783170422025905700,4.65890576171875,-0.5850162490747869,-1.9431261178851127,-1.1126350789308548
1783170422035975700,4.6689755859375,-0.4809919571071863,-1.8908634312063455,-1.0436971517831086
1783170422046045700,4.679045654296875,-0.3994562680624425,-1.7944371931523084,-1.0516302828699349
1783170422056115700,4.68911572265625,-0.41373263069614763,-1.6471131270319221,-1.1523317140251397
1783170422066185700,4.699185791015625,-0.48455257219821213,-1.5484838259756564,-1.2771090172946453
1783170422076256800,4.7092568359375,-0.4074640718206763,-1.3651076187431812,-1.4372504794120788
1783170422086326500,4.719326416015625,-0.16079583437293768,-1.0883733288556336,-1.55780227394104
1783170422096396800,4.729396728515625,-0.03996230029314756,-0.719797206094861,-1.5350918449610471
1783170422106466800,4.739466796875,-0.209447637078166,-0.4524865781128406,-1.353352883541584
1783170422116536600,4.74953662109375,-0.46797114749252794,-0.3185696905761957,-1.2025491586118935
1783170422126606600,4.759606689453125,-0.6644511664479971,-0.42784839594066143,-1.193415419563651
1783170422136676900,4.7696767578125,-0.6735894355408847,-0.771955847877264,-1.3086714457720516
1783170422146747600,4.77974755859375,-0.5081054433517158,-1.2235796716809273,-1.4653776727437973
1783170422156817700,4.789817626953125,-0.27985563677847386,-1.6398405056804417,-1.6376526402473448
1783170422166887700,4.7998876953125,-0.2312240000784397,-1.9633874001473188,-1.7751678445369004
1783170422176957700,4.809957763671875,-0.3868170051112771,-2.1268653132110833,-1.792104950812459
1783170422187027700,4.82002783203125,-0.590223900720477,-2.059315625551343,-1.775873362457752
1783170422197097700,4.83009765625,-0.7949126528337598,-1.8505688302189112,-1.6987532978981732
1783170422207168500,4.84016845703125,-1.0652594336412846,-1.5807219617575405,-1.4935019434660672
1783170422217238800,4.85023876953125,-1.0763199029684065,-1.3371493522375821,-1.2608674920678138
1783170422227308800,4.860308837890625,-1.0663448907904327,-1.2162380767464638,-1.133888294839859
1783170422237378600,4.870378662109375,-1.1787461120896041,-1.2658482030898333,-1.0836346098959446
1783170422247448600,4.880448486328125,-1.4120572937056421,-1.4298410799384116,-1.107966502597928
1783170422257518800,4.890518798828125,-1.475094033985585,-1.656300642094016,-1.3160387596696614
1783170422267589600,4.900589599609375,-1.2723736593358217,-1.9310516492098568,-1.4674603242367505
1783170422277659600,4.91065966796875,-1.0214344665706157,-2.2179086891829964,-1.6452140154123305
1783170422287729700,4.920729736328125,-0.940967283540219,-2.483799513494968,-1.8107389241337775
1783170422297799700,4.930799560546875,-1.3474036197483539,-2.456433367663622,-1.8849235197633505
1783170422307869700,4.94086962890625,-1.6845377255409955,-2.295382389485836,-1.961236359593272
1783170422317939700,4.950939697265625,-2.0388070905297995,-2.062033067816496,-2.0646458806633947
1783170422328009700,4.961009765625,-2.2488439256727695,-1.8744857123792171,-2.3172505224227904
1783170422338080800,4.971080810546875,-1.8710767807185649,-1.8230735050499438,-2.4298387907266616
1783170422348150800,4.98115087890625,-1.5269870105691252,-1.8490683625280857,-2.1809645676672456
1783170422358220500,4.991220458984375,-1.0769739829629659,-1.604403281596303,-1.9916712453454732
1783170422368290600,5.00129052734375,-0.7349848383545875,-1.3128925705984233,-1.7195622771710157
1783170422378360800,5.01136083984375,-1.0892296534240244,-1.1777850119724869,-1.2907231166273354
1783170422388430600,5.0214306640625,-3.9456186169743535,-0.752514942087233,-0.6919330476135015
1783170422398501600,5.031501708984375,-6.3375342120200395,0.47917993924915786,1.0615390979439019
1783170422408571600,5.041571533203125,-4.991667884841561,1.2568462737277148,0.9305974268257617
1783170422418641700,5.0516416015625,-4.505568959984183,1.091903548808396,-0.4928635966867208
1783170422428711700,5.061711669921875,-3.7368221372812984,0.6091580260321497,-1.3272621644735336
1783170422438781700,5.07178173828125,-0.5733077641677111,-0.7638292400449513,-2.477014967921376
1783170422448851700,5.081851806640625,1.2219606191117316,-2.7029838239505883,-3.1801942166924473
1783170422458921700,5.091921630859375,2.4823615896463394,-3.3544922144562004,-3.329945802220702
1783170422468992800,5.10199267578125,3.4645033257484434,-3.172962511873245,-3.0628543699473143
1783170422479062800,5.112062744140625,3.3695874922573563,-2.509108142274618,-2.514434305733442
1783170422489132500,5.122132568359375,2.56880360930264,-1.7307886045843361,-2.1975427775025365
1783170422499202800,5.132202880859375,1.5517852056086063,-1.0598857777789235,-2.059412071663141
1783170422509272600,5.1422724609375,0.9779063635546713,-0.6476335948988795,-1.7211106756567953
1783170422519342600,5.152342529296875,0.8583627962201833,-0.47263212504088875,-1.561080857220292
1783170422529413600,5.16241357421875,0.8382980594433843,-0.4097577357158065,-1.5233751036822796
1783170422539484000,5.17248388671875,0.8264636831343174,-0.4154550705745816,-1.48553315654397
1783170422549553700,5.1825537109375,0.9572603928238153,-0.38812940288409586,-1.53103935469985
1783170422559623700,5.192623779296875,1.0863970603466033,-0.3167354608863592,-1.7054215236157177
1783170422569693400,5.202693359375,1.2464071511693298,-0.2169106664352119,-1.7498820121109484
1783170422579763700,5.212763671875,1.4122960708975791,-0.06541457532718778,-1.6659768174558878
1783170422589833700,5.222833740234375,1.4099381095945833,0.07288608025163412,-1.5393261215299368
1783170422599904800,5.23290478515625,1.2046563600242137,0.2568397951111197,-1.4528747495234011
1783170422609974500,5.242974609375,0.8690800050675869,0.44069574868455524,-1.4680010069847107
1783170422620044800,5.253044921875,0.5307914685428142,0.7031365786731243,-1.5067325964391232
1783170422630114800,5.26311474609375,0.14467735100388526,0.9418921433001756,-1.5074574035823345
1783170422640184600,5.2731845703125,-0.13362667241841553,1.072012853424251,-1.4683675022095442
1783170422650254800,5.2832548828125,-0.27235797449946403,1.0605879346989096,-1.4980664749026298
1783170422660324600,5.29332470703125,-0.21933511710315942,1.0018513758309184,-1.4942425327003002
1783170422670395600,5.303395751953125,0.1249272331342101,1.0321410078935325,-1.4374053777128457
1783170422680462600,5.313462646484375,0.3268956203728914,1.17126569320634,-1.5019833560854197
1783170422690533600,5.32353369140625,0.7677294623538852,1.1811781615421175,-1.4934528436273335
1783170422700603600,5.333603759765625,0.984506711667776,1.214761136061698,-1.490236804190278
1783170422710673700,5.343673583984375,0.8143146879181266,1.4304374383963643,-1.4402274493962526
1783170422720743700,5.35374365234375,0.5351122543513774,1.5859132467903196,-1.3736726179927587
1783170422730813700,5.363813720703125,0.38344285250306126,1.7348549772404134,-1.2164204475760458
1783170422740883700,5.3738837890625,0.16187924569547174,1.6350893656305967,-0.9113678256988524
1783170422750954800,5.383954833984375,0.039402620583772655,1.2808382669508456,-0.687526921609044
1783170422761024800,5.394024658203125,0.4798182371526956,1.487639627303928,-0.9664157591819763
1783170422771094800,5.4040947265625,0.9444400742173195,1.898775811766088,-1.3102905714064836
1783170422781164500,5.41416455078125,1.2725602679491042,1.6948424080647526,-1.0639449900418518
1783170422791234800,5.42423486328125,1.2252350376725196,1.5393258292689918,-0.8130226022809743
1783170422801304600,5.4343046875,0.9528303014218806,1.18647948282063,-0.3449316278010607
1783170422811374600,5.44437451171875,1.5936077468156813,1.16809736536853,-0.25454466991126534
1783170422821445600,5.454445556640625,1.787656739231944,1.2923293827801943,-0.5638643015831709
1783170422831516000,5.464515869140625,1.3989222100615502,1.5697463942348957,-0.8730828109681605
1783170422841585700,5.474585693359375,1.157732111763954,2.0504145262151954,-0.9286585677176713
1783170422851655700,5.48465576171875,1.0468453866809606,2.412642448993027,-0.7403992646187544
1783170422861725700,5.4947255859375,1.0471101750969887,2.445752106912434,-0.7532409182742238
1783170422871795700,5.504795654296875,1.0573621045202015,2.364607316881418,-0.7502803149029612
1783170422881865700,5.51486572265625,1.2824275819689035,2.2167706250637766,-0.5101677827090024
1783170422891936800,5.524936767578125,1.4483634095788,2.1549293781787155,-0.4657230763047933
1783170422902006500,5.535006591796875,1.1267770015299319,2.1995639080666005,-0.5167936305895448
1783170422912076800,5.545076904296875,0.8491215051442385,2.1457295881569385,-0.29517566324621436
1783170422922146800,5.555146728515625,0.9978922629415988,1.932192635938525,0.051148880217969414
1783170422932216600,5.565216552734375,1.1167395916402338,1.8775225958570836,0.00092412910759449
1783170422942286800,5.575286865234375,1.2063035427093505,1.864653469672799,-0.0982686510503292
1783170422952356600,5.585356689453125,1.21180623177886,1.8311841846607624,-0.3302089827045798
1783170422962427600,5.595427734375,1.1185159536629914,1.7139716175571083,-0.5000374338388442
1783170422972497700,5.60549755859375,1.0990800163090229,1.4723312912739812,-0.28437223742008205
1783170422982568000,5.61556787109375,1.1493348702967165,1.1422536067988722,0.02011339822411537
1783170422992638200,5.62563818359375,1.1171890889734029,0.8850346031118184,0.04023644105941057
1783170423002708000,5.6357080078125,0.9224328250706195,0.7719193152591586,-0.038355449618399144
1783170423012778000,5.645778076171875,0.7844412354409694,0.6633850715864449,0.1046650740891695
1783170423022848300,5.65584814453125,0.6472679764568805,0.7522871246807277,0.12920476432293654
1783170423032919300,5.665919189453125,0.6220394271761178,0.911790142764151,0.14243337146937846
1783170423042989000,5.675989013671875,0.4010480672985315,0.9634517217446118,-0.05721972456425428
1783170423053059000,5.68605908203125,0.31777064915299413,1.0021210596177725,-0.21431611989736557
1783170423063128800,5.69612890625,0.8019464969933032,1.142611553391069,-0.047776481175422665
1783170423073199000,5.70619921875,1.4197288512468338,1.3022756072551012,-0.1411900934100151
1783170423083269000,5.71626904296875,1.979811880725622,1.3283254097908734,-0.11243892296105623
1783170423093339000,5.7263388671875,2.5508529420703647,1.2037929481279104,0.019396482126414774
1783170423103410000,5.736409912109375,2.9363334378808736,1.0486077932436018,0.20907047432884573
1783170423113480200,5.746480224609375,2.897981787654757,0.9422690868537873,0.2561313545808196
1783170423123550000,5.756550048828125,2.53620306994915,0.7989539641138166,0.05231105586513877
1783170423133620000,5.766619873046875,1.6451520560920239,0.6023058585824445,-0.4607318438887596
1783170423143690000,5.77668994140625,0.5446732789009809,0.5482353918293491,-0.9859278305120766
1783170423153760000,5.786760009765625,-0.12647124770581722,0.5290100650187581,-1.019996981113404
1783170423163830000,5.796830078125,-0.09102700935900211,0.5280637971445917,-0.7124772384703159
1783170423173901000,5.806901123046875,0.2897358102798462,0.77148311579898,-0.29987828797921534
1783170423183971000,5.81697119140625,0.8820826945036649,0.9246858646944165,0.052699762921780344
1783170423194041000,5.827041015625,1.4719418535649775,0.7443379192419349,0.20362784488350152
1783170423204111000,5.837111083984375,1.8430904571622608,0.3923252471387386,0.08639160464331508
1783170423214180900,5.847180908203125,1.924861562398076,0.22070998565293848,-0.08052373552322387
1783170423224251100,5.857251220703125,1.7289105357527732,0.16060948148798196,-0.14435191844180226
1783170423234322200,5.867322265625,1.1856669973939657,0.16754260521940886,-0.10233487757593393
1783170423244392200,5.87739208984375,0.10864625267982482,0.07399385883044451,-0.10685498534888029
1783170423254462000,5.8874619140625,-0.8802811980396509,0.021743721105996518,-0.09798618084713816
1783170423264532000,5.897531982421875,-0.7739274402111769,0.03350543403765186,-0.2015760269202292
1783170423274602200,5.907602294921875,-0.22894787184000015,0.19052412449205294,-0.26755232778340576
1783170423284672000,5.917672119140625,0.712324093735218,0.30594032796453685,-0.1832381139360368
1783170423294742000,5.927741943359375,1.3151356733500956,0.2747396637379192,-0.07808321050330996
1783170423304812000,5.93781201171875,1.6537416052609681,0.09421833447990939,0.1753590511240065
1783170423314883000,5.947883056640625,1.918257634088397,-0.02094705430297181,0.43552915970161554
1783170423324953000,5.957953125,1.821314678683877,-0.24938401747876776,0.6110749655693769
1783170423335023000,5.968023193359375,1.6850497667163609,-0.5503250210523605,0.6530752014309168
1783170423345093000,5.978093017578125,1.4026333395391701,-0.6314296252034605,0.5784656583875417
1783170423355163100,5.9881630859375,0.7514601723372936,-0.8666457636579871,0.5673166339941322
1783170423365233000,5.99823291015625,0.07834171530902385,-0.8902339983858167,0.5473141487985849
1783170423375304000,6.008303955078125,-0.4236912762612104,-0.6851211756415665,0.40688378771468997
1783170423385374000,6.0183740234375,-0.7233534372717142,-0.748002579229325,0.25801833737120033
1783170423395444200,6.0284443359375,-0.6549135227739811,-0.8119390448279679,0.24864275239109992
1783170423405514000,6.038513916015625,-0.6249222891360521,-0.8871725649885833,0.31096403787806626
1783170423415584000,6.048583984375,-0.46359190949499607,-0.864993612536788,0.2767619085468352
1783170423425654300,6.058654296875,-0.4756108485907316,-0.8188121454678475,0.25401860021054745
1783170423435724000,6.06872412109375,-0.5666179842054844,-0.8241229652270674,0.2729407428234815
1783170423445794000,6.0787939453125,-0.43647301642298697,-0.9569838409047573,0.18356120841056106
1783170423455865000,6.088864990234375,-0.2550304076015949,-0.9985146326236426,0.013322569040209054
1783170423465935000,6.09893505859375,-0.281425662574172,-0.9754441381596028,-0.17795213635712862
1783170423476005000,6.109005126953125,-0.3467722872316837,-0.9166579679962247,-0.22535218543559313
1783170423486075100,6.1190751953125,-0.5150953022390604,-0.6840308231215924,-0.05603139156252145
1783170423496145000,6.129144775390625,-0.5608282948881388,-0.48293994936980306,0.01301145726442337
1783170423506215200,6.139215087890625,-0.4450625655919313,-0.3817953775569796,-0.01710647149309516
1783170423516285000,6.149284912109375,-0.36288930929601193,-0.397985939781554,-0.141355366974324
1783170423526356000,6.15935595703125,-0.24132103120088577,-0.4431821586728096,-0.2948332795493305
1783170423536426000,6.169426025390625,-0.22512159155011174,-0.41227439471185207,-0.3329904301166534
1783170423546496300,6.179496337890625,-0.28343641787469387,-0.3960280471794307,-0.27053733494356275
1783170423556566000,6.18956591796875,-0.307211261215806,-0.3498277292795479,-0.39345220534205433
1783170423566636000,6.199635986328125,-0.13529635919630525,-0.28321331317592413,-0.5314195373132825
1783170423576706000,6.2097060546875,-0.21888123585581779,-0.025049064528010784,-0.42844621570333835
1783170423586776000,6.219776123046875,-0.5485556732922792,0.22379326555579898,-0.3309459186770022
1783170423596847000,6.22984716796875,-0.8923135811388492,0.42231048942729826,-0.2924856935098767
1783170423606917000,6.239917236328125,-0.9493851294040679,0.7015468252636492,-0.22286416801214218
1783170423616987000,6.24998681640625,-0.7659796960771084,0.977300433550775,-0.12368483185768127
1783170423627057200,6.26005712890625,-0.5629132844686507,1.0596505077183247,-0.13590192387402056
1783170423637127200,6.270127197265625,-0.3028390374809503,1.048736022733152,-0.2625628489330411
1783170423647197000,6.280197021484375,-0.2147065805196762,0.9670535456288606,-0.4121129205398261
1783170423657267200,6.29026708984375,-0.31236323715150355,0.8057219238787889,-0.6346018254987895
1783170423667338200,6.300338134765625,-0.17760346904993057,0.7105734506756067,-0.7089674767836928
1783170423677408000,6.310407958984375,0.042348610907793044,0.6300110636424273,-0.6560998099491
1783170423687478000,6.32047802734375,-0.11308511191010474,0.511702591060847,-0.557172402729094
1783170423697548000,6.330548095703125,-0.3773497963249683,0.389789189322479,-0.5481722269326448
1783170423707618000,6.3406181640625,-0.5018494516968727,0.2924423658248037,-0.6050315937519073
1783170423717688000,6.35068798828125,-0.39791327640414237,0.2982417910848744,-0.5647105431489646
1783170423727758000,6.360758056640625,-0.12296294732391834,0.43901937643755223,-0.3220762373924255
1783170423737828900,6.370828857421875,0.09163491212427616,0.7237996466692537,0.007035889986157417
1783170423747899100,6.380899169921875,0.25865795044898987,0.9276617387000471,0.27299802596867084
1783170423757969200,6.39096923828125,0.2508808867067098,0.993827059329301,0.5466638681963086
1783170423768039000,6.401038818359375,0.13072364445328713,1.0372888921760022,0.6637834963195025
1783170423778109200,6.411109130859375,0.03780278417170047,1.0267992084741593,0.7915653882324695
1783170423788179200,6.42117919921875,-0.02086100172102451,1.0062244763486086,0.8342793253213167
1783170423798249000,6.4312490234375,-0.03316168036758899,0.9245360809601842,0.7274673023313284
1783170423808319000,6.441319091796875,-0.09964929175376891,0.7996606510784476,0.5507740799941122
1783170423818390000,6.45139013671875,-0.11637538562715052,0.6940659679889678,0.39497517712563274
1783170423828460000,6.4614599609375,-0.11785013435482979,0.6479090508393943,0.4079372422903776
1783170423838530000,6.471530029296875,-0.1848877808392048,0.6812799169782549,0.42423605066239833
1783170423848600000,6.48160009765625,-0.18261515973210335,0.7011564377065748,0.4841689797081053
1783170423858670000,6.491670166015625,-0.06737140848338603,0.7353833361528813,0.4682623855240643
1783170423868740000,6.501739990234375,0.25647885284423827,0.7878319007925689,0.45171427856609225
1783170423878810000,6.51181005859375,0.48063715232014653,0.8356582124590873,0.47864027941450477
1783170423888881000,6.521880859375,0.44202889698445796,0.9238695068102329,0.5787658103778958
1783170423898951200,6.531951171875,0.37753508976399897,1.0559054759711026,0.7575881536982954
1783170423909021200,6.542021240234375,0.4062380371570587,1.0994579097107051,0.9070365184962749
1783170423919091000,6.552091064453125,0.6296978329747915,1.044409830097109,1.0388714851923286
1783170423929161000,6.562160888671875,0.8372890285313129,0.9277348770014942,1.001381274101138
1783170423939231200,6.572231201171875,1.025965680259466,0.8798414914481342,0.894211669845134
1783170423949301000,6.582301025390625,1.0966115803688763,0.8239379640489816,0.7967458596102893
1783170423959372000,6.5923720703125,1.1277642590016126,0.774991489246115,0.6893393778584898
1783170423969442000,6.602442138671875,1.085244967702031,0.7646304734252393,0.5933075459495186
1783170423979512300,6.61251220703125,0.9321148456513881,0.7196113281339407,0.48753670257553455
1783170423989582300,6.622582275390625,0.9090969581574201,0.6800366389188915,0.5285232313498854
1783170423999652400,6.63265234375,0.9026426674515008,0.6934531698528676,0.6245803438305855
1783170424009722000,6.64272216796875,0.739271721893549,0.7533187327507883,0.5905227375365794
1783170424019792400,6.65279248046875,0.5348948122084141,0.7886252431273459,0.49747488987445826
1783170424029862400,6.6628623046875,0.49253977155983447,0.8431248950779437,0.5060175311617553
1783170424039933200,6.67293310546875,0.528798248898983,0.8383347381919622,0.5558469993442297
1783170424050003200,6.683003173828125,0.5822247186601162,0.7975419784240424,0.6001543431043624
1783170424060073500,6.693073486328125,0.6613970395743847,0.7421430395461619,0.5892386890754103
1783170424070143200,6.703143310546875,0.6800093855857848,0.6809671247020364,0.5203711968153715
1783170424080213200,6.713213134765625,0.5345604656875134,0.6671484427079558,0.4623372332587838
1783170424090283500,6.723283447265625,0.34573359183371066,0.6568216944828629,0.4093456477835774
1783170424100353300,6.733353271484375,0.3526198442161083,0.6418374027755112,0.44063130514621734
1783170424110423300,6.74342333984375,0.41937575114965436,0.6285975435826927,0.49207127726525063
1783170424120494300,6.753494384765625,0.42863107075095175,0.6612880993071943,0.5297118566125631
1783170424130564000,6.763564208984375,0.3553852172762155,0.6518049622993916,0.48067456172108647
1783170424140634400,6.77363427734375,0.31643793924450875,0.6517968520581722,0.41766427105665205
1783170424150704400,6.783704345703125,0.30220190862119195,0.5848804938659071,0.3239209884762764
1783170424160774100,6.793774169921875,0.34614626428782935,0.43765236240066585,0.2425114100292325
1783170424170844400,6.803844482421875,0.3754980309784412,0.31632666088975964,0.282828222848475
1783170424180914400,6.81391455078125,0.21006664575934408,0.23311792406626045,0.2670914322733879
1783170424190985200,6.823985107421875,0.04732698384225368,0.2767044792711735,0.308516790856421
1783170424201055200,6.83405517578125,-0.06074117668867111,0.2860622911325656,0.3142538732036948
1783170424211125200,6.844125244140625,-0.12484335424304008,0.22472115752305835,0.21858897491097448
1783170424221195300,6.8541953125,-0.18855448665320873,0.1873704462341033,0.18417875578701495
1783170424231265300,6.864265380859375,-0.2573696642041206,0.06737126235291362,0.12996288921386004
1783170424241335300,6.874335205078125,-0.4223837007939815,-0.053670498516922814,0.09777677588015794
1783170424251405300,6.8844052734375,-0.7563871073454618,-0.10470630114870146,0.10068301871567964
1783170424261475300,6.894475341796875,-1.158237723198533,-0.10185668387124314,0.14659399828016756
1783170424271546400,6.90454638671875,-1.3674755169183015,-0.07195638905293308,0.16002864939272402
1783170424281616100,6.9146162109375,-1.2735673991650343,-0.10768935381378977,0.1955900843784213
1783170424291686400,6.924686279296875,-1.046992101675272,-0.21101333375861867,0.19629794038683174
1783170424301756400,6.93475634765625,-0.7639321158975362,-0.33187216667644676,0.1050417984470725
1783170424311826200,6.944826171875,-0.6392056660324335,-0.45191440424807366,0.01059592055529356
1783170424321896200,6.954896240234375,-0.73934420260787,-0.5887752362821251,-0.05732260041683912
1783170424331966500,6.964966552734375,-0.9613631519675254,-0.6131830437645316,-0.07008972753137349
1783170424342036200,6.9750361328125,-1.2532751372426747,-0.5689203793963417,-0.08907499850839376
1783170424352107300,6.985107177734375,-1.386740189358592,-0.5372971241097897,-0.0653626990094781
1783170424362177300,6.99517724609375,-1.510706760767102,-0.5510432157916948,-0.15248451762348414
1783170424372247300,7.005247314453125,-1.6974346165150402,-0.6497723604932427,-0.21929858448505402
1783170424382317300,7.0153173828125,-1.9209633859157562,-0.769791874776408,-0.2556897482931614
1783170424392387300,7.02538720703125,-2.176342753085494,-0.8804789125688374,-0.24845745895206928
1783170424402457300,7.035457275390625,-2.336007245340943,-0.946951545581594,-0.15743103411495685
1783170424412527400,7.04552734375,-2.2636983804553745,-0.9626017538517713,0.03733692022562027
1783170424422597400,7.055597412109375,-2.1056763947099446,-0.9864297886848449,0.2254655826821923
1783170424432668200,7.065668212890625,-1.9105559736698865,-1.0327893887996673,0.3402954924330115
1783170424442738200,7.07573828125,-1.5227502497822045,-1.0547683616999537,0.41921646893471476
1783170424452808400,7.085808349609375,-1.0829220777124167,-0.9999839745238422,0.47303632192760703
1783170424462878200,7.095878173828125,-0.708745066204667,-0.951185237628594,0.5657666280731558
1783170424472948200,7.1059482421875,-0.5168441917330027,-0.9733810681499541,0.6570812222018838
1783170424483018500,7.1160185546875,-0.489446481719613,-1.029044868509099,0.720420014168322
1783170424493088300,7.126088134765625,-0.5288736522227525,-1.0099443736545741,0.7756240149959921
1783170424503158300,7.136158203125,-0.44542613820731636,-0.8677043328002094,0.7961287506252527
1783170424513229300,7.146229248046875,-0.2567915720552206,-0.686506273324415,0.7384265032410621
1783170424523299300,7.15629931640625,-0.04947685535252094,-0.529794310731627,0.6376274569302797
1783170424533369300,7.166369384765625,0.06927168914675712,-0.38736897643823176,0.43836832865029574
1783170424543439400,7.176439453125,0.12395137383937835,-0.23536742002610117,0.08462970953732729
1783170424553509000,7.186509033203125,0.148797645804286,-0.117813126812689,-0.21339666696488857
1783170424563579400,7.196579345703125,0.19306115042269228,-0.06358041870258749,-0.39616117203980683
1783170424573649400,7.2066494140625,0.23235855706632136,-0.04997315096948295,-0.5481909316331148
1783170424583719200,7.21671923828125,0.19067454754710197,-0.06376844295482151,-0.6838663532748818
1783170424593790200,7.226790283203125,0.11179331853389739,-0.03786980782619211,-0.7326534727975725
1783170424603860500,7.236860595703125,-0.06439911467432975,0.0036477408186299724,-0.7700845010474324
1783170424613930200,7.24693017578125,-0.29661563292145726,0.15632360259601846,-0.8646534207969904
1783170424624000300,7.257000244140625,-0.4542962578833103,0.39449791500270365,-0.9219450415536761
1783170424634070300,7.2670703125,-0.5359288314312696,0.6125404715446755,-0.9133946553513407
1783170424644140300,7.277140380859375,-0.5348287612348794,0.7174833761945366,-0.8194315925404428
1783170424654210300,7.287210205078125,-0.4165986876517534,0.7419301274478435,-0.6910787688717246
1783170424664280300,7.2972802734375,-0.34305823514461514,0.7164805558275431,-0.6224877554655075
1783170424674351000,7.30735107421875,-0.3149503310352564,0.7320680741250515,-0.5296899370416999
1783170424684421400,7.31742138671875,-0.2172597721338272,0.7255148530893027,-0.4544803822785616
1783170424694491400,7.327491455078125,0.034003976410627364,0.7199783348154276,-0.4202826368615031
1783170424704561200,7.33756103515625,0.34193478407263755,0.6589611907295883,-0.41594343861341476
1783170424714631400,7.34763134765625,0.6200795252799988,0.6115912079958244,-0.3887620016992092
1783170424724701400,7.357701416015625,0.887709302213788,0.6043327613001689,-0.3236240513563156
1783170424734771200,7.367771240234375,1.175315699249506,0.6340906611062586,-0.2771449165150523
1783170424744841200,7.37784130859375,1.4290601586937903,0.6723455729596316,-0.22457623262703416
1783170424754912300,7.387912353515625,1.5735159759014843,0.6773802061259746,-0.20192221000939606
1783170424764982300,7.397982177734375,1.6343138512134552,0.669615417343378,-0.19959318253993988
1783170424775052300,7.40805224609375,1.599617800885439,0.5908916439142078,-0.22304946145117283
1783170424785122300,7.418122314453125,1.4889713142991066,0.5089184402350336,-0.264424258890748
1783170424795192300,7.4281923828125,1.3530010013639926,0.4483059314273298,-0.3129974434018135
1783170424805262300,7.438262451171875,1.1564262898623943,0.4342218764953315,-0.371691916693747
1783170424815332400,7.448332275390625,1.0089823967546223,0.5248511917736381,-0.42118396961539983
1783170424825402400,7.45840234375,0.8931541236162185,0.5824960829474032,-0.4682335978209972
1783170424835473400,7.468473388671875,0.7605752066850662,0.6050596508026123,-0.5391062924236059
1783170424845543400,7.47854345703125,0.5848468838572501,0.5699417948659509,-0.635054976093769
1783170424855613200,7.48861328125,0.49685471214950083,0.4345797500222921,-0.7021525360718369
1783170424865683200,7.49868310546875,0.4277133713841438,0.2887138468209654,-0.7264110712766647
1783170424875753500,7.50875341796875,0.42807402139008044,0.17073497151993214,-0.7101666234403848
1783170424885823200,7.5188232421875,0.47123453320264813,0.1035100588351488,-0.6336661520838737
1783170424895893200,7.528893310546875,0.5897364094644785,0.057999622895568606,-0.6005372049421072
1783170424905963500,7.538963623046875,0.7295674894809723,0.0530558828830719,-0.5122583252474665
1783170424916033300,7.549033203125,0.8756821798115968,0.0768682817555964,-0.4280798666089773
1783170424926104300,7.559104248046875,0.9689198509573936,0.14661226458922028,-0.36570612028241156
1783170424936174300,7.56917431640625,0.9308353272348642,0.1360924049448222,-0.4186392535686493
1783170424946244400,7.579244384765625,0.8474293142735958,0.05475457655973732,-0.520405683606863
1783170424956314400,7.589314453125,0.7072481056451797,-0.021833280819281934,-0.5792956794708967
1783170424966384400,7.59938427734375,0.5744347954362631,-0.03219919201098382,-0.5820522847026586
1783170424976454100,7.6094541015625,0.5153805489212274,0.050598333663120866,-0.5473141487985849
1783170424986524000,7.61952392578125,0.4779454290181398,0.19190109366737304,-0.5068512055069208
1783170424996594000,7.629593994140625,0.547793456748128,0.3932602629665285,-0.47233898731321095
1783170425006665000,7.6396650390625,0.6348854647457599,0.487911161911115,-0.38972032533735035
1783170425016735000,7.64973486328125,0.6770353382110595,0.456300729573518,-0.33218437443077564
1783170425026805000,7.659804931640625,0.4839893853574991,0.12151589032076299,-0.5089972776249051
1783170425036875000,7.669875,0.07134440376758575,-0.6917191856671124,-1.0963058754205703
1783170425046944800,7.67994482421875,-0.5885849013417959,-1.328780313951522,-1.631445602300763
1783170425057015000,7.69001513671875,-1.3888310241580009,-1.6746581365615127,-1.8755866593584418
1783170425067085000,7.7000849609375,-2.332534600794315,-1.6582161203265189,-1.7294886279016732
1783170425077154800,7.71015478515625,-2.986723316425085,-1.027685708985105,-1.0145344779238104
1783170425087225000,7.72022509765625,-2.732384982740879,-0.15694854782763867,-0.17480507050305605
1783170425097296000,7.7302958984375,-1.7971482056766748,0.5424811756841839,0.6694929600074887
1783170425107366100,7.7403662109375,-0.797957719618082,0.9261210851293057,1.5018223203048109
1783170425117436000,7.750435791015625,-0.33958149894475936,1.1422380439035593,2.1329984091386196
1783170425127506000,7.760505859375,-0.6601034926325082,1.2710847885690628,2.356150746442377
1783170425137576000,7.770575927734375,-0.9803390705943107,1.1998519554171712,2.0451006377160548
1783170425147646000,7.78064599609375,-1.1684054814696312,0.7952322401769458,1.7494012428566812
1783170425157716000,7.790716064453125,-1.1544839236229658,0.3768907639784738,1.5213535347267984
1783170425167786000,7.800785888671875,-0.8782160822033882,0.10221543418103829,1.1890873272314666
1783170425177857000,7.81085693359375,-0.6916700127631425,-0.043393060193117707,0.9135790720075369
1783170425187927000,7.820927001953125,-0.7727911296576261,0.005636708979029208,0.8656102831304073
1783170425197996800,7.830996826171875,-0.8779325890868902,0.1764348088630475,0.9740615977600217
1783170425208066800,7.84106689453125,-0.8494798170626163,0.37391960268057883,1.2273591902196406
1783170425218137000,7.85113720703125,-0.7311392688423395,0.646918432366848,1.611872594563663
1783170425228206800,7.861206787109375,-0.5250415267139673,0.8834405388534069,1.981706608431041
1783170425238276900,7.87127685546875,-0.3682487905025482,0.9710836048625409,2.236826740142703
1783170425248347100,7.88134716796875,-0.4522264658719301,0.9657320147015154,2.2916826581850644
1783170425258417000,7.8914169921875,-0.6799421655684709,0.9052436437301338,2.252483451218903
1783170425268488000,7.901488037109375,-0.9700900637805462,0.831308638947457,2.1465309676676987
1783170425278558000,7.911557861328125,-1.0546002385914326,0.7934937259465455,2.1205238352298736
1783170425288628000,7.9216279296875,-0.9232160844027996,0.7462262172065675,2.1278250981539486
1783170425298698000,7.931697998046875,-0.7532242594003677,0.6654055445633829,2.052444570738077
1783170425308768000,7.94176806640625,-0.6861667391717433,0.6109494394935667,1.9725652705982326
1783170425318837800,7.951837646484375,-0.7571861487686634,0.6153994046397507,1.8519632071867584
1783170425328908000,7.961907958984375,-1.0264812285661697,0.7825382513638586,1.6589815517410635
1783170425338978000,7.97197802734375,-1.2403116107732057,0.9983473132327199,1.5476187335789202
1783170425349047800,7.9820478515625,-1.1754624142438173,1.1462790629226713,1.7178116341114043
1783170425359118800,7.992118896484375,-1.0026584544301032,1.1856935931399464,2.0270465101093054
1783170425369189000,8.002189208984374,-0.818815798729658,1.1623287919044494,2.10934982252568
1783170425379259000,8.0122587890625,-0.6920031902402639,1.0939240217853337,2.088813814975321
1783170425389329000,8.022328857421876,-0.6972942823857069,1.026064391393587,1.9371558113038538
1783170425399399200,8.032399169921876,-0.8410837446391582,0.9600257658839225,1.833748336060345
1783170425409469000,8.042468994140625,-0.9750479784488677,0.9303222631461918,1.7942770341545342
1783170425419539000,8.0525390625,-1.0172557195812464,0.8764411084201187,1.7674723215982318
1783170425429609000,8.06260888671875,-0.9331588017463683,0.8521934599354862,1.739858338485658
1783170425439679700,8.0726796875,-0.8420546354979276,0.9024401306167245,1.7594325152665375
1783170425449750000,8.08275,-0.8851350678116082,0.9369225381940602,1.7153192327737807
1783170425459820000,8.092820068359375,-0.9523755433917045,1.025200760301575,1.6685136424571274
1783170425469889800,8.102889892578125,-1.1974433599054812,1.0981940272547304,1.6140274345099925
1783170425479960000,8.1129599609375,-1.3418039000451565,1.2012772389799355,1.6247487350106238
1783170425490030000,8.123030029296874,-1.296932492661476,1.3822168667152523,1.8096464527219533
1783170425500099800,8.133099853515626,-1.0233195496648548,1.5098635879412292,1.937006173700094
1783170425510169900,8.143169921875,-0.6840782424598932,1.5220476544708013,1.975160547788441
1783170425520240000,8.153240234375,-0.35747605207562444,1.4543309396810828,1.8290978799059987
1783170425530311000,8.163310791015626,-0.06217676244974136,1.3412056418910623,1.653695428031683
1783170425540381000,8.173380859375,0.005887304472923278,1.0705557864837347,1.450581085628271
1783170425550451000,8.183450927734375,-0.026800328642129896,0.8770431659664958,1.429836696024239
1783170425560521000,8.19352099609375,-0.03984627269804478,1.0117650132104754,1.2637310648053883
1783170425570591000,8.203591064453125,-0.15907938584387302,1.0618789243575184,1.2720260149419307
1783170425580661000,8.213660888671875,-0.33112697433233257,1.0452063873022794,1.3814146104216576
1783170425590731000,8.22373095703125,-0.4531985257744789,0.9568080459464341,1.3564718923449515
1783170425600801000,8.233801025390624,-0.47962476040720936,0.9408055901724844,1.2654542353361844
1783170425610871000,8.24387109375,-0.5516156453847885,0.9139761085011064,1.1085375804841517
1783170425620941800,8.25394189453125,-0.6433773987591266,0.8893887066680938,1.0443968244850634
1783170425631011800,8.26401171875,-0.7170026069402694,0.8687096373852342,1.0490712460368872
1783170425641082000,8.27408203125,-0.8000392020672559,0.8693121333230286,1.0942974582076073
1783170425651152000,8.28415185546875,-0.9246545927733182,0.9413022145830094,1.158860823532939
1783170425661222000,8.294221923828125,-1.07071842969954,1.0235019204944371,1.1458131259113549
1783170425671292200,8.304292236328125,-1.1630050837308168,1.079752800026536,1.1369330693632365
1783170425681362000,8.31436181640625,-1.1116080739706753,1.0663413836590945,1.1182231081962586
1783170425691432000,8.324431884765625,-1.009388054946065,0.9654434800837188,1.0666519109129906
1783170425701502200,8.334502197265625,-0.9017074324280023,0.8187566158883273,0.940720176911354
1783170425711573000,8.344572998046875,-0.881097775119543,0.6930791489087045,0.7922422645807266
1783170425721643000,8.35464306640625,-0.9703437462806701,0.5832881831731647,0.6662713676124811
1783170425731713000,8.364713134765625,-1.0045698410093784,0.5583068135865032,0.6250777719587087
1783170425741782800,8.37478271484375,-1.0068903929114341,0.5411084990914911,0.5492869101762772
1783170425751853000,8.38485302734375,-1.1165595588982105,0.5115336642347276,0.5489911421000957
1783170425761923000,8.394923095703126,-1.1821230411767958,0.5222692855216562,0.5922977843850851
1783170425771992800,8.404992919921876,-1.2138158180356025,0.5030602157261223,0.6276812324553728
1783170425782063000,8.41506298828125,-1.2243097395211457,0.40046354540884493,0.639486236539483
1783170425792132900,8.4251328125,-1.3338830439180136,0.2699785320170224,0.65877604342103
1783170425802204000,8.435203857421875,-1.5889263110011815,0.17371632541827856,0.6241361071944236
1783170425812274000,8.44527392578125,-1.88098910292387,0.13877894061505794,0.5931687220007181
1783170425822344200,8.45534423828125,-2.107055866369605,0.15639190032556652,0.5517910019516945
1783170425832414000,8.4654140625,-2.1038456721514462,0.27987324550040066,0.584285742843151
1783170425842484000,8.47548388671875,-1.8982044416189192,0.3967179291397333,0.6531693094551563
1783170425852554000,8.485553955078124,-1.5704408062398432,0.44039369699805975,0.7693430350303649
1783170425862624000,8.4956240234375,-1.290759356984496,0.4351839264605194,0.8703139307767153
1783170425872694000,8.505694091796874,-1.2260375862270594,0.3999466088626534,0.8854816892921924
1783170425882763800,8.515763671875,-1.1971709727048874,0.40570151912756264,0.7762456540256738
1783170425892834000,8.525833984375,-1.1128408306360245,0.49085196460336444,0.7579115404337644
1783170425902905000,8.535905029296876,-1.0077426258265971,0.5744357452843338,0.8109726840138435
1783170425912975000,8.54597509765625,-0.8138426864922046,0.6764951669197529,0.8219383146643638
1783170425923044900,8.556044921875,-0.5904045179843902,0.8209439698647707,0.8305033139139414
1783170425933115000,8.566114990234375,-0.3711591249912977,0.9479974013727158,0.7800526450932025
1783170425943185200,8.57618505859375,-0.2420160277277231,1.0003642790783196,0.6316565658271313
1783170425953255000,8.5862548828125,-0.13612930288910866,0.9458088052872567,0.4857020344942808
1783170425963325000,8.596324951171875,-0.12046937694251536,0.9251287130910902,0.43170828623920676
1783170425973395000,8.60639501953125,-0.20065818142294883,0.9485422488391398,0.42703970990628004
1783170425983465200,8.61646533203125,-0.12190905435681343,0.9790345638670027,0.34247634360343215
1783170425993536300,8.626536376953124,-0.10027882182896136,1.0107240527901797,0.298324482665956
1783170426003606300,8.636606201171874,-0.07901566904783248,1.1041172067586331,0.2089054930254817
1783170426013676300,8.64667626953125,-0.08807809642553328,1.2013638212848454,0.16218290481716394
1783170426023746300,8.656746337890626,-0.09800795428752898,1.2126135295737535,0.06491232489347458
1783170426033816300,8.66681640625,-0.01516600494980812,1.3036252682983875,0.01644552336633205
1783170426043886300,8.67688623046875,0.012849544700980186,1.4230908750258384,-0.08032762842923402
1783170426053956400,8.686956298828125,0.0025222119539976117,1.5748565768554805,-0.13663316075801848
1783170426064026400,8.6970263671875,0.04239420361518859,1.6795859483525155,-0.11930500933825969
1783170426074096000,8.70709619140625,0.10699556286334991,1.6779910803765057,-0.18263883286863564
1783170426084166400,8.71716650390625,0.1720773991048336,1.558413245446235,-0.2631044084638357
1783170426094237400,8.727237548828125,0.22495266472399233,1.4541031222745775,-0.37157267422825097
1783170426104307500,8.737307373046875,0.3074409783184528,1.3520884165637195,-0.3850058640360832
1783170426114377200,8.747377197265624,0.29321020839214323,1.3079264726236461,-0.3512026708945632
1783170426124447200,8.757447265625,0.26990648969411846,1.3541411113098263,-0.37321927239149805
1783170426134517200,8.767517333984374,0.21210370454490182,1.4321651389718055,-0.44207565873563287
1783170426144587300,8.777587158203126,0.1321364338606596,1.4872279777631163,-0.4137660945743322
1783170426154657300,8.7876572265625,0.10387070884108543,1.4812614705741405,-0.4131687132030725
1783170426164727300,8.797727294921875,0.18610066376030443,1.4963365823701023,-0.4099085423633456
1783170426174797300,8.80779736328125,0.27219021671712396,1.5646623689688741,-0.31081337736099957
1783170426184868400,8.817868408203125,0.4255792819648981,1.5608360886789858,-0.3114630734413862
1783170426194938400,8.8279384765625,0.6112567518770694,1.491940539368242,-0.3675824355483055
1783170426205008400,8.83800830078125,0.7016343574166297,1.3072995728969574,-0.556810583679378
1783170426215078400,8.848078369140625,0.6950988181680441,1.0768233955111355,-0.8036372265592217
1783170426225148200,8.858148193359375,0.7051981873780488,0.9595459464777261,-0.9288461992442607
1783170426235218200,8.86821826171875,0.7278992640078067,0.8955690027382224,-1.036520099760592
1783170426245288400,8.878288330078124,0.7194441548734903,0.9380947237785905,-1.0884779582738875
1783170426255358200,8.888358154296874,0.6693921299815178,0.9856544203981756,-1.0903536890178918
1783170426265428200,8.89842822265625,0.6819564280003308,0.8988709668930619,-1.1025906547784805
1783170426275498500,8.90849853515625,0.786668848362565,0.9374226697359234,-1.1007046949014068
1783170426285569300,8.9185693359375,0.8473749537378549,0.7236254591461271,-0.9473793425396084
1783170426295639300,8.928639404296876,0.6963549557089805,0.473593955810368,-0.7398045135959982
1783170426305709300,8.938709228515625,0.554770310023427,0.510791102239117,-1.0157517447590827
1783170426315779300,8.948779296875,0.5141512993872165,0.618712036319077,-1.1668339943692088
1783170426325849300,8.958849365234375,0.49294016905426974,0.5604391494400799,-1.0300590870529414
1783170426335919400,8.96891943359375,0.317961203289032,0.4761800267808139,-0.8383192483618855
1783170426345989000,8.978989013671875,0.10835340721309185,0.3866172447554767,-0.7933166158139705
