time,seconds_elapsed,z,y,x
1783170417433900300,0.066900390625,0.4641419053077698,-2.0491392612457275,0.7647603154182434
1783170417443970300,0.07697021484375,0.6184366941452026,-2.291306972503662,0.670947253704071
1783170417454040300,0.087040283203125,0.7968215942382812,-2.5356690883636475,0.5709154605865479
1783170417464111400,0.097111328125,0.9467698335647583,-2.771843671798706,0.4171953797340393
1783170417474181400,0.107181396484375,1.036231517791748,-2.9714629650115967,0.18299062550067902
1783170417484251100,0.117251220703125,1.0675923824310303,-3.0156798362731934,-0.07102008163928986
1783170417494321400,0.1273212890625,1.1209437847137451,-2.9478442668914795,-0.31846171617507935
1783170417504392400,0.137392333984375,1.2003467082977295,-2.82478666305542,-0.5405408143997192
1783170417514462200,0.147462158203125,1.2833337783813477,-2.6593332290649414,-0.6925469040870667
1783170417524532200,0.1575322265625,1.3815929889678955,-2.449470043182373,-0.7692049145698547
1783170417534602500,0.1676025390625,1.4610923528671265,-2.2455477714538574,-0.7994991540908813
1783170417544673300,0.17767333984375,1.555053472518921,-2.088625431060791,-0.8092207312583923
1783170417554743300,0.187743408203125,1.6181896924972534,-1.9271641969680786,-0.8228291273117065
1783170417564813300,0.197813232421875,1.6321779489517212,-1.7382805347442627,-0.8480801582336426
1783170417574883300,0.20788330078125,1.6196784973144531,-1.6694999933242798,-0.9168306589126587
1783170417584953300,0.217953369140625,1.5780192613601685,-1.7996742725372314,-0.956480085849762
1783170417595024400,0.2280244140625,1.5367151498794556,-1.826454758644104,-0.944818377494812
1783170417605094100,0.23809423828125,1.5460301637649536,-1.6521053314208984,-0.9240334630012512
1783170417615164200,0.2481640625,1.6018811464309692,-1.4028164148330688,-0.9070517420768738
1783170417625234400,0.258234375,1.657575011253357,-1.1526538133621216,-0.9084352850914001
1783170417635305500,0.268305419921875,1.6927779912948608,-0.9504199624061584,-0.8949944972991943
1783170417645375200,0.278375244140625,1.679660677909851,-0.8457564115524292,-0.8260881304740906
1783170417655445200,0.2884453125,1.5747859477996826,-0.8558773398399353,-0.7494152188301086
1783170417665515500,0.298515625,1.4031281471252441,-0.8211076259613037,-0.6520708203315735
1783170417675585300,0.308585205078125,1.3173776865005493,-0.9643280506134033,-0.5597550868988037
1783170417685656300,0.31865625,1.2507967948913574,-1.006329894065857,-0.6460894346237183
1783170417695726300,0.328726318359375,1.1979550123214722,-0.9155771136283875,-0.7237032055854797
1783170417705796400,0.33879638671875,1.2153470516204834,-0.6999910473823547,-0.8152568340301514
1783170417715866400,0.348866455078125,1.2881264686584473,-0.4796774685382843,-0.9184712767601013
1783170417725937400,0.3589375,1.3751391172409058,-0.3300946354866028,-1.000855565071106
1783170417736007200,0.369007080078125,1.3691381216049194,-0.1974220871925354,-0.9843270182609558
1783170417746077200,0.3790771484375,1.2471674680709839,-0.22964687645435333,-0.952038586139679
1783170417756147500,0.3891474609375,1.027683138847351,-0.6206552386283875,-0.8750794529914856
1783170417766217200,0.39921728515625,0.8951408267021179,-1.2020763158798218,-0.8043461441993713
1783170417776288300,0.409288330078125,0.7722574472427368,-1.7114086151123047,-0.7441385984420776
1783170417786358300,0.419358154296875,0.5822659730911255,-2.0530755519866943,-0.6701685190200806
1783170417796428300,0.42942822265625,0.38833722472190857,-2.1601884365081787,-0.634513258934021
1783170417806498300,0.439498291015625,0.30672064423561096,-2.1170637607574463,-0.6087008118629456
1783170417816569300,0.4495693359375,0.31489819288253784,-1.9661520719528198,-0.6253541111946106
1783170417826639400,0.459639404296875,0.36382418870925903,-1.6697336435317993,-0.7284603118896484
1783170417836709400,0.46970947265625,0.4878026247024536,-1.2461867332458496,-0.8934991359710693
1783170417846779400,0.479779296875,0.7212536931037903,-0.6995301246643066,-1.0912034511566162
1783170417856849200,0.48984912109375,1.0614908933639526,0.014068719930946827,-1.2846843004226685
1783170417866920200,0.499920166015625,1.487289309501648,0.6055794358253479,-1.4754669666290283
1783170417876990200,0.509990234375,1.7582368850708008,0.42686307430267334,-1.5602809190750122
1783170417887060500,0.520060546875,1.9446831941604614,0.15612106025218964,-1.5297435522079468
1783170417897130200,0.530130126953125,2.0598790645599365,0.19567087292671204,-1.394971489906311
1783170417907201300,0.540201171875,2.0709681510925293,0.28253626823425293,-1.2347866296768188
1783170417917271300,0.550271240234375,1.9668707847595215,0.26308971643447876,-1.1005985736846924
1783170417927341300,0.56034130859375,1.7764395475387573,0.13334770500659943,-0.9953866600990295
1783170417937411300,0.570411376953125,1.5434387922286987,-0.04191518574953079,-0.887311577796936
1783170417947481300,0.5804814453125,1.2903437614440918,-0.18656398355960846,-0.7178064584732056
1783170417957552000,0.59055224609375,1.0373274087905884,-0.24186161160469055,-0.5054396390914917
1783170417967619600,0.60061962890625,0.7889407873153687,-0.26778507232666016,-0.3053571581840515
1783170417977689600,0.610689697265625,0.5538194179534912,-0.3127152621746063,-0.1808663159608841
1783170417987759600,0.620759521484375,0.3441939949989319,-0.3590169847011566,-0.14507874846458435
1783170417997829600,0.63082958984375,0.1828474998474121,-0.3817952573299408,-0.18194079399108887
1783170418007900400,0.640900390625,0.06441192328929901,-0.39695608615875244,-0.24346859753131866
1783170418017970700,0.650970703125,-0.005022558383643627,-0.39508748054504395,-0.2856455445289612
1783170418028040700,0.661040771484375,-0.030066391453146935,-0.374687135219574,-0.3069732189178467
1783170418038110500,0.6711103515625,-0.03905804082751274,-0.3220404386520386,-0.3178967833518982
1783170418048181500,0.681181396484375,-0.03747319430112839,-0.2602497637271881,-0.3115161061286926
1783170418058251500,0.69125146484375,-0.05691317841410637,-0.2319752722978592,-0.2552260756492615
1783170418068321500,0.701321533203125,-0.12733007967472076,-0.1231960654258728,-0.13522538542747498
1783170418078391600,0.7113916015625,-0.18100900948047638,-0.011519594117999077,-0.037895865738391876
1783170418088462600,0.721462646484375,-0.2002018839120865,0.006240495480597019,0.07450231909751892
1783170418098532400,0.731532470703125,-0.1900150328874588,-0.02768564596772194,0.22963771224021912
1783170418108602600,0.7416025390625,-0.16413229703903198,-0.06435471773147583,0.3929440677165985
1783170418118672600,0.751672607421875,-0.14634929597377777,-0.05716457590460777,0.5377496480941772
1783170418128742400,0.761742431640625,-0.15315793454647064,-0.04191904515028,0.6660304069519043
1783170418138813400,0.7718134765625,-0.19397033751010895,-0.012251161970198154,0.7423270344734192
1783170418148883500,0.781883544921875,-0.2845234274864197,-0.0435347855091095,0.7645095586776733
1783170418158953700,0.79195361328125,-0.416630357503891,-0.1252879798412323,0.7303566932678223
1783170418169023500,0.8020234375,-0.5598357319831848,-0.22947217524051666,0.6978523135185242
1783170418179093500,0.812093505859375,-0.679829478263855,-0.322860985994339,0.7251794338226318
1783170418189164500,0.82216455078125,-0.7607640027999878,-0.43947067856788635,0.8312046527862549
1783170418199234600,0.832234619140625,-0.810200035572052,-0.5793855786323547,1.0462573766708374
1783170418209304600,0.8423046875,-0.7861455678939819,-0.708263099193573,1.323170781135559
1783170418219374600,0.85237451171875,-0.7232078313827515,-0.7670766115188599,1.5584235191345215
1783170418229445400,0.8624453125,-0.64590984582901,-0.7222108840942383,1.6612685918807983
1783170418239515600,0.872515625,-0.5590673685073853,-0.6619138717651367,1.611120343208313
1783170418249585700,0.882585693359375,-0.4735162556171417,-0.5515974760055542,1.4588634967803955
1783170418259655400,0.892655517578125,-0.3860660195350647,-0.435914546251297,1.2614285945892334
1783170418269725400,0.902725341796875,-0.32793372869491577,-0.2906303107738495,1.0376540422439575
1783170418279796500,0.91279638671875,-0.31135106086730957,-0.11832885444164276,0.8209376931190491
1783170418289866500,0.922866455078125,-0.3367983400821686,-0.015581711195409298,0.6431500911712646
1783170418299936500,0.9329365234375,-0.3894767165184021,0.026609424501657486,0.5281879305839539
1783170418310006500,0.943006591796875,-0.47606992721557617,0.045307744294404984,0.47117894887924194
1783170418320076500,0.95307666015625,-0.5599027872085571,0.027334198355674744,0.476430207490921
1783170418330147600,0.963147705078125,-0.6115894317626953,-0.014713919721543789,0.5006250143051147
1783170418340217600,0.973217529296875,-0.6216532588005066,-0.049340203404426575,0.5224193930625916
1783170418350287600,0.98328759765625,-0.6050649881362915,-0.0752844586968422,0.529548168182373
1783170418360357600,0.993357666015625,-0.5778778195381165,-0.073701873421669,0.5323303937911987
1783170418370428700,1.0034287109375,-0.5360845923423767,-0.04378366097807884,0.5225752592086792
1783170418380498700,1.013498779296875,-0.4873071610927582,-0.0011805398389697075,0.5032734274864197
1783170418390568400,1.023568359375,-0.45926567912101746,0.024675291031599045,0.47482579946517944
1783170418400638500,1.033638427734375,-0.4347911775112152,0.038361553102731705,0.4332050383090973
1783170418410708700,1.043708740234375,-0.419078528881073,0.03965025767683983,0.40113285183906555
1783170418420779500,1.053779541015625,-0.39682862162590027,0.03562648594379425,0.38790175318717957
1783170418430849500,1.063849609375,-0.3728924095630646,0.014806692488491535,0.385924369096756
1783170418440919600,1.07391943359375,-0.33809661865234375,-0.014794480055570602,0.3793107271194458
1783170418450989600,1.083989501953125,-0.307888925075531,-0.03818369284272194,0.3711686432361603
1783170418461060600,1.094060546875,-0.27335572242736816,-0.05493205040693283,0.3554284870624542
1783170418471130600,1.104130615234375,-0.2388443648815155,-0.06697513163089752,0.34092357754707336
1783170418481200400,1.114200439453125,-0.19405661523342133,-0.10398907214403152,0.3431711196899414
1783170418491270700,1.124270751953125,-0.1340332329273224,-0.1652817279100418,0.3534141778945923
1783170418501340700,1.134340576171875,-0.07059460133314133,-0.20645472407341003,0.37529072165489197
1783170418511411700,1.14441162109375,-0.0163263026624918,-0.21094053983688354,0.40376123785972595
1783170418521481500,1.1544814453125,0.021531611680984497,-0.20894530415534973,0.4481831192970276
1783170418531551500,1.164551513671875,0.043416138738393784,-0.23126153647899628,0.4610954523086548
1783170418541621500,1.17462158203125,0.06308408826589584,-0.26104071736335754,0.4416969120502472
1783170418551691500,1.18469140625,0.08838704973459244,-0.26369509100914,0.4123384654521942
1783170418561762600,1.194762451171875,0.12450777739286423,-0.25199732184410095,0.38839706778526306
1783170418571832600,1.20483251953125,0.16393429040908813,-0.24399450421333313,0.3368135094642639
1783170418581902600,1.214902587890625,0.19639848172664642,-0.25238746404647827,0.2718326449394226
1783170418591972600,1.22497265625,0.23135912418365479,-0.2561534345149994,0.20529434084892273
1783170418602042600,1.235042724609375,0.2702607214450836,-0.255028635263443,0.14207719266414642
1783170418612113400,1.245113525390625,0.2929726839065552,-0.25723135471343994,0.07893763482570648
1783170418622183700,1.25518359375,0.3031204044818878,-0.24481649696826935,0.01792806200683117
1783170418632253700,1.265253662109375,0.307512491941452,-0.2476796656847,-0.02226782776415348
1783170418642323500,1.275323486328125,0.3112052083015442,-0.24633970856666565,-0.029987921938300133
1783170418652394500,1.28539453125,0.31580662727355957,-0.2292531132698059,-0.02823716215789318
1783170418662464500,1.295464599609375,0.32155001163482666,-0.2180091142654419,-0.04433231055736542
1783170418672534500,1.305534423828125,0.34415972232818604,-0.19025897979736328,-0.0712326318025589
1783170418682604500,1.3156044921875,0.36364442110061646,-0.16926701366901398,-0.11732900887727737
1783170418692674600,1.325674560546875,0.3488255441188812,-0.1751861572265625,-0.18622951209545135
1783170418702745300,1.335745361328125,0.36292141675949097,-0.20273256301879883,-0.2766290307044983
1783170418712815600,1.345815673828125,0.4217109680175781,-0.2196018248796463,-0.3489045798778534
1783170418722885600,1.3558857421875,0.4845629036426544,-0.23486025631427765,-0.4068056046962738
1783170418732955400,1.365955322265625,0.5452816486358643,-0.234760120511055,-0.4546689987182617
1783170418743025700,1.376025634765625,0.6069945096969604,-0.20024248957633972,-0.5047664046287537
1783170418753096700,1.3860966796875,0.6555317044258118,-0.16031399369239807,-0.5517701506614685
1783170418763166700,1.396166748046875,0.6987295746803284,-0.11844763159751892,-0.589320182800293
1783170418773236500,1.406236572265625,0.7645650506019592,-0.06048259884119034,-0.616668701171875
1783170418783306500,1.416306396484375,0.8228914141654968,-0.016540443524718285,-0.6233935356140137
1783170418793376500,1.42637646484375,0.8510575294494629,0.021015986800193787,-0.6005612015724182
1783170418803447600,1.436447509765625,0.8436132073402405,0.07593543082475662,-0.5622542500495911
1783170418813517600,1.446517578125,0.8166643977165222,0.14133921265602112,-0.5196854472160339
1783170418823587600,1.456587646484375,0.7720471620559692,0.2248917520046234,-0.4678432047367096
1783170418833657600,1.46665771484375,0.721546471118927,0.3066931664943695,-0.4016213119029999
1783170418843727600,1.4767275390625,0.6672250628471375,0.36911246180534363,-0.33552828431129456
1783170418853798700,1.486798583984375,0.6044114828109741,0.39958301186561584,-0.27515122294425964
1783170418863868400,1.496868408203125,0.5358583331108093,0.39778417348861694,-0.2068643718957901
1783170418873938700,1.506938720703125,0.4718628227710724,0.3559674918651581,-0.13834762573242188
1783170418884008700,1.5170087890625,0.4012453854084015,0.29364219307899475,-0.07692460715770721
1783170418894078500,1.527078369140625,0.3258243799209595,0.2141827791929245,-0.02810700237751007
1783170418904149500,1.5371494140625,0.24219533801078796,0.14476042985916138,-0.00744906859472394
1783170418914219500,1.547219482421875,0.15320341289043427,0.09464774280786514,-0.021982736885547638
1783170418924289500,1.55728955078125,0.08927126973867416,0.04407164454460144,-0.04124068468809128
1783170418934359600,1.567359619140625,0.0578150749206543,0.00028315093368291855,-0.06288792192935944
1783170418944430600,1.5774306640625,0.055914100259542465,-0.00747677031904459,-0.10058580338954926
1783170418954500600,1.58750048828125,0.06196959689259529,0.0027495012618601322,-0.1365877389907837
1783170418964570600,1.597570556640625,0.07101954519748688,0.010750968009233475,-0.1706663817167282
1783170418974642000,1.607641845703125,0.07925590127706528,0.03737405687570572,-0.19767749309539795
1783170418984712000,1.6177119140625,0.09732411801815033,0.08305898308753967,-0.22653447091579437
1783170418994783000,1.627782958984375,0.1122729703783989,0.1225225031375885,-0.25921621918678284
1783170419004852700,1.637852783203125,0.11187777668237686,0.16064831614494324,-0.3002527952194214
1783170419014922800,1.6479228515625,0.09918621927499771,0.19451093673706055,-0.3524843156337738
1783170419024993000,1.657992919921875,0.07523109018802643,0.2325558066368103,-0.40814247727394104
1783170419035062800,1.668062744140625,0.03958335146307945,0.26065000891685486,-0.4493125379085541
1783170419045133800,1.6781337890625,-0.002041066996753216,0.2852359414100647,-0.47587403655052185
1783170419055203800,1.688203857421875,-0.04360635206103325,0.3194897770881653,-0.5046539902687073
1783170419065273900,1.69827392578125,-0.08328239619731903,0.36145704984664917,-0.5158825516700745
1783170419075344000,1.70834375,-0.11877115070819855,0.39719322323799133,-0.5046538710594177
1783170419085414000,1.718413818359375,-0.13386541604995728,0.4207601845264435,-0.47321388125419617
1783170419095484700,1.728484619140625,-0.14178113639354706,0.42639172077178955,-0.41734129190444946
1783170419105555000,1.738554931640625,-0.13597382605075836,0.4071333408355713,-0.3437036871910095
1783170419115625000,1.748625,-0.12178822606801987,0.39089205861091614,-0.26421603560447693
1783170419125694700,1.75869482421875,-0.10492963343858719,0.3636951744556427,-0.1887158751487732
1783170419135764700,1.7687646484375,-0.09724907577037811,0.3273475468158722,-0.12731003761291504
1783170419145835800,1.778835693359375,-0.09926243871450424,0.2776578962802887,-0.09360390901565552
1783170419155906000,1.788906005859375,-0.10779999941587448,0.2070588320493698,-0.06948819756507874
1783170419165975800,1.798975830078125,-0.11925476789474487,0.1424122005701065,-0.07126925885677338
1783170419176045800,1.8090458984375,-0.13305847346782684,0.06520635634660721,-0.06843485683202744
1783170419186115800,1.81911572265625,-0.1262410432100296,0.003197046462446451,-0.06566762924194336
1783170419196187000,1.829186767578125,-0.10678373277187347,-0.026922505348920822,-0.062633216381073
1783170419206257000,1.8392568359375,-0.09346926212310791,-0.03931938856840134,-0.050572969019412994
1783170419216327000,1.849326904296875,-0.08999942988157272,-0.04369469732046127,-0.041960570961236954
1783170419226396700,1.859396728515625,-0.09993967413902283,-0.026111306622624397,-0.025577178224921227
1783170419236467000,1.869467041015625,-0.12672175467014313,0.000730960164219141,-0.0067984298802912235
1783170419246538000,1.8795380859375,-0.14863184094429016,0.020181359723210335,0.009676716290414333
1783170419256607700,1.889607666015625,-0.169250026345253,0.0168319009244442,0.012194203212857246
1783170419266677800,1.899677734375,-0.18634459376335144,-0.010081073269248009,0.027006546035408974
1783170419276748000,1.909748046875,-0.19629442691802979,-0.049707844853401184,0.05317876115441322
1783170419286817800,1.91981787109375,-0.21322999894618988,-0.07953671365976334,0.09612800180912018
1783170419296888800,1.929888916015625,-0.23400211334228516,-0.09778815507888794,0.13670365512371063
1783170419306958800,1.939958740234375,-0.2643352746963501,-0.09731051325798035,0.16116464138031006
1783170419317028900,1.95002880859375,-0.2828218638896942,-0.07766437530517578,0.18933767080307007
1783170419327099000,1.960098876953125,-0.30531731247901917,-0.04342411458492279,0.2291490137577057
1783170419337169000,1.9701689453125,-0.3183034360408783,0.02144036814570427,0.26569822430610657
1783170419347239700,1.98023974609375,-0.3282785713672638,0.07579362392425537,0.29896989464759827
1783170419357309700,1.990309814453125,-0.341942697763443,0.08093059062957764,0.32426807284355164
1783170419367380000,2.0003798828125,-0.3632623553276062,0.04140675812959671,0.3529781997203827
1783170419377449700,2.01044970703125,-0.40025925636291504,-0.01943156123161316,0.3997797966003418
1783170419387519700,2.020519775390625,-0.46928709745407104,-0.08649355173110962,0.4189458191394806
1783170419397590800,2.0305908203125,-0.5383135080337524,-0.17740030586719513,0.41209113597869873
1783170419407661000,2.0406611328125,-0.5491283535957336,-0.2595392167568207,0.41413575410842896
1783170419417730800,2.050730712890625,-0.5044717192649841,-0.33612027764320374,0.4437756836414337
1783170419427800800,2.06080078125,-0.42390361428260803,-0.4192187786102295,0.5022798776626587
1783170419437870800,2.070870849609375,-0.33520278334617615,-0.49782782793045044,0.5932436585426331
1783170419447940900,2.08094091796875,-0.26326945424079895,-0.5531587600708008,0.6758067011833191
1783170419458012000,2.091011962890625,-0.220302015542984,-0.5652066469192505,0.7598499655723572
1783170419468082000,2.10108203125,-0.18725432455539703,-0.518963098526001,0.8293489813804626
1783170419478151700,2.111151611328125,-0.1579824537038803,-0.44007304310798645,0.86421138048172
1783170419488222000,2.121221923828125,-0.13444700837135315,-0.3355787396430969,0.8815131187438965
1783170419498291700,2.131291748046875,-0.13372422754764557,-0.2193533331155777,0.890295684337616
1783170419508362800,2.14136279296875,-0.1434389352798462,-0.14667673408985138,0.9211072325706482
1783170419518432800,2.151432861328125,-0.15224415063858032,-0.12867483496665955,0.9794203639030457
1783170419528503000,2.1615029296875,-0.16780711710453033,-0.12588569521903992,1.069657325744629
1783170419538572800,2.17157275390625,-0.19604142010211945,-0.10788193345069885,1.1662384271621704
1783170419548642800,2.181642822265625,-0.2390991598367691,-0.06321659684181213,1.2458137273788452
1783170419558713900,2.1917138671875,-0.2930883467197418,-0.020031843334436417,1.2884416580200195
1783170419568784000,2.201783935546875,-0.34261325001716614,0.005686444230377674,1.2845321893692017
1783170419578854000,2.21185400390625,-0.38837915658950806,0.013444764539599419,1.2646372318267822
1783170419588924000,2.221923828125,-0.406391441822052,-0.011534751392900944,1.2288330793380737
1783170419598993700,2.23199365234375,-0.4026654064655304,-0.0609813928604126,1.1872984170913696
1783170419609064700,2.242064697265625,-0.38462382555007935,-0.16364625096321106,1.165123701095581
1783170419619135000,2.252135009765625,-0.36572548747062683,-0.2631526291370392,1.1554778814315796
1783170419629204700,2.262204833984375,-0.34370675683021545,-0.3739200234413147,1.1561440229415894
1783170419639274800,2.272274658203125,-0.31883949041366577,-0.4635990262031555,1.1444815397262573
1783170419649345000,2.282344970703125,-0.29785457253456116,-0.4940410554409027,1.0728814601898193
1783170419659416000,2.292416015625,-0.30748698115348816,-0.46026208996772766,0.9428004026412964
1783170419669485800,2.30248583984375,-0.34306469559669495,-0.4158003330230713,0.7822367548942566
1783170419679555800,2.312555908203125,-0.3802570700645447,-0.3843880891799927,0.6363844871520996
1783170419689625900,2.3226259765625,-0.40207740664482117,-0.368267297744751,0.5388877987861633
1783170419699695900,2.33269580078125,-0.3961702585220337,-0.3601230978965759,0.4813539385795593
1783170419709766000,2.342765869140625,-0.3660629391670227,-0.33428457379341125,0.4275100529193878
1783170419719837000,2.3528369140625,-0.3268204629421234,-0.2745082974433899,0.3699977695941925
1783170419729906700,2.36290673828125,-0.2852032780647278,-0.1729717254638672,0.2899846136569977
1783170419739977000,2.37297705078125,-0.26239997148513794,-0.06424684077501297,0.19640059769153595
1783170419750046700,2.383046630859375,-0.24480867385864258,0.03184708207845688,0.09699952602386475
1783170419760116700,2.39311669921875,-0.23290327191352844,0.11003003269433975,0.018813645467162132
1783170419770187800,2.403187744140625,-0.21045629680156708,0.16049745678901672,-0.03843742236495018
1783170419780258000,2.413258056640625,-0.19279927015304565,0.19918067753314972,-0.09621550142765045
1783170419790327800,2.423327880859375,-0.17383864521980286,0.20957592129707336,-0.16528744995594025
1783170419800397800,2.433397705078125,-0.15155251324176788,0.1922493875026703,-0.2371842861175537
1783170419810467800,2.4434677734375,-0.1209472045302391,0.14652132987976074,-0.2768595516681671
1783170419820539000,2.453538818359375,-0.07323960214853287,0.09678146243095398,-0.26787111163139343
1783170419830609000,2.46360888671875,-0.028025485575199127,0.06323176622390747,-0.22142305970191956
1783170419840679000,2.473678955078125,0.005662170238792896,0.055246010422706604,-0.16184388101100922
1783170419850748700,2.483748779296875,0.021212344989180565,0.09936659783124924,-0.13346000015735626
1783170419860819000,2.49381884765625,0.02370506338775158,0.17818443477153778,-0.1562502682209015
1783170419870890000,2.503889892578125,0.02268882840871811,0.2551318407058716,-0.23591795563697815
1783170419880959700,2.513959716796875,0.02570219524204731,0.2950851023197174,-0.3472743034362793
1783170419891029800,2.52402978515625,0.05127091705799103,0.2930913269519806,-0.4482642412185669
1783170419901100000,2.53410009765625,0.10703324526548386,0.2333771288394928,-0.4842486083507538
1783170419911169800,2.544169677734375,0.16924148797988892,0.12465424090623856,-0.45322108268737793
1783170419921240800,2.55424072265625,0.24340493977069855,-0.015213110484182835,-0.3769494891166687
1783170419931310800,2.564310791015625,0.32931798696517944,-0.17818471789360046,-0.2852320671081543
1783170419941380900,2.574380859375,0.43697014451026917,-0.32357680797576904,-0.18096290528774261
1783170419951451000,2.584450927734375,0.5425783395767212,-0.4224131107330322,-0.09783338755369186
1783170419961521000,2.59452099609375,0.639053463935852,-0.48551884293556213,-0.04119407385587692
1783170419971590100,2.604590087890625,0.7372525334358215,-0.5221343636512756,0.029763009399175644
1783170419981661200,2.6146611328125,0.8469217419624329,-0.5332722067832947,0.11247359961271286
1783170419991731200,2.624731201171875,0.9285231232643127,-0.5217007994651794,0.19390074908733368
1783170420001801000,2.634801025390625,0.9603214859962463,-0.5143818855285645,0.2617027163505554
1783170420011871000,2.64487109375,0.9545397758483887,-0.5369439125061035,0.30692338943481445
1783170420021941000,2.65494091796875,0.9810798168182373,-0.5636913776397705,0.33444076776504517
1783170420032012000,2.665011962890625,1.060013771057129,-0.5696680545806885,0.351342111825943
1783170420042082000,2.67508203125,1.1493641138076782,-0.5573932528495789,0.35690838098526
1783170420052152000,2.685152099609375,1.182029128074646,-0.5474352240562439,0.3328537046909332
1783170420062222000,2.69522216796875,1.1309601068496704,-0.5573893189430237,0.2564489543437958
1783170420072292000,2.7052919921875,1.0216256380081177,-0.5726056694984436,0.13930019736289978
1783170420082362000,2.715362060546875,0.891528844833374,-0.5824492573738098,-0.0004491847939789295
1783170420092433000,2.725432861328125,0.7708682417869568,-0.5493879318237305,-0.12586994469165802
1783170420102503200,2.735503173828125,0.7028194069862366,-0.5148739814758301,-0.21940602362155914
1783170420112573200,2.7455732421875,0.6805047988891602,-0.5296191573143005,-0.27320432662963867
1783170420122643000,2.755642822265625,0.6714236736297607,-0.5984102487564087,-0.27861958742141724
1783170420132713000,2.765712890625,0.6623383164405823,-0.680217981338501,-0.23953764140605927
1783170420142784000,2.775783935546875,0.6436892747879028,-0.7410757541656494,-0.1654311865568161
1783170420152854000,2.78585400390625,0.6045455932617188,-0.7647029161453247,-0.09366028010845184
1783170420162924000,2.795924072265625,0.5437008738517761,-0.7275169491767883,-0.07707038521766663
1783170420172994000,2.805994140625,0.4604185223579407,-0.607105016708374,-0.11813203990459442
1783170420183064000,2.81606396484375,0.3690377473831177,-0.4387732744216919,-0.19787481427192688
1783170420193135000,2.826135009765625,0.27276045083999634,-0.23907242715358734,-0.3239682614803314
1783170420203205000,2.836205078125,0.16900025308132172,-0.007466898299753666,-0.497003436088562
1783170420213275000,2.84627490234375,0.07107208669185638,0.23866991698741913,-0.7061686515808105
1783170420223345200,2.85634521484375,-0.021412573754787445,0.4822191894054413,-0.9384487271308899
1783170420233415200,2.866415283203125,-0.10441292077302933,0.7036498188972473,-1.1685056686401367
1783170420243485000,2.87648486328125,-0.17177651822566986,0.8684419989585876,-1.359401822090149
1783170420253556000,2.886555908203125,-0.22143380343914032,0.9347012639045715,-1.4799485206604004
1783170420263626000,2.8966259765625,-0.2533278167247772,0.9109522700309753,-1.51551353931427
1783170420273696000,2.906696044921875,-0.2773783206939697,0.8537176251411438,-1.4986085891723633
1783170420283766000,2.91676611328125,-0.2718954086303711,0.7517849206924438,-1.4768625497817993
1783170420293836000,2.9268359375,-0.24866409599781036,0.6423549056053162,-1.4657456874847412
1783170420303907000,2.936906982421875,-0.22583122551441193,0.567356288433075,-1.472780466079712
1783170420313977000,2.94697705078125,-0.20570224523544312,0.5715653300285339,-1.5163451433181763
1783170420324047000,2.957047119140625,-0.1904178410768509,0.6430259346961975,-1.565910816192627
1783170420334117000,2.9671171875,-0.1711197942495346,0.7479603290557861,-1.6287574768066406
1783170420344187100,2.977187255859375,-0.15182891488075256,0.8554034233093262,-1.6850935220718384
1783170420354257200,2.987257080078125,-0.10067997127771378,0.9541633725166321,-1.7126368284225464
1783170420364328200,2.997328125,-0.035225868225097656,1.045864224433899,-1.6899311542510986
1783170420374398000,3.00739794921875,0.01679179258644581,1.1109083890914917,-1.6230846643447876
1783170420384468000,3.017468017578125,0.04826955497264862,1.1593457460403442,-1.5503978729248047
1783170420394538200,3.027538330078125,0.05349041521549225,1.2053636312484741,-1.4893549680709839
1783170420404608000,3.03760791015625,0.045980304479599,1.2592096328735352,-1.4654983282089233
1783170420414679000,3.047678955078125,0.021207062527537346,1.2954001426696777,-1.4722079038619995
1783170420424749000,3.0577490234375,-0.00013684225268661976,1.2980483770370483,-1.4799286127090454
1783170420434819000,3.067819091796875,-0.017087064683437347,1.258509874343872,-1.4588223695755005
1783170420444889000,3.07788916015625,-0.01722927764058113,1.1858984231948853,-1.4143270254135132
1783170420454959000,3.087958984375,0.004330088384449482,1.112233281135559,-1.3352652788162231
1783170420465029000,3.098029052734375,0.051121294498443604,1.0713067054748535,-1.24495267868042
1783170420475100200,3.10810009765625,0.09974846988916397,1.0674848556518555,-1.1571117639541626
1783170420485170200,3.118170166015625,0.14988194406032562,1.0607755184173584,-1.0740387439727783
1783170420495240000,3.128239990234375,0.1914309859275818,1.0612192153930664,-1.0152900218963623
1783170420505310000,3.13831005859375,0.21372297406196594,1.0625920295715332,-0.985460638999939
1783170420515380200,3.148380126953125,0.24191814661026,1.0518851280212402,-0.9903360605239868
1783170420525451000,3.158450927734375,0.2697247564792633,1.0179921388626099,-0.9981862306594849
1783170420535521000,3.16852099609375,0.2970151901245117,0.9525771141052246,-0.9982950687408447
1783170420545591000,3.178591064453125,0.3237259089946747,0.8691256046295166,-0.9685640335083008
1783170420555661000,3.1886611328125,0.3445896506309509,0.7879695296287537,-0.919921338558197
1783170420565731000,3.19873095703125,0.3527890145778656,0.715309739112854,-0.8578478693962097
1783170420575801000,3.208801025390625,0.34574785828590393,0.672355592250824,-0.7951605319976807
1783170420585872100,3.2188720703125,0.33029085397720337,0.7027643322944641,-0.7601996064186096
1783170420595942100,3.228942138671875,0.2996107339859009,0.8018640279769897,-0.7593374848365784
1783170420606012200,3.23901220703125,0.250434935092926,0.9313660860061646,-0.7933130264282227
1783170420616082000,3.24908203125,0.17633487284183502,1.0629255771636963,-0.8649522662162781
1783170420626152000,3.25915185546875,0.08191807568073273,1.1972682476043701,-0.9687362313270569
1783170420636222200,3.26922216796875,-0.006570233032107353,1.3065294027328491,-1.0653642416000366
1783170420646293200,3.279293212890625,-0.07808462530374527,1.3923225402832031,-1.1320264339447021
1783170420656363000,3.289363037109375,-0.1407591998577118,1.4443516731262207,-1.1665505170822144
1783170420666433000,3.29943310546875,-0.2001093327999115,1.4493944644927979,-1.1699817180633545
1783170420676503000,3.3095029296875,-0.2510620057582855,1.4248615503311157,-1.1591297388076782
1783170420686573000,3.319572998046875,-0.2927466034889221,1.3640990257263184,-1.1432777643203735
1783170420696644000,3.32964404296875,-0.2978079319000244,1.2643030881881714,-1.114798903465271
1783170420706714000,3.339714111328125,-0.2614046633243561,1.1337471008300781,-1.056918740272522
1783170420716784000,3.3497841796875,-0.1843692511320114,0.9741342067718506,-0.9642524719238281
1783170420726854100,3.359854248046875,-0.09135701507329941,0.8025187849998474,-0.856701135635376
1783170420736924200,3.369924072265625,-0.008629141375422478,0.6427391171455383,-0.7658886909484863
1783170420746994000,3.379993896484375,0.056970372796058655,0.5357878804206848,-0.7027413845062256
1783170420757065000,3.39006494140625,0.07976891845464706,0.48976126313209534,-0.6806237697601318
1783170420767135200,3.40013525390625,0.06896021217107773,0.4754787087440491,-0.6791103482246399
1783170420777205000,3.410205078125,0.03262564539909363,0.4756293296813965,-0.6752296686172485
1783170420787275000,3.42027490234375,-0.020578190684318542,0.5054354071617126,-0.6586938500404358
1783170420797345300,3.43034521484375,-0.08810742944478989,0.5818551182746887,-0.6397953033447266
1783170420807416000,3.440416015625,-0.16421951353549957,0.7168744206428528,-0.604354977607727
1783170420817486000,3.450486083984375,-0.2443593591451645,0.874951183795929,-0.5484150052070618
1783170420827556000,3.46055615234375,-0.3291567862033844,1.040067434310913,-0.4658079743385315
1783170420837625900,3.4706259765625,-0.40480440855026245,1.173465609550476,-0.37339434027671814
1783170420847696100,3.480696044921875,-0.48051780462265015,1.2368206977844238,-0.2719185948371887
1783170420857766100,3.49076611328125,-0.5479764938354492,1.2185555696487427,-0.17498929798603058
1783170420867837000,3.5008369140625,-0.6290572285652161,1.1513242721557617,-0.0796598345041275
1783170420877907000,3.510906982421875,-0.7182920575141907,1.0526121854782104,-0.01535151805728674
1783170420887977200,3.520977294921875,-0.822284460067749,0.9601170420646667,0.010458773002028465
1783170420898047000,3.531046875,-0.9157262444496155,0.8811883926391602,-0.010755474679172039
1783170420908117000,3.541116943359375,-0.9962440133094788,0.8406897187232971,-0.05718262493610382
1783170420918187300,3.551187255859375,-1.0566213130950928,0.8078645467758179,-0.11094126105308533
1783170420928258000,3.561258056640625,-1.100759744644165,0.7604855895042419,-0.18044842779636383
1783170420938328000,3.571328125,-1.1462182998657227,0.6402842998504639,-0.2647869884967804
1783170420948398000,3.581398193359375,-1.1839540004730225,0.5245310664176941,-0.34214943647384644
1783170420958467800,3.5914677734375,-1.1887556314468384,0.47948306798934937,-0.4128112196922302
1783170420968538000,3.6015380859375,-1.1684902906417847,0.4631778597831726,-0.48788225650787354
1783170420978607600,3.611607666015625,-1.1050083637237549,0.4619312286376953,-0.5624098181724548
1783170420988678700,3.6216787109375,-1.0423667430877686,0.4719068706035614,-0.6562100648880005
1783170420998748700,3.631748779296875,-1.000052571296692,0.4715656042098999,-0.7380970120429993
1783170421008818700,3.641818603515625,-0.9935894012451172,0.44446128606796265,-0.7994990944862366
1783170421018888700,3.651888671875,-1.0124847888946533,0.4076261818408966,-0.826819121837616
1783170421028958700,3.661958740234375,-1.0611196756362915,0.36756423115730286,-0.8440319299697876
1783170421039029800,3.67202978515625,-1.1202330589294434,0.3279281258583069,-0.8450191020965576
1783170421049099800,3.682099853515625,-1.166732907295227,0.2844294011592865,-0.848120927810669
1783170421059169800,3.692169677734375,-1.1952687501907349,0.2873319983482361,-0.8602861762046814
1783170421069239600,3.702239501953125,-1.1983041763305664,0.3371270000934601,-0.8792020678520203
1783170421079309800,3.712309814453125,-1.2017450332641602,0.4115592837333679,-0.8994587063789368
1783170421089379800,3.7223798828125,-1.210603952407837,0.5144387483596802,-0.9325743317604065
1783170421099451000,3.732450927734375,-1.2286477088928223,0.6503727436065674,-0.970599353313446
1783170421109520600,3.742520751953125,-1.2517226934432983,0.7846533060073853,-1.0078847408294678
1783170421119590700,3.752590576171875,-1.266408085823059,0.8872275352478027,-1.041602373123169
1783170421129660700,3.76266064453125,-1.277776837348938,0.947711169719696,-1.0713222026824951
1783170421139730700,3.772730712890625,-1.2877867221832275,0.9683398008346558,-1.0942670106887817
1783170421149800700,3.78280078125,-1.2855530977249146,0.9700983166694641,-1.125566005706787
1783170421159871700,3.792871826171875,-1.272400975227356,0.945598840713501,-1.1619898080825806
1783170421169941800,3.802941650390625,-1.2389048337936401,0.9094765186309814,-1.1933610439300537
1783170421180011800,3.81301171875,-1.179423451423645,0.8624249696731567,-1.2172542810440063
1783170421190081800,3.823081787109375,-1.1045928001403809,0.8044421076774597,-1.2432470321655273
1783170421200151800,3.83315185546875,-1.0159796476364136,0.7503536939620972,-1.2620223760604858
1783170421210221800,3.843221923828125,-0.9157230854034424,0.697018563747406,-1.2840068340301514
1783170421220292900,3.85329296875,-0.8139503598213196,0.6416708827018738,-1.3148504495620728
1783170421230362600,3.863362548828125,-0.7150970101356506,0.5818525552749634,-1.3410180807113647
1783170421240432600,3.8734326171875,-0.6192293763160706,0.5218461155891418,-1.3613344430923462
1783170421250503000,3.8835029296875,-0.5293828248977661,0.4658885598182678,-1.374929666519165
1783170421260572700,3.89357275390625,-0.45010077953338623,0.40552255511283875,-1.3906127214431763
1783170421270642700,3.903642578125,-0.392923504114151,0.3542524576187134,-1.4344866275787354
1783170421280713700,3.913713623046875,-0.36094239354133606,0.32502758502960205,-1.5007280111312866
1783170421290783700,3.92378369140625,-0.34812942147254944,0.32029223442077637,-1.5819627046585083
1783170421300853800,3.933853759765625,-0.35381391644477844,0.3245210647583008,-1.6660423278808594
1783170421310923800,3.943923828125,-0.3632252514362335,0.31946930289268494,-1.7226313352584839
1783170421320993500,3.95399365234375,-0.3608609139919281,0.31773972511291504,-1.778490424156189
1783170421331063800,3.964063720703125,-0.3526434600353241,0.33327099680900574,-1.8532564640045166
1783170421341134800,3.974134765625,-0.33506181836128235,0.35651785135269165,-1.9371274709701538
1783170421351204600,3.98420458984375,-0.30155685544013977,0.39405083656311035,-2.0210485458374023
1783170421361274600,3.994274658203125,-0.2706306278705597,0.451459676027298,-2.0804684162139893
1783170421371345000,4.004344970703125,-0.23997284471988678,0.5187510848045349,-2.121521234512329
1783170421381414700,4.01441455078125,-0.21707817912101746,0.5785490870475769,-2.1387789249420166
1783170421391485700,4.024485595703125,-0.19992795586585999,0.6351750493049622,-2.1425628662109375
1783170421401555700,4.0345556640625,-0.19546610116958618,0.6969654560089111,-2.1511237621307373
1783170421411625700,4.044625732421875,-0.19500590860843658,0.747489869594574,-2.183307409286499
1783170421421695700,4.05469580078125,-0.20364518463611603,0.7755753397941589,-2.2273106575012207
1783170421431765800,4.064765869140625,-0.2134578675031662,0.7751609086990356,-2.269435405731201
1783170421441835500,4.07483544921875,-0.204970121383667,0.7711879014968872,-2.306861162185669
1783170421451905800,4.08490576171875,-0.1744023561477661,0.7737618088722229,-2.3230724334716797
1783170421461976800,4.094976806640625,-0.11781896650791168,0.7866523265838623,-2.297497034072876
1783170421472046600,4.105046630859375,-0.07083334773778915,0.7866137027740479,-2.2358319759368896
1783170421482116600,4.11511669921875,-0.04800419509410858,0.7791972160339355,-2.157813310623169
1783170421492187000,4.125186767578125,-0.03805196285247803,0.774455189704895,-2.089521646499634
1783170421502256600,4.135256591796875,-0.04456711560487747,0.7952470183372498,-2.050105571746826
1783170421512326700,4.14532666015625,-0.05507408827543259,0.8385646343231201,-2.0315749645233154
1783170421522397700,4.155397705078125,-0.06583752483129501,0.8985967040061951,-2.033327102661133
1783170421532468000,4.165468017578125,-0.08272302895784378,0.9591359496116638,-2.0585155487060547
1783170421542537700,4.175537841796875,-0.08430228382349014,1.0095309019088745,-2.091172695159912
1783170421552607700,4.185607666015625,-0.06691743433475494,1.0601963996887207,-2.1140453815460205
1783170421562677500,4.195677490234375,-0.026315150782465935,1.0873411893844604,-2.1103250980377197
1783170421572747800,4.205747802734375,0.026510514318943024,1.0820199251174927,-2.080791711807251
1783170421582818800,4.21581884765625,0.08017614483833313,1.0724836587905884,-2.0520260334014893
1783170421592888800,4.225888916015625,0.1313660889863968,1.0415406227111816,-2.0099246501922607
1783170421602958600,4.23595849609375,0.18854071199893951,0.9905416965484619,-1.950011968612671
1783170421613028900,4.24602880859375,0.23295958340168,0.9158679842948914,-1.8574447631835938
1783170421623098600,4.2560986328125,0.26247936487197876,0.8339476585388184,-1.7438470125198364
1783170421633168600,4.266168701171875,0.2747642695903778,0.7725799083709717,-1.6322654485702515
1783170421643239700,4.27623974609375,0.2747434973716736,0.751963198184967,-1.5599720478057861
1783170421653309700,4.286309814453125,0.2721003293991089,0.7680598497390747,-1.5319207906723022
1783170421663379700,4.296379638671875,0.26670822501182556,0.8198595643043518,-1.5314545631408691
1783170421673449700,4.30644970703125,0.26800596714019775,0.9045946598052979,-1.5526189804077148
1783170421683519700,4.316519775390625,0.26033660769462585,1.01050865650177,-1.5800950527191162
1783170421693589800,4.32658984375,0.23928749561309814,1.1123671531677246,-1.6082571744918823
1783170421703660800,4.336660888671875,0.19801490008831024,1.1846542358398438,-1.625137209892273
1783170421713730800,4.346730712890625,0.14917786419391632,1.2201571464538574,-1.6189706325531006
1783170421723800600,4.356800537109375,0.10528789460659027,1.2315226793289185,-1.6108863353729248
1783170421733870800,4.366870849609375,0.06416868418455124,1.2471567392349243,-1.6053125858306885
1783170421743940900,4.37694091796875,0.032608360052108765,1.243145227432251,-1.597764492034912
1783170421754010600,4.3870107421875,0.017362559214234352,1.2344497442245483,-1.605984091758728
1783170421764081700,4.39708154296875,-0.0004960466176271439,1.2370730638504028,-1.6280652284622192
1783170421774151700,4.407151611328125,-0.027646707370877266,1.2713309526443481,-1.6628797054290771
1783170421784221700,4.4172216796875,-0.06242519989609718,1.3088549375534058,-1.6997365951538086
1783170421794291700,4.427291748046875,-0.08428442478179932,1.3268650770187378,-1.7205883264541626
1783170421804361700,4.43736181640625,-0.09886550903320312,1.3161511421203613,-1.7135027647018433
1783170421814431700,4.447431640625,-0.1068938672542572,1.2956080436706543,-1.6754417419433594
1783170421824502800,4.457502685546875,-0.11424844712018967,1.2543625831604004,-1.6120198965072632
1783170421834572800,4.46757275390625,-0.1199345663189888,1.2267625331878662,-1.5672788619995117
1783170421844642600,4.477642578125,-0.11737073957920074,1.2158722877502441,-1.5631859302520752
1783170421854712800,4.487712890625,-0.1132470965385437,1.2146639823913574,-1.59261953830719
1783170421864782800,4.497782958984375,-0.1030738353729248,1.2066400051116943,-1.632897138595581
1783170421874852600,4.5078525390625,-0.0863899290561676,1.208181381225586,-1.6825469732284546
1783170421884923600,4.517923583984375,-0.06488196551799774,1.21476411819458,-1.721218466758728
1783170421894993700,4.52799365234375,-0.035941921174526215,1.2214444875717163,-1.7392078638076782
1783170421905063700,4.538063720703125,-0.01844841241836548,1.2398978471755981,-1.7383307218551636
1783170421915133700,4.5481337890625,-0.021734751760959625,1.2418559789657593,-1.7226630449295044
1783170421925203700,4.55820361328125,-0.03141321986913681,1.228341817855835,-1.7151739597320557
1783170421935273700,4.568273681640625,-0.048283547163009644,1.2237073183059692,-1.7026379108428955
1783170421945343700,4.57834375,-0.07165491580963135,1.252610445022583,-1.6697198152542114
1783170421955414800,4.588414794921875,-0.10444961488246918,1.2776271104812622,-1.607903003692627
1783170421965484500,4.598484619140625,-0.13951358199119568,1.2867512702941895,-1.5365180969238281
1783170421975554800,4.608554931640625,-0.1672687828540802,1.3024358749389648,-1.4745231866836548
1783170421985624800,4.618624755859375,-0.19606447219848633,1.3326606750488281,-1.4221198558807373
1783170421995694600,4.628694580078125,-0.2312440425157547,1.3578813076019287,-1.385149359703064
1783170422005764600,4.6387646484375,-0.26543158292770386,1.3782709836959839,-1.3814889192581177
1783170422015835600,4.648835693359375,-0.3092919886112213,1.3876597881317139,-1.3808906078338623
1783170422025905700,4.65890576171875,-0.3503057062625885,1.3960661888122559,-1.3781882524490356
1783170422035975700,4.6689755859375,-0.3869260549545288,1.3836750984191895,-1.3733452558517456
1783170422046045700,4.679045654296875,-0.41935402154922485,1.3389443159103394,-1.3514158725738525
1783170422056115700,4.68911572265625,-0.4399013817310333,1.266580581665039,-1.3130301237106323
1783170422066185700,4.699185791015625,-0.46433186531066895,1.1783045530319214,-1.2474359273910522
1783170422076256800,4.7092568359375,-0.4982501268386841,1.10044527053833,-1.2170740365982056
1783170422086326500,4.719326416015625,-0.5235403776168823,1.074249029159546,-1.2340418100357056
1783170422096396800,4.729396728515625,-0.523784875869751,1.0794003009796143,-1.2764673233032227
1783170422106466800,4.739466796875,-0.47715210914611816,1.1022453308105469,-1.2803806066513062
1783170422116536600,4.74953662109375,-0.3920941948890686,1.133758544921875,-1.232184886932373
1783170422126606600,4.759606689453125,-0.3032202124595642,1.1433520317077637,-1.1473549604415894
1783170422136676900,4.7696767578125,-0.24041356146335602,1.085945725440979,-1.0690475702285767
1783170422146747600,4.77974755859375,-0.22041189670562744,1.003588318824768,-1.0325454473495483
1783170422156817700,4.789817626953125,-0.22729723155498505,0.9125295877456665,-1.0395196676254272
1783170422166887700,4.7998876953125,-0.2779087424278259,0.8399596214294434,-1.0594894886016846
1783170422176957700,4.809957763671875,-0.3447895050048828,0.7876842021942139,-1.040480613708496
1783170422187027700,4.82002783203125,-0.4101810157299042,0.7270846366882324,-0.9856237173080444
1783170422197097700,4.83009765625,-0.46605175733566284,0.6266860961914062,-0.891522228717804
1783170422207168500,4.84016845703125,-0.48335298895835876,0.46466246247291565,-0.7744873762130737
1783170422217238800,4.85023876953125,-0.4591411352157593,0.28622719645500183,-0.654387354850769
1783170422227308800,4.860308837890625,-0.40293216705322266,0.13370370864868164,-0.5268554091453552
1783170422237378600,4.870378662109375,-0.335888147354126,-0.0004527624696493149,-0.37694552540779114
1783170422247448600,4.880448486328125,-0.2945023775100708,-0.12494702637195587,-0.20554907619953156
1783170422257518800,4.890518798828125,-0.28964608907699585,-0.25820332765579224,-0.04238732531666756
1783170422267589600,4.900589599609375,-0.3270741403102875,-0.398091197013855,0.0760379433631897
1783170422277659600,4.91065966796875,-0.4081841707229614,-0.5643209218978882,0.1497688889503479
1783170422287729700,4.920729736328125,-0.5099729299545288,-0.7096304893493652,0.23063862323760986
1783170422297799700,4.930799560546875,-0.63974529504776,-0.8463326692581177,0.35535523295402527
1783170422307869700,4.94086962890625,-0.7667633891105652,-0.9755059480667114,0.4865589737892151
1783170422317939700,4.950939697265625,-0.8918502330780029,-1.0802786350250244,0.6453915238380432
1783170422328009700,4.961009765625,-1.015216588973999,-1.1928364038467407,0.7896163463592529
1783170422338080800,4.971080810546875,-1.114486813545227,-1.2815172672271729,0.8701199889183044
1783170422348150800,4.98115087890625,-1.1927903890609741,-1.408631682395935,0.8743718266487122
1783170422358220500,4.991220458984375,-1.272674322128296,-1.4799185991287231,0.8115686178207397
1783170422368290600,5.00129052734375,-1.2937829494476318,-1.4759438037872314,0.7152331471443176
1783170422378360800,5.01136083984375,-1.3695216178894043,-1.7560529708862305,0.5654225945472717
1783170422388430600,5.0214306640625,-1.5544135570526123,-2.2828452587127686,0.44333428144454956
1783170422398501600,5.031501708984375,-1.4230952262878418,-1.7518967390060425,0.2608337104320526
1783170422408571600,5.041571533203125,-1.183631181716919,-0.7528610229492188,0.3110690414905548
1783170422418641700,5.0516416015625,-0.9708245992660522,-0.015036770142614841,0.8460355401039124
1783170422428711700,5.061711669921875,-0.8113090395927429,0.39358893036842346,1.4002187252044678
1783170422438781700,5.07178173828125,-0.7375498414039612,0.34642621874809265,1.595342993736267
1783170422448851700,5.081851806640625,-0.8835219740867615,0.23117074370384216,1.5102975368499756
1783170422458921700,5.091921630859375,-1.2452162504196167,0.14837093651294708,1.0598989725112915
1783170422468992800,5.10199267578125,-1.6050763130187988,0.034829720854759216,0.45731666684150696
1783170422479062800,5.112062744140625,-1.8040482997894287,-0.04931844770908356,-0.021772973239421844
1783170422489132500,5.122132568359375,-1.857118010520935,-0.005839277058839798,-0.24588102102279663
1783170422499202800,5.132202880859375,-1.802431583404541,0.15628623962402344,-0.2554428279399872
1783170422509272600,5.1422724609375,-1.722196340560913,0.33020973205566406,-0.1303444355726242
1783170422519342600,5.152342529296875,-1.6808151006698608,0.4429716467857361,0.03612629696726799
1783170422529413600,5.16241357421875,-1.6751903295516968,0.5007043480873108,0.19360052049160004
1783170422539484000,5.17248388671875,-1.6751694679260254,0.553821861743927,0.3003078103065491
1783170422549553700,5.1825537109375,-1.6781202554702759,0.6064366698265076,0.34111860394477844
1783170422559623700,5.192623779296875,-1.6907979249954224,0.6923896670341492,0.3117966651916504
1783170422569693400,5.202693359375,-1.684016227722168,0.8418673872947693,0.21104086935520172
1783170422579763700,5.212763671875,-1.6561646461486816,1.052223563194275,0.07565721124410629
1783170422589833700,5.222833740234375,-1.6234047412872314,1.3329719305038452,-0.08737725019454956
1783170422599904800,5.23290478515625,-1.6226603984832764,1.6523104906082153,-0.23748286068439484
1783170422609974500,5.242974609375,-1.6246336698532104,1.912466049194336,-0.3188699781894684
1783170422620044800,5.253044921875,-1.6056737899780273,2.083592414855957,-0.30845195055007935
1783170422630114800,5.26311474609375,-1.5475833415985107,2.1505260467529297,-0.21037384867668152
1783170422640184600,5.2731845703125,-1.4738699197769165,2.15512752532959,-0.08939070999622345
1783170422650254800,5.2832548828125,-1.449097752571106,2.1659748554229736,0.03169453889131546
1783170422660324600,5.29332470703125,-1.4494661092758179,2.1622586250305176,0.11491566151380539
1783170422670395600,5.303395751953125,-1.4576044082641602,2.1602375507354736,0.1390407234430313
1783170422680462600,5.313462646484375,-1.4617735147476196,2.1999013423919678,0.06742885708808899
1783170422690533600,5.32353369140625,-1.4723750352859497,2.3779492378234863,-0.05897645652294159
1783170422700603600,5.333603759765625,-1.4860717058181763,2.6445815563201904,-0.17083215713500977
1783170422710673700,5.343673583984375,-1.4982045888900757,2.969099521636963,-0.24772469699382782
1783170422720743700,5.35374365234375,-1.4835231304168701,3.292116641998291,-0.28359454870224
1783170422730813700,5.363813720703125,-1.4232932329177856,3.6549384593963623,-0.2749832272529602
1783170422740883700,5.3738837890625,-1.4421545267105103,4.17898416519165,-0.31604862213134766
1783170422750954800,5.383954833984375,-1.5376008749008179,4.5516581535339355,-0.3582967519760132
1783170422761024800,5.394024658203125,-1.6391046047210693,4.808518886566162,-0.3689632713794708
1783170422771094800,5.4040947265625,-1.606909155845642,4.741574287414551,-0.36914926767349243
1783170422781164500,5.41416455078125,-1.538246989250183,4.705126762390137,-0.41736844182014465
1783170422791234800,5.42423486328125,-1.4620087146759033,4.65483283996582,-0.4718836843967438
1783170422801304600,5.4343046875,-1.4100481271743774,4.658321380615234,-0.5478929877281189
1783170422811374600,5.44437451171875,-1.4301354885101318,4.533590793609619,-0.5465690493583679
1783170422821445600,5.454445556640625,-1.4499489068984985,4.188397407531738,-0.4585651159286499
1783170422831516000,5.464515869140625,-1.3808321952819824,3.667034149169922,-0.3625870645046234
1783170422841585700,5.474585693359375,-1.216657280921936,3.1674628257751465,-0.32517364621162415
1783170422851655700,5.48465576171875,-1.0349091291427612,2.7781848907470703,-0.351992130279541
1783170422861725700,5.4947255859375,-0.8519017100334167,2.5184905529022217,-0.41559693217277527
1783170422871795700,5.504795654296875,-0.6899601817131042,2.43554949760437,-0.5130345225334167
1783170422881865700,5.51486572265625,-0.5915049910545349,2.293057918548584,-0.5562592148780823
1783170422891936800,5.524936767578125,-0.5531597137451172,1.9886192083358765,-0.49826544523239136
1783170422902006500,5.535006591796875,-0.5119659304618835,1.8021332025527954,-0.36874765157699585
1783170422912076800,5.545076904296875,-0.4445682764053345,1.7341374158859253,-0.24218672513961792
1783170422922146800,5.555146728515625,-0.3735644221305847,1.5962607860565186,-0.16530285775661469
1783170422932216600,5.565216552734375,-0.32227274775505066,1.3777967691421509,-0.1537638157606125
1783170422942286800,5.575286865234375,-0.3041009306907654,1.0775679349899292,-0.17396922409534454
1783170422952356600,5.585356689453125,-0.29903584718704224,0.8343152403831482,-0.22006626427173615
1783170422962427600,5.595427734375,-0.27447646856307983,0.7687215805053711,-0.27550265192985535
1783170422972497700,5.60549755859375,-0.21633191406726837,0.8227091431617737,-0.32321369647979736
1783170422982568000,5.61556787109375,-0.16497525572776794,0.837184488773346,-0.3587423861026764
1783170422992638200,5.62563818359375,-0.1634439378976822,0.8332741856575012,-0.4002583920955658
1783170423002708000,5.6357080078125,-0.18097178637981415,0.9096083641052246,-0.44666585326194763
1783170423012778000,5.645778076171875,-0.21644136309623718,0.9686849117279053,-0.46577680110931396
1783170423022848300,5.65584814453125,-0.22755101323127747,1.0274674892425537,-0.4398495852947235
1783170423032919300,5.665919189453125,-0.2341226488351822,1.0607013702392578,-0.31353193521499634
1783170423042989000,5.675989013671875,-0.20467527210712433,1.1616955995559692,-0.1471935510635376
1783170423053059000,5.68605908203125,-0.13907387852668762,1.2683486938476562,-0.019018102437257767
1783170423063128800,5.69612890625,-0.09098624438047409,1.229142189025879,-0.00006465194746851921
1783170423073199000,5.70619921875,-0.0649288147687912,1.1269004344940186,-0.08365823328495026
1783170423083269000,5.71626904296875,-0.02301599085330963,0.9954624176025391,-0.25098279118537903
1783170423093339000,5.7263388671875,0.0365607924759388,0.807895302772522,-0.4614546298980713
1783170423103410000,5.736409912109375,0.0983290821313858,0.5174655914306641,-0.6547585725784302
1783170423113480200,5.746480224609375,0.11391869932413101,0.22223851084709167,-0.7789790630340576
1783170423123550000,5.756550048828125,0.05313017964363098,0.01732904091477394,-0.7470024824142456
1783170423133620000,5.766619873046875,-0.07952161133289337,-0.1686490923166275,-0.5232866406440735
1783170423143690000,5.77668994140625,-0.20543000102043152,-0.18949072062969208,-0.1778399795293808
1783170423153760000,5.786760009765625,-0.26825740933418274,-0.2224063277244568,0.16470512747764587
1783170423163830000,5.796830078125,-0.24924646317958832,-0.4257940649986267,0.35730254650115967
1783170423173901000,5.806901123046875,-0.19956998527050018,-0.66737300157547,0.3274182677268982
1783170423183971000,5.81697119140625,-0.1903703659772873,-0.7413495182991028,0.10907848924398422
1783170423194041000,5.827041015625,-0.2116793841123581,-0.65480637550354,-0.22245077788829803
1783170423204111000,5.837111083984375,-0.22199220955371857,-0.5081636309623718,-0.5556526780128479
1783170423214180900,5.847180908203125,-0.23975229263305664,-0.3760419487953186,-0.7913150787353516
1783170423224251100,5.857251220703125,-0.2979029417037964,-0.3780480921268463,-0.8380314707756042
1783170423234322200,5.867322265625,-0.4147653877735138,-0.4616813361644745,-0.6188387870788574
1783170423244392200,5.87739208984375,-0.45992833375930786,-0.3488194942474365,-0.27713844180107117
1783170423254462000,5.8874619140625,-0.4395865499973297,-0.15413233637809753,0.010403305292129517
1783170423264532000,5.897531982421875,-0.3865742087364197,0.007260293234139681,0.07274018228054047
1783170423274602200,5.907602294921875,-0.3244812786579132,0.11928457021713257,-0.05278603732585907
1783170423284672000,5.917672119140625,-0.28924500942230225,0.23034317791461945,-0.25315800309181213
1783170423294742000,5.927741943359375,-0.263566255569458,0.28204938769340515,-0.5213711857795715
1783170423304812000,5.93781201171875,-0.20871900022029877,0.292935848236084,-0.7439368963241577
1783170423314883000,5.947883056640625,-0.16328202188014984,0.3382479250431061,-0.8619458079338074
1783170423324953000,5.957953125,-0.13190412521362305,0.24952685832977295,-0.9276641011238098
1783170423335023000,5.968023193359375,-0.09580710530281067,0.040417976677417755,-0.9497280120849609
1783170423345093000,5.978093017578125,-0.08923175930976868,-0.09428763389587402,-0.8510140180587769
1783170423355163100,5.9881630859375,-0.06337086856365204,-0.25150373578071594,-0.6698102355003357
1783170423365233000,5.99823291015625,-0.01472023781388998,-0.3273431062698364,-0.4593896269798279
1783170423375304000,6.008303955078125,0.03324835002422333,-0.31203168630599976,-0.2658735513687134
1783170423385374000,6.0183740234375,0.08824954926967621,-0.24136710166931152,-0.1392708718776703
1783170423395444200,6.0284443359375,0.1473027467727661,-0.1295718550682068,-0.06398066878318787
1783170423405514000,6.038513916015625,0.19728654623031616,-0.013708108104765415,-0.013168086297810078
1783170423415584000,6.048583984375,0.23529012501239777,0.05232737213373184,0.04441666603088379
1783170423425654300,6.058654296875,0.26352736353874207,0.08344294875860214,0.10032547265291214
1783170423435724000,6.06872412109375,0.26623260974884033,0.12215478718280792,0.06941591203212738
1783170423445794000,6.0787939453125,0.2694062888622284,0.17451520264148712,0.002737548900768161
1783170423455865000,6.088864990234375,0.25371015071868896,0.29650288820266724,-0.059269655495882034
1783170423465935000,6.09893505859375,0.26287275552749634,0.34348586201667786,-0.11227907985448837
1783170423476005000,6.109005126953125,0.29643577337265015,0.3777606189250946,-0.10688893496990204
1783170423486075100,6.1190751953125,0.35791030526161194,0.3986022472381592,-0.07299115508794785
1783170423496145000,6.129144775390625,0.42007356882095337,0.409157931804657,-0.03329409286379814
1783170423506215200,6.139215087890625,0.4605024755001068,0.4168906807899475,-0.011544320732355118
1783170423516285000,6.149284912109375,0.4840557277202606,0.4159286320209503,0.01482667401432991
1783170423526356000,6.15935595703125,0.4895205497741699,0.35973992943763733,0.08220358937978745
1783170423536426000,6.169426025390625,0.48378702998161316,0.24226228892803192,0.17855331301689148
1783170423546496300,6.179496337890625,0.4589346647262573,0.06740978360176086,0.2321893721818924
1783170423556566000,6.18956591796875,0.4354698359966278,-0.09730711579322815,0.2078501135110855
1783170423566636000,6.199635986328125,0.43856948614120483,-0.15927301347255707,0.1959359347820282
1783170423576706000,6.2097060546875,0.4630415141582489,-0.1870422065258026,0.23264585435390472
1783170423586776000,6.219776123046875,0.4965222477912903,-0.18243467807769775,0.2969883680343628
1783170423596847000,6.22984716796875,0.550635039806366,-0.15212935209274292,0.36541175842285156
1783170423606917000,6.239917236328125,0.6334601044654846,-0.11310233175754547,0.4301028549671173
1783170423616987000,6.24998681640625,0.7088690996170044,-0.07644832134246826,0.46759817004203796
1783170423627057200,6.26005712890625,0.757236897945404,-0.05933750793337822,0.46169766783714294
1783170423637127200,6.270127197265625,0.7653111219406128,-0.037914376705884933,0.44838038086891174
1783170423647197000,6.280197021484375,0.747809648513794,0.04131706431508064,0.4464796781539917
1783170423657267200,6.29026708984375,0.7154359817504883,0.10929557681083679,0.42728495597839355
1783170423667338200,6.300338134765625,0.6674990653991699,0.09512756764888763,0.41052889823913574
1783170423677408000,6.310407958984375,0.6052029132843018,0.010975800454616547,0.4266730844974518
1783170423687478000,6.32047802734375,0.5202470421791077,-0.08055784553289413,0.47680363059043884
1783170423697548000,6.330548095703125,0.3961533308029175,-0.16088436543941498,0.4938340187072754
1783170423707618000,6.3406181640625,0.270781546831131,-0.1706525832414627,0.4419572353363037
1783170423717688000,6.35068798828125,0.21227723360061646,-0.11892639100551605,0.3373449742794037
1783170423727758000,6.360758056640625,0.22418315708637238,-0.022411039099097252,0.22290949523448944
1783170423737828900,6.370828857421875,0.2603651285171509,0.06397391855716705,0.10797596722841263
1783170423747899100,6.380899169921875,0.303279846906662,0.08476334810256958,0.04618291184306145
1783170423757969200,6.39096923828125,0.3294602930545807,0.03728477656841278,0.030454538762569427
1783170423768039000,6.401038818359375,0.3396759331226349,-0.003726039081811905,0.053062912076711655
1783170423778109200,6.411109130859375,0.3575635850429535,-0.02282782830297947,0.0815747082233429
1783170423788179200,6.42117919921875,0.3820151388645172,-0.03217019885778427,0.10110340267419815
1783170423798249000,6.4312490234375,0.38478055596351624,-0.02554783970117569,0.11007335782051086
1783170423808319000,6.441319091796875,0.37758177518844604,-0.02862219512462616,0.1374828815460205
1783170423818390000,6.45139013671875,0.35210517048835754,-0.07317768037319183,0.20100300014019012
1783170423828460000,6.4614599609375,0.30821681022644043,-0.16291235387325287,0.2935803234577179
1783170423838530000,6.471530029296875,0.25476208329200745,-0.24309416115283966,0.3690027594566345
1783170423848600000,6.48160009765625,0.2033015787601471,-0.27163365483283997,0.3872978985309601
1783170423858670000,6.491670166015625,0.17114363610744476,-0.227005735039711,0.33469828963279724
1783170423868740000,6.501739990234375,0.15095527470111847,-0.11031534522771835,0.25514301657676697
1783170423878810000,6.51181005859375,0.1566203534603119,0.014266017824411392,0.20784053206443787
1783170423888881000,6.521880859375,0.18246980011463165,0.08677750080823898,0.2326766401529312
1783170423898951200,6.531951171875,0.21852260828018188,0.06259945034980774,0.2890293598175049
1783170423909021200,6.542021240234375,0.24116426706314087,-0.03407968580722809,0.32237479090690613
1783170423919091000,6.552091064453125,0.24861659109592438,-0.10806096345186234,0.3248901963233948
1783170423929161000,6.562160888671875,0.24747702479362488,-0.16030579805374146,0.29028135538101196
1783170423939231200,6.572231201171875,0.2536821961402893,-0.17509779334068298,0.2327839434146881
1783170423949301000,6.582301025390625,0.2555040717124939,-0.16232259571552277,0.17984457314014435
1783170423959372000,6.5923720703125,0.24764986336231232,-0.13174685835838318,0.13958793878555298
1783170423969442000,6.602442138671875,0.23330821096897125,-0.14156220853328705,0.1275312751531601
1783170423979512300,6.61251220703125,0.2108825296163559,-0.21787534654140472,0.10630165040493011
1783170423989582300,6.622582275390625,0.19609853625297546,-0.2821829617023468,0.07780902087688446
1783170423999652400,6.63265234375,0.1814548671245575,-0.31051287055015564,0.07225873321294785
1783170424009722000,6.64272216796875,0.16634595394134521,-0.30094146728515625,0.08323947340250015
1783170424019792400,6.65279248046875,0.16051256656646729,-0.2907322347164154,0.10080116987228394
1783170424029862400,6.6628623046875,0.16280820965766907,-0.31736305356025696,0.11326369643211365
1783170424039933200,6.67293310546875,0.1563630998134613,-0.3719053566455841,0.09193870425224304
1783170424050003200,6.683003173828125,0.14968256652355194,-0.38772428035736084,0.02448216825723648
1783170424060073500,6.693073486328125,0.14493334293365479,-0.3554266691207886,-0.054675377905368805
1783170424070143200,6.703143310546875,0.14376021921634674,-0.2918578088283539,-0.10355876386165619
1783170424080213200,6.713213134765625,0.14213062822818756,-0.24212996661663055,-0.1241665780544281
1783170424090283500,6.723283447265625,0.13872471451759338,-0.23922018706798553,-0.12454554438591003
1783170424100353300,6.733353271484375,0.1348426342010498,-0.2694489061832428,-0.10929466784000397
1783170424110423300,6.74342333984375,0.12716074287891388,-0.32493242621421814,-0.08394164592027664
1783170424120494300,6.753494384765625,0.11229736357927322,-0.35301730036735535,-0.058201927691698074
1783170424130564000,6.763564208984375,0.11512404680252075,-0.3461040258407593,-0.03508835285902023
1783170424140634400,6.77363427734375,0.11055566370487213,-0.34424901008605957,-0.03864114731550217
1783170424150704400,6.783704345703125,0.09673279523849487,-0.3504736125469208,-0.09780246764421463
1783170424160774100,6.793774169921875,0.07699263840913773,-0.35812991857528687,-0.1858833134174347
1783170424170844400,6.803844482421875,0.061236582696437836,-0.3694014847278595,-0.24842366576194763
1783170424180914400,6.81391455078125,0.05414804443717003,-0.3909374177455902,-0.29856112599372864
1783170424190985200,6.823985107421875,0.04003915190696716,-0.37960007786750793,-0.3577403128147125
1783170424201055200,6.83405517578125,0.029265601187944412,-0.3073446452617645,-0.41333791613578796
1783170424211125200,6.844125244140625,0.02738247998058796,-0.24983659386634827,-0.4571163058280945
1783170424221195300,6.8541953125,0.016585757955908775,-0.2378178834915161,-0.48543912172317505
1783170424231265300,6.864265380859375,-0.004860411398112774,-0.27913469076156616,-0.48735713958740234
1783170424241335300,6.874335205078125,-0.02743203565478325,-0.3635410666465759,-0.4139379560947418
1783170424251405300,6.8844052734375,-0.04339715465903282,-0.44859737157821655,-0.3026055693626404
1783170424261475300,6.894475341796875,-0.05506978556513786,-0.49002590775489807,-0.20098984241485596
1783170424271546400,6.90454638671875,-0.0501655749976635,-0.4566570222377777,-0.15198954939842224
1783170424281616100,6.9146162109375,-0.040764614939689636,-0.3711651563644409,-0.18312041461467743
1783170424291686400,6.924686279296875,-0.035158928483724594,-0.31216469407081604,-0.279297798871994
1783170424301756400,6.93475634765625,-0.04041441157460213,-0.2742381989955902,-0.388908326625824
1783170424311826200,6.944826171875,-0.06052740290760994,-0.2919895052909851,-0.46749261021614075
1783170424321896200,6.954896240234375,-0.08240313827991486,-0.3650747835636139,-0.49707674980163574
1783170424331966500,6.964966552734375,-0.09991182386875153,-0.4589541256427765,-0.4705665707588196
1783170424342036200,6.9750361328125,-0.10795643925666809,-0.5512694120407104,-0.4181259870529175
1783170424352107300,6.985107177734375,-0.11908179521560669,-0.6309336423873901,-0.36093461513519287
1783170424362177300,6.99517724609375,-0.13609379529953003,-0.6930498480796814,-0.30552607774734497
1783170424372247300,7.005247314453125,-0.16772203147411346,-0.6964526176452637,-0.2516295611858368
1783170424382317300,7.0153173828125,-0.20154869556427002,-0.6231014132499695,-0.20079490542411804
1783170424392387300,7.02538720703125,-0.22297649085521698,-0.4749923646450043,-0.1533466875553131
1783170424402457300,7.035457275390625,-0.22080309689044952,-0.3015534579753876,-0.1286919265985489
1783170424412527400,7.04552734375,-0.21388046443462372,-0.15221403539180756,-0.1287475973367691
1783170424422597400,7.055597412109375,-0.20798291265964508,-0.01081668771803379,-0.15490753948688507
1783170424432668200,7.065668212890625,-0.20189519226551056,0.15848179161548615,-0.17797823250293732
1783170424442738200,7.07573828125,-0.17841967940330505,0.318592369556427,-0.18433548510074615
1783170424452808400,7.085808349609375,-0.1548890620470047,0.40311604738235474,-0.15751931071281433
1783170424462878200,7.095878173828125,-0.14112983644008636,0.40453991293907166,-0.09997998178005219
1783170424472948200,7.1059482421875,-0.146385058760643,0.3468798100948334,-0.007621023803949356
1783170424483018500,7.1160185546875,-0.15699003636837006,0.2712891697883606,0.10432389378547668
1783170424493088300,7.126088134765625,-0.14406438171863556,0.22012637555599213,0.20755866169929504
1783170424503158300,7.136158203125,-0.11991962790489197,0.20294739305973053,0.284525603055954
1783170424513229300,7.146229248046875,-0.09056040644645691,0.18458355963230133,0.3354385793209076
1783170424523299300,7.15629931640625,-0.0726168155670166,0.1536438912153244,0.3806282877922058
1783170424533369300,7.166369384765625,-0.06894645094871521,0.09262367337942123,0.42438483238220215
1783170424543439400,7.176439453125,-0.07737082988023758,0.009844111278653145,0.4711374044418335
1783170424553509000,7.186509033203125,-0.09912113845348358,-0.06764615327119827,0.5057675838470459
1783170424563579400,7.196579345703125,-0.1399575173854828,-0.13297349214553833,0.5223295092582703
1783170424573649400,7.2066494140625,-0.1988527774810791,-0.1873943954706192,0.5107599496841431
1783170424583719200,7.21671923828125,-0.2550707757472992,-0.23681719601154327,0.4744001626968384
1783170424593790200,7.226790283203125,-0.3161330819129944,-0.2446439564228058,0.42664968967437744
1783170424603860500,7.236860595703125,-0.3659546971321106,-0.2082500159740448,0.3942987024784088
1783170424613930200,7.24693017578125,-0.3919229209423065,-0.13586023449897766,0.3628169298171997
1783170424624000300,7.257000244140625,-0.4052634835243225,-0.05929674580693245,0.333238810300827
1783170424634070300,7.2670703125,-0.4037388265132904,0.01483207568526268,0.29856231808662415
1783170424644140300,7.277140380859375,-0.3872528076171875,0.09501586854457855,0.26365602016448975
1783170424654210300,7.287210205078125,-0.3601761758327484,0.14968417584896088,0.25919416546821594
1783170424664280300,7.2972802734375,-0.3355579078197479,0.18517890572547913,0.2832671105861664
1783170424674351000,7.30735107421875,-0.3168276250362396,0.21315541863441467,0.3207380771636963
1783170424684421400,7.31742138671875,-0.29544296860694885,0.2602076232433319,0.3446977138519287
1783170424694491400,7.327491455078125,-0.27547112107276917,0.31450095772743225,0.35705506801605225
1783170424704561200,7.33756103515625,-0.2559658885002136,0.3642987310886383,0.3561531901359558
1783170424714631400,7.34763134765625,-0.22529426217079163,0.3831920027732849,0.3596443235874176
1783170424724701400,7.357701416015625,-0.1938079595565796,0.3579380214214325,0.3439455032348633
1783170424734771200,7.367771240234375,-0.15722838044166565,0.321288138628006,0.31416285037994385
1783170424744841200,7.37784130859375,-0.11605405062437057,0.2886556386947632,0.2862454950809479
1783170424754912300,7.387912353515625,-0.0736975371837616,0.24054192006587982,0.26039549708366394
1783170424764982300,7.397982177734375,-0.027995025739073753,0.1736166626214981,0.2379613071680069
1783170424775052300,7.40805224609375,0.0027908501215279102,0.09997786581516266,0.22245611250400543
1783170424785122300,7.418122314453125,0.02817770093679428,0.034135594964027405,0.21225205063819885
1783170424795192300,7.4281923828125,0.04950695484876633,-0.04349315166473389,0.21458792686462402
1783170424805262300,7.438262451171875,0.07780596613883972,-0.10978548228740692,0.23043839633464813
1783170424815332400,7.448332275390625,0.11978378146886826,-0.1529228240251541,0.24908798933029175
1783170424825402400,7.45840234375,0.15749840438365936,-0.17489883303642273,0.27642202377319336
1783170424835473400,7.468473388671875,0.19312964379787445,-0.16988728940486908,0.3137270510196686
1783170424845543400,7.47854345703125,0.2126828283071518,-0.14792872965335846,0.3430785536766052
1783170424855613200,7.48861328125,0.22543831169605255,-0.11550074815750122,0.368683785200119
1783170424865683200,7.49868310546875,0.2320762425661087,-0.08076541125774384,0.37403246760368347
1783170424875753500,7.50875341796875,0.24463383853435516,-0.047178953886032104,0.3484725058078766
1783170424885823200,7.5188232421875,0.2550092339515686,-0.005793708376586437,0.30460917949676514
1783170424895893200,7.528893310546875,0.27640774846076965,0.03081224113702774,0.2408219277858734
1783170424905963500,7.538963623046875,0.3078879117965698,0.045448049902915955,0.17126323282718658
1783170424916033300,7.549033203125,0.3485272228717804,0.05900700017809868,0.11240977793931961
1783170424926104300,7.559104248046875,0.3819805085659027,0.07393668591976166,0.07435347139835358
1783170424936174300,7.56917431640625,0.39347043633461,0.08055943250656128,0.05485993251204491
1783170424946244400,7.579244384765625,0.38678058981895447,0.05223698168992996,0.05667061358690262
1783170424956314400,7.589314453125,0.3851478099822998,-0.001944766379892826,0.06816988438367844
1783170424966384400,7.59938427734375,0.3947261571884155,-0.05491863191127777,0.08659536391496658
1783170424976454100,7.6094541015625,0.4196813106536865,-0.10166829079389572,0.09106387943029404
1783170424986524000,7.61952392578125,0.4696195423603058,-0.164081871509552,0.08804731070995331
1783170424996594000,7.629593994140625,0.522322416305542,-0.267077773809433,0.050773970782756805
1783170425006665000,7.6396650390625,0.5762767791748047,-0.3991642892360687,-0.03420308977365494
1783170425016735000,7.64973486328125,0.5668123960494995,-0.42270103096961975,-0.22005978226661682
1783170425026805000,7.659804931640625,0.48013851046562195,-0.3177538514137268,-0.5236534476280212
1783170425036875000,7.669875,0.33025258779525757,-0.10743309557437897,-0.869310200214386
1783170425046944800,7.67994482421875,0.1169096976518631,0.15408159792423248,-1.153830885887146
1783170425057015000,7.69001513671875,-0.04360248148441315,0.16730497777462006,-1.030564308166504
1783170425067085000,7.7000849609375,-0.08705994486808777,0.04260432720184326,-0.6361768841743469
1783170425077154800,7.71015478515625,-0.060755372047424316,-0.0793982744216919,-0.24153311550617218
1783170425087225000,7.72022509765625,0.07546877861022949,-0.1382024735212326,-0.010631725192070007
1783170425097296000,7.7302958984375,0.3131881356239319,-0.11703700572252274,0.025022409856319427
1783170425107366100,7.7403662109375,0.7228246331214905,-0.10846654325723648,0.010948543436825275
1783170425117436000,7.750435791015625,1.0296211242675781,-0.14336299896240234,0.1061171367764473
1783170425127506000,7.760505859375,1.1545685529708862,-0.3493681252002716,0.2773464024066925
1783170425137576000,7.770575927734375,1.2061814069747925,-0.5739162564277649,0.479900598526001
1783170425147646000,7.78064599609375,1.2238770723342896,-0.697907030582428,0.5930379629135132
1783170425157716000,7.790716064453125,1.1850855350494385,-0.7022922039031982,0.575122058391571
1783170425167786000,7.800785888671875,1.1225848197937012,-0.5996167063713074,0.4801776707172394
1783170425177857000,7.81085693359375,1.0677835941314697,-0.43740808963775635,0.39132317900657654
1783170425187927000,7.820927001953125,1.0245498418807983,-0.2645532190799713,0.3161868751049042
1783170425197996800,7.830996826171875,1.0065239667892456,-0.09645821899175644,0.25784769654273987
1783170425208066800,7.84106689453125,1.0369915962219238,0.01985161006450653,0.22552114725112915
1783170425218137000,7.85113720703125,1.1211422681808472,0.07472550868988037,0.199229896068573
1783170425228206800,7.861206787109375,1.2272896766662598,0.07386650890111923,0.19958211481571198
1783170425238276900,7.87127685546875,1.323668122291565,0.02217988297343254,0.23291850090026855
1783170425248347100,7.88134716796875,1.391932725906372,-0.053584519773721695,0.3061174750328064
1783170425258417000,7.8914169921875,1.4392666816711426,-0.11355490982532501,0.4246659576892853
1783170425268488000,7.901488037109375,1.466752290725708,-0.1898864358663559,0.546445906162262
1783170425278558000,7.911557861328125,1.488924503326416,-0.27923229336738586,0.631406843662262
1783170425288628000,7.9216279296875,1.5079985857009888,-0.34637710452079773,0.6700114011764526
1783170425298698000,7.931697998046875,1.5198440551757812,-0.38984736800193787,0.6734894514083862
1783170425308768000,7.94176806640625,1.5171390771865845,-0.42380931973457336,0.6790264844894409
1783170425318837800,7.951837646484375,1.4876383543014526,-0.39963260293006897,0.7418632507324219
1783170425328908000,7.961907958984375,1.4536985158920288,-0.3613159954547882,0.8309175968170166
1783170425338978000,7.97197802734375,1.446077585220337,-0.35874709486961365,0.9052991271018982
1783170425349047800,7.9820478515625,1.4568496942520142,-0.38703903555870056,0.9499258995056152
1783170425359118800,7.992118896484375,1.461356520652771,-0.4037085771560669,0.9616270065307617
1783170425369189000,8.002189208984374,1.4573580026626587,-0.3859998881816864,0.9440181851387024
1783170425379259000,8.0122587890625,1.436578631401062,-0.33453747630119324,0.933210015296936
1783170425389329000,8.022328857421876,1.4030442237854004,-0.28428152203559875,0.932248055934906
1783170425399399200,8.032399169921876,1.3719233274459839,-0.2520309090614319,0.9338129162788391
1783170425409469000,8.042468994140625,1.336664080619812,-0.2166740894317627,0.9312902688980103
1783170425419539000,8.0525390625,1.3159124851226807,-0.18880784511566162,0.9124457836151123
1783170425429609000,8.06260888671875,1.295562744140625,-0.15790879726409912,0.8974089622497559
1783170425439679700,8.0726796875,1.2778972387313843,-0.1108294278383255,0.8997501730918884
1783170425449750000,8.08275,1.2630577087402344,-0.042343851178884506,0.9429439902305603
1783170425459820000,8.092820068359375,1.2566219568252563,0.023261258378624916,1.0574883222579956
1783170425469889800,8.102889892578125,1.2678509950637817,0.03872690349817276,1.2071245908737183
1783170425479960000,8.1129599609375,1.2981561422348022,-0.03432599827647209,1.3592298030853271
1783170425490030000,8.123030029296874,1.3369959592819214,-0.14846456050872803,1.4508997201919556
1783170425500099800,8.133099853515626,1.3689326047897339,-0.24223792552947998,1.4898450374603271
1783170425510169900,8.143169921875,1.390857219696045,-0.2977047860622406,1.4743437767028809
1783170425520240000,8.153240234375,1.3894414901733398,-0.3102724850177765,1.4067326784133911
1783170425530311000,8.163310791015626,1.394503116607666,-0.32847413420677185,1.3307594060897827
1783170425540381000,8.173380859375,1.371126413345337,-0.34212470054626465,1.247380018234253
1783170425550451000,8.183450927734375,1.2918500900268555,-0.33429035544395447,1.1665618419647217
1783170425560521000,8.19352099609375,1.2420036792755127,-0.3385697901248932,1.1030750274658203
1783170425570591000,8.203591064453125,1.2212469577789307,-0.3447689414024353,1.0525906085968018
1783170425580661000,8.213660888671875,1.2146213054656982,-0.33602872490882874,1.0042833089828491
1783170425590731000,8.22373095703125,1.1873822212219238,-0.2821560502052307,0.9345397353172302
1783170425600801000,8.233801025390624,1.1465524435043335,-0.20334964990615845,0.8637726306915283
1783170425610871000,8.24387109375,1.1051470041275024,-0.12440836429595947,0.7890191078186035
1783170425620941800,8.25394189453125,1.08083176612854,-0.05458027869462967,0.7155438661575317
1783170425631011800,8.26401171875,1.0590851306915283,-0.00994129478931427,0.6491444706916809
1783170425641082000,8.27408203125,1.052293300628662,-0.0023281155154109,0.6212372183799744
1783170425651152000,8.28415185546875,1.0520800352096558,-0.02112523838877678,0.6416404247283936
1783170425661222000,8.294221923828125,1.053635597229004,-0.06918969750404358,0.6982585191726685
1783170425671292200,8.304292236328125,1.0579997301101685,-0.13332781195640564,0.745268702507019
1783170425681362000,8.31436181640625,1.0515774488449097,-0.1839829981327057,0.7589184641838074
1783170425691432000,8.324431884765625,1.0394207239151,-0.19147206842899323,0.7299816608428955
1783170425701502200,8.334502197265625,1.018725037574768,-0.15782329440116882,0.6826407313346863
1783170425711573000,8.344572998046875,0.9924702048301697,-0.12253721803426743,0.6345006823539734
1783170425721643000,8.35464306640625,0.962998628616333,-0.10528472810983658,0.5903449654579163
1783170425731713000,8.364713134765625,0.9223281145095825,-0.08924517035484314,0.5418292284011841
1783170425741782800,8.37478271484375,0.8908399939537048,-0.0686727836728096,0.49785107374191284
1783170425751853000,8.38485302734375,0.8648531436920166,-0.049044761806726456,0.45603999495506287
1783170425761923000,8.394923095703126,0.8368156552314758,-0.03644401580095291,0.39848774671554565
1783170425771992800,8.404992919921876,0.8063799738883972,-0.012045984156429768,0.3354203701019287
1783170425782063000,8.41506298828125,0.7817966341972351,0.02305953949689865,0.29441168904304504
1783170425792132900,8.4251328125,0.7521274089813232,0.03202945739030838,0.2774309515953064
1783170425802204000,8.435203857421875,0.7060858607292175,0.06331866979598999,0.2857336401939392
1783170425812274000,8.44527392578125,0.6665688157081604,0.1373113989830017,0.3290041387081146
1783170425822344200,8.45534423828125,0.6531643271446228,0.23986919224262238,0.38887545466423035
1783170425832414000,8.4654140625,0.6509725451469421,0.3436076045036316,0.442099004983902
1783170425842484000,8.47548388671875,0.6547656655311584,0.4063316881656647,0.4599936008453369
1783170425852554000,8.485553955078124,0.658004879951477,0.4315620958805084,0.46498286724090576
1783170425862624000,8.4956240234375,0.6644132733345032,0.459013432264328,0.4948640763759613
1783170425872694000,8.505694091796874,0.6691507697105408,0.48141512274742126,0.5406494140625
1783170425882763800,8.515763671875,0.6758406162261963,0.472436785697937,0.5883125066757202
1783170425892834000,8.525833984375,0.681622326374054,0.43908190727233887,0.6182617545127869
1783170425902905000,8.535905029296876,0.6895955801010132,0.40983960032463074,0.6118576526641846
1783170425912975000,8.54597509765625,0.7010431885719299,0.4235847294330597,0.5967756509780884
1783170425923044900,8.556044921875,0.7174309492111206,0.4649832844734192,0.576177179813385
1783170425933115000,8.566114990234375,0.7247897982597351,0.521746039390564,0.5641355514526367
1783170425943185200,8.57618505859375,0.7179846167564392,0.5527657270431519,0.5300577282905579
1783170425953255000,8.5862548828125,0.7065019011497498,0.544605553150177,0.5181686282157898
1783170425963325000,8.596324951171875,0.6995267868041992,0.49989426136016846,0.5067723989486694
1783170425973395000,8.60639501953125,0.6815719604492188,0.4572310745716095,0.4811569154262543
1783170425983465200,8.61646533203125,0.6789698004722595,0.46276673674583435,0.4589903652667999
1783170425993536300,8.626536376953124,0.6995171308517456,0.48502758145332336,0.4550715386867523
1783170426003606300,8.636606201171874,0.7123786211013794,0.5101174712181091,0.45095935463905334
1783170426013676300,8.64667626953125,0.7178632020950317,0.5297453999519348,0.4479847252368927
1783170426023746300,8.656746337890626,0.7305209040641785,0.5217862725257874,0.4397132098674774
1783170426033816300,8.66681640625,0.7474040389060974,0.5131940841674805,0.4348470866680145
1783170426043886300,8.67688623046875,0.7709119915962219,0.4884365499019623,0.42805764079093933
1783170426053956400,8.686956298828125,0.8013242483139038,0.4557020366191864,0.4211704432964325
1783170426064026400,8.6970263671875,0.8314230442047119,0.4725145697593689,0.39987125992774963
1783170426074096000,8.70709619140625,0.8569986820220947,0.5130836963653564,0.3737311065196991
1783170426084166400,8.71716650390625,0.87626713514328,0.5500425100326538,0.326062947511673
1783170426094237400,8.727237548828125,0.8747361302375793,0.5533292889595032,0.26856595277786255
1783170426104307500,8.737307373046875,0.8632906675338745,0.5451019406318665,0.20149265229701996
1783170426114377200,8.747377197265624,0.8644188046455383,0.585513710975647,0.17175912857055664
1783170426124447200,8.757447265625,0.8863909244537354,0.6400704383850098,0.16186761856079102
1783170426134517200,8.767517333984374,0.9247180819511414,0.6626457571983337,0.19374673068523407
1783170426144587300,8.777587158203126,0.95748370885849,0.6541404128074646,0.24578116834163666
1783170426154657300,8.7876572265625,0.9996599555015564,0.5925188660621643,0.310442179441452
1783170426164727300,8.797727294921875,1.0467188358306885,0.5146568417549133,0.36296024918556213
1783170426174797300,8.80779736328125,1.0964523553848267,0.449979305267334,0.4061782956123352
1783170426184868400,8.817868408203125,1.140589952468872,0.38114699721336365,0.41649484634399414
1783170426194938400,8.8279384765625,1.1550767421722412,0.3259982466697693,0.4035628139972687
1783170426205008400,8.83800830078125,1.1449698209762573,0.29333457350730896,0.38996896147727966
1783170426215078400,8.848078369140625,1.1257067918777466,0.26913243532180786,0.3501713275909424
1783170426225148200,8.858148193359375,1.0999833345413208,0.27750062942504883,0.29055994749069214
1783170426235218200,8.86821826171875,1.0974105596542358,0.3314197361469269,0.264643132686615
1783170426245288400,8.878288330078124,1.0828044414520264,0.36395931243896484,0.25486746430397034
1783170426255358200,8.888358154296874,1.0787103176116943,0.3564164638519287,0.24459990859031677
1783170426265428200,8.89842822265625,1.070751667022705,0.3268822729587555,0.3503250181674957
1783170426275498500,8.90849853515625,1.0584503412246704,0.10001809895038605,0.4132345914840698
1783170426285569300,8.9185693359375,1.0362716913223267,-0.115724578499794,0.4518539011478424
1783170426295639300,8.928639404296876,0.997139573097229,-0.13336814939975739,0.4550514221191406
1783170426305709300,8.938709228515625,0.9678799510002136,0.013120083138346672,0.39699211716651917
1783170426315779300,8.948779296875,0.9459945559501648,0.16901075839996338,0.3189035952091217
1783170426325849300,8.958849365234375,0.8989517092704773,0.24964220821857452,0.2804475426673889
1783170426335919400,8.96891943359375,0.8880615234375,0.3099207580089569,0.3032662868499756
1783170426345989000,8.978989013671875,0.8919587731361389,0.3272254467010498,0.3810252845287323
