time,seconds_elapsed,z,y,x
1783170122832486100,0.065486083984375,1.4946218874067068,-0.38181992747634647,-0.10490392434634267
1783170122842556200,0.07555615234375,1.740408665844798,-0.30727248988375067,-0.031881723559647794
1783170122852625200,0.085625244140625,2.0043600465267897,-0.21634747959449885,0.002510594581440091
1783170122862694100,0.095694091796875,2.1790490894347427,-0.2640668237552047,-0.08375716448649763
1783170122872764200,0.10576416015625,2.1661901923835276,-0.36396366052925583,-0.29575784704834224
1783170122882833200,0.115833251953125,1.912941992023587,-0.4559159680396318,-0.5961198999565095
1783170122892902100,0.125902099609375,2.132473800742626,-0.516310230986774,-0.901605433358252
1783170122902972200,0.13597216796875,2.6478333068758246,-0.6106104167975485,-1.0276597708262503
1783170122913041200,0.146041259765625,3.1962031022071837,-0.611470102366805,-0.9970070045396685
1783170122923111200,0.156111083984375,3.728952134558558,-0.45268516942486164,-0.8666996858023106
1783170122933180200,0.16618017578125,3.9803099911272524,-0.3390666812904179,-0.8144413830377161
1783170122943249200,0.176249267578125,4.383680363893508,-0.22780381637141106,-0.735181529970467
1783170122953319200,0.186319091796875,4.794478840833902,-0.06805880622565746,-0.6360821271844208
1783170122963388200,0.19638818359375,5.01901123431921,0.22174904637709258,-0.6278125306848437
1783170122973457200,0.20645703125,5.114552506232261,0.3597375672668218,-0.8455820059064775
1783170122983527200,0.216527099609375,4.9894917098462575,0.4457493788123131,-1.1464328652448952
1783170122993596200,0.22659619140625,4.7168958349376915,0.7414512578897178,-1.2907444516763091
1783170123003665200,0.2366650390625,4.127136044597625,1.1439670596532523,-1.2679672410704195
1783170123013735200,0.246735107421875,3.2842262535750866,1.5184617588080465,-1.1829712555039673
1783170123023804200,0.25680419921875,2.7210154474645853,1.9158730770394206,-1.0069907845459878
1783170123033874000,0.2668740234375,2.6187270393788813,2.3323349865689873,-0.6577541530273854
1783170123043943200,0.276943115234375,2.78557296757102,2.5935674636811017,-0.5167768255852162
1783170123054012200,0.28701220703125,2.7132524122476576,2.7664836516976354,-0.3912733999982476
1783170123064082200,0.297082275390625,2.254913600975275,2.94154328148365,-0.26300544160138817
1783170123074151000,0.30715087890625,1.6130378389507531,2.9977631813555954,-0.3157998240040615
1783170123084220200,0.31722021484375,1.3082844922810792,2.9085855992555616,-0.48383521770909427
1783170123094290000,0.3272900390625,1.8791659791499375,2.441183337692171,-0.7489268544673919
1783170123104359200,0.337359130859375,2.6824802573651074,1.7803497772194443,-0.9468214163959026
1783170123114428200,0.34742822265625,2.7932839803397655,1.004887820917368,-0.7147237022228539
1783170123124498200,0.357498291015625,2.087801715323329,0.35089272816255684,0.15836663446463645
1783170123134567000,0.36756689453125,0.3792915780425071,-0.04893003512471914,1.1319603224519639
1783170123144638000,0.377637939453125,-1.8373299939393997,-0.21325199779719112,1.9400170459538697
1783170123154707000,0.38770703125,-4.156356293863058,-0.17539529148116706,2.0641464067086575
1783170123164776200,0.397776123046875,-6.455277963390946,0.03602130758240819,1.3728252073831855
1783170123174846000,0.407845947265625,-8.93867298773825,0.23029022635966537,0.9462496078573167
1783170123184915000,0.4179150390625,-11.049670869731903,0.4744968959994614,0.7557184873688966
1783170123194984000,0.42798388671875,-11.375414397460222,0.31011648113802076,0.8723452904738486
1783170123205054000,0.438053955078125,-10.835659870260953,-0.36729075912535186,1.008531072790548
1783170123215123000,0.448123046875,-11.567670661240815,-1.896671825224161,2.264999964573234
1783170123225192200,0.458192138671875,-13.71463709771633,-1.75739063417539,2.3931202946603296
1783170123235262000,0.468261962890625,-15.707115567791462,-1.5675820558078586,2.5665765809029337
1783170123245331000,0.4783310546875,-17.062853300642967,-1.4007394886165856,1.8427623942516742
1783170123255401000,0.48840087890625,-19.34624714617133,-0.6874219999298453,1.4012836784958838
1783170123265470000,0.498469970703125,-23.45569438934326,0.8779118385598063,2.07213302154839
1783170123275539000,0.5085390625,-27.142949654901027,2.5883289785057304,2.815819052752852
1783170123285609000,0.51860888671875,-28.11500020509958,3.453084398372471,2.977898497195542
1783170123295678000,0.528677978515625,-25.983887171316145,2.82388019413352,2.3966567982234057
1783170123305747000,0.538746826171875,-22.31026295622587,1.4245019108675419,1.3335348150022328
1783170123315817200,0.548817138671875,-18.51643532165289,0.2713485051959753,0.22528379637449977
1783170123325886000,0.558885986328125,-14.873987166070938,-0.2845592844247818,-0.5225281921861693
1783170123335956200,0.568956298828125,-11.222123531889915,-0.705385380513221,-0.9531351295873522
1783170123346025000,0.57902490234375,-6.870173354256153,-0.7313035194933414,-0.9726702164668589
1783170123356094200,0.58909423828125,-2.4702865364491937,-0.5416524697750806,-0.47136816951967775
1783170123366164000,0.5991640625,0.15389643024802208,-0.40913127438053487,0.6167033999104052
1783170123376233200,0.609233154296875,1.1864631162077188,0.5198282490450888,1.0913980835042894
1783170123386302000,0.619302001953125,2.5372441034346815,1.2528192101687192,0.36594175566919146
1783170123396372000,0.6293720703125,4.179287087595463,1.0595042311154306,-1.335603584100306
1783170123406441000,0.63944091796875,5.664222278246283,0.030492022766917943,-3.771786483156681
1783170123416511000,0.649510986328125,7.656999439007043,-0.7281890407346189,-5.591503078994155
1783170123426580000,0.659580078125,10.043702852362394,-1.9549429585374891,-6.247241946676373
1783170123436649000,0.66964892578125,11.81225916980505,-1.9994126532524823,-5.862285182479024
1783170123446719000,0.679718994140625,12.408392002308368,-1.9501482716068623,-5.014353179380297
1783170123456788000,0.6897880859375,12.813623492771386,-1.8280486631140112,-4.333689713799953
1783170123466857000,0.69985693359375,12.981024716758727,-1.7204127565205096,-3.9779970380097627
1783170123476927000,0.709927001953125,12.520193504148722,-1.4336897181905806,-3.387195629662275
1783170123486996000,0.719995849609375,11.84879178791046,-0.8640070857174694,-2.6938395635083316
1783170123497065000,0.73006494140625,10.640887824267148,-0.4729572653420269,-2.624350724479556
1783170123507135000,0.740135009765625,9.80084978928864,-0.7187186170779168,-3.408868532288074
1783170123517204000,0.750203857421875,9.517780451160668,-1.4003870219171046,-4.7229292698830365
1783170123527274000,0.76027392578125,9.954742127883433,-2.142092839089781,-5.096769596782327
1783170123537343000,0.770343017578125,10.6962572447896,-2.1572100364618003,-4.458208658394217
1783170123547412000,0.780411865234375,11.092623876273631,-1.601575949215889,-3.1408143924623726
1783170123557482000,0.79048193359375,10.722415768396854,-1.1204968983471393,-2.0021648745700715
1783170123567551000,0.800551025390625,9.973023634505271,-0.5240425057392567,-1.4697338221266865
1783170123577620000,0.810619873046875,8.884602959376574,-0.2084472278639674,-1.2175951904438436
1783170123587690200,0.820690185546875,7.916119746270775,-0.24183482594192027,-1.543562736186385
1783170123597759000,0.830759033203125,8.106444165205955,-0.33057591632083055,-1.904099491006881
1783170123607828000,0.840827880859375,9.595545827886461,-0.6625986704491078,-1.8788534060694275
1783170123617898000,0.85089794921875,10.349002142477035,-0.7832140317335724,-2.5407687704294917
1783170123627967200,0.86096728515625,10.490917043030262,-0.6349436246737837,-2.946203966771066
1783170123638037000,0.871037109375,10.445389802086353,-0.45855727632865306,-2.4852409444749353
1783170123648106000,0.88110595703125,9.769257550194858,0.049973845089226955,-2.27985266579017
1783170123658175000,0.891175048828125,9.14378873309195,0.7535818406663835,-2.0408596391454337
1783170123668245000,0.901244873046875,8.652501007419824,1.196802139392495,-1.754624676593393
1783170123678314000,0.91131396484375,7.964450354197621,1.2723216368876398,-1.805654606606811
1783170123688383000,0.921383056640625,6.970829777225852,1.2274125278420747,-2.1871143224686382
1783170123698453000,0.931452880859375,6.391397904154658,1.295872023823112,-2.675071150152385
1783170123708522000,0.94152197265625,7.006414300826192,1.250934857726842,-2.9445021312892434
1783170123718592000,0.951592041015625,6.84518738155961,1.3966753079175949,-2.656553788948059
1783170123728661000,0.961660888671875,6.407506158390641,2.3156039242595434,-1.8680619629420339
1783170123738730000,0.97172998046875,5.514077894008159,3.2502339676022527,-0.8982768734574318
1783170123748800000,0.981800048828125,3.8225633151918648,3.0752859814971685,-0.5939462822444737
1783170123758869000,0.991868896484375,2.309794361197948,2.1914646266326305,-0.5279240964129567
1783170123768938000,1.00193798828125,1.1984054829359054,0.919257702165842,-0.1621443263724446
1783170123779008000,1.012008056640625,0.20386486850976943,-0.5537313223645091,0.40953269478827714
1783170123789077000,1.022076904296875,-0.5555354491770267,-2.0207576390981674,0.669083064032346
1783170123799146000,1.03214599609375,-1.0452186622619628,-2.777327701795101,1.558298240764439
1783170123809216000,1.042216064453125,-5.095406491735577,-3.992808530433476,2.5227742640554904
1783170123819285000,1.052284912109375,-8.56666221435368,-3.3936183561861513,3.039226826122403
1783170123829355000,1.06235498046875,-10.892993284332752,-3.573694645090401,4.5886453025996685
1783170123839424000,1.072424072265625,-12.805233265566825,-3.531907759718597,5.304759436267614
1783170123849493000,1.082492919921875,-13.998727595585583,-3.8309038580358026,5.2286675457119935
1783170123859563000,1.09256298828125,-14.880372483193874,-4.66805377035737,4.527865255205333
1783170123869632000,1.102632080078125,-15.238348886007069,-5.072379251891374,4.002819344577193
1783170123879701000,1.112700927734375,-14.85975288901329,-4.506706439581513,4.158051407343149
1783170123889771000,1.12277099609375,-16.278097592425347,-2.394421440386772,4.89425234348923
1783170123899840000,1.132840087890625,-20.565843885695934,0.19923837775290013,4.9021091944694515
1783170123909910000,1.142909912109375,-24.678481449341774,2.4139471018508076,4.170222614391148
1783170123919979000,1.15297900390625,-24.570022243666646,3.8851904517576097,3.5519483849674462
1783170123930048000,1.163048095703125,-19.67970870093107,3.811072491623461,2.906591795089841
1783170123940118000,1.173117919921875,-14.62634628419876,2.6675582903042434,1.4165274248570203
1783170123950187000,1.18318701171875,-10.585057800495624,0.9103568950906396,-0.8571515937995166
1783170123960256000,1.193256103515625,-6.297450623434782,-0.4903169809438288,-2.4027992465011776
1783170123970326000,1.203325927734375,-2.2606062596589327,-1.7315405919954179,-2.8031714603647586
1783170123980395000,1.21339501953125,0.4938444244176149,-2.4104843941763043,-1.8874667745053768
1783170123990464000,1.223464111328125,1.5174965670377014,-1.3686420764796434,-0.12025938745364546
1783170124000534000,1.233533935546875,1.9609692330896853,0.05625657862052321,1.722807981093973
1783170124010603000,1.24360302734375,1.5194938783347607,-0.5545696728847921,1.6327815270796417
1783170124020673000,1.253673095703125,0.7606494409650564,-1.273730626902729,0.10651532333204522
1783170124030742000,1.263741943359375,0.7646154219865798,-1.4946761018119752,-0.6189628692749888
1783170124040811000,1.27381103515625,1.4459481651306152,-0.6706621499173343,-0.2546002725560218
1783170124050881000,1.283881103515625,2.725245632380247,-0.307589373813197,0.3010392215173691
1783170124060950000,1.293949951171875,4.4166018057644365,-1.2476030829556286,-0.22733793415902182
1783170124071019000,1.30401904296875,4.861639236915111,-1.745441983836889,-1.0463057268463074
1783170124081089000,1.314089111328125,5.254792167049646,-1.8593349049985408,-1.4157295524775981
1783170124091158000,1.324157958984375,6.086027302369475,-1.6664698616698383,-0.9412719655752182
1783170124101228000,1.33422802734375,6.8423875217080115,-1.0022745696790516,-0.008384528116136788
1783170124111296800,1.344296875,6.572035041812062,-0.007391644621267914,1.141446966591105
1783170124121366000,1.354365966796875,6.285695888233184,0.027644524381309744,1.72368520231992
1783170124131436000,1.36443603515625,6.081127839890122,-0.865585221754387,0.8485320148184895
1783170124141505000,1.374505126953125,6.342768605542182,-1.512749080249667,-0.16130962911397217
1783170124151574000,1.384573974609375,7.090522324576973,-1.4290747717410326,-0.7789223989542573
1783170124161644000,1.39464404296875,7.833851797428727,-1.3998618289992213,-1.117407407899201
1783170124171712800,1.404712646484375,8.498582365339994,-1.887889676092565,-1.5229536633998155
1783170124181781800,1.41478173828125,8.409094986638426,-1.537294615702331,-1.5868436595082283
1783170124191851800,1.424851806640625,7.41696143335402,-0.9199027951363473,-1.1349085777983068
1783170124201921000,1.434921142578125,7.400850841030478,-0.27570304714366795,-0.5536646868690848
1783170124211990800,1.44499072265625,7.700231262490153,-0.022635610178112983,0.05139072614982724
1783170124222060000,1.45506005859375,6.90233141053915,0.1638061221048236,-0.2855639314226806
1783170124232128800,1.465128662109375,5.91887566922903,-0.3008567776225507,-1.4088745720162987
1783170124242199000,1.475198974609375,5.346659134364128,-0.746568454772979,-2.4085769531197845
1783170124252267800,1.485267822265625,5.568472916540503,-0.21519144142717123,-2.265186573186517
1783170124262337000,1.4953369140625,6.284791632869839,0.641196547588706,-1.2362243414595722
1783170124272406800,1.50540673828125,6.4131730981111525,1.0780959727302193,-0.8458256784692406
1783170124282476000,1.51547607421875,5.4774120049118995,0.9023846010372042,-1.6340075617432592
1783170124292545800,1.5255458984375,4.857509005242586,0.5281726643465459,-2.6587778947383165
1783170124302615000,1.535614990234375,4.908897247174382,0.5678415346510708,-2.9216525860995053
1783170124312683800,1.545683837890625,5.116726927661896,0.9889771350800991,-2.76448897074908
1783170124322753800,1.55575390625,4.550974035853147,1.529863442788273,-2.55589736597836
1783170124332822800,1.56582275390625,4.149998449268937,1.7787978716023265,-2.338424827876687
1783170124342892000,1.57589208984375,3.408971992662549,1.8586700113490222,-2.224646473005414
1783170124352961800,1.5859619140625,2.9266952564418314,1.9965292067706584,-1.7781982982739806
1783170124363030800,1.59603076171875,2.784989614725113,1.769344252949953,-1.32110510314852
1783170124373101000,1.60610107421875,2.173035528233647,1.5177151782244442,-1.0185109803393482
1783170124383169800,1.616169677734375,1.6697884846985338,0.9624433484196663,-0.34284342335015533
1783170124393238800,1.62623876953125,0.9858803381085395,0.3151315328210592,0.21551555881500242
1783170124403308800,1.636308837890625,0.8748843074321746,-0.3906792334973812,0.9469295529454946
1783170124413377800,1.646377685546875,-0.21239830357730388,-1.100769284570217,2.029165401959419
1783170124423446800,1.65644677734375,-2.7470430381685493,-1.4016793998152017,3.288499108588695
1783170124433517000,1.66651708984375,-5.113476985955238,-1.3031456680878997,4.874158819009363
1783170124443585800,1.676585693359375,-6.752319128248095,-1.2169921099841594,6.984581823724508
1783170124453654800,1.68665478515625,-6.312182328620553,-1.2955872155323624,8.55067963232398
1783170124463724800,1.696724853515625,-5.961127249503136,-2.5437457404136654,8.459279113477468
1783170124473794000,1.7067939453125,-7.88733438129127,-4.080219979643822,7.239917936274409
1783170124483863800,1.71686376953125,-10.255379271405936,-5.406113193851709,5.597637636226415
1783170124493933000,1.72693310546875,-12.845865720206499,-5.657074160057306,4.459755887836217
1783170124504001800,1.737001708984375,-15.932384458857774,-5.014641348671913,3.5699358770787715
1783170124514072000,1.747072021484375,-18.76440470482707,-3.92397260235548,2.5830928314179182
1783170124524140800,1.757140869140625,-22.878551503992078,-3.1325019066691397,1.907930155210942
1783170124534210000,1.7672099609375,-26.82443900103569,-2.186400621241331,1.5999340272277593
1783170124544279800,1.77727978515625,-26.93214300442934,-0.8327110530912876,1.7963675766929983
1783170124554349000,1.78734912109375,-22.625147236287592,-0.39253158336579796,1.7967045535624027
1783170124564418800,1.797418701171875,-16.35233187241554,-1.1663459185913205,0.8331278902638704
1783170124574487800,1.80748779296875,-9.891244345963,-2.453880176049471,-0.9945296546407043
1783170124584556800,1.817556884765625,-2.8004250842660663,-3.65496452280581,-2.1363652552232146
1783170124594626800,1.827626708984375,2.9016835647821426,-3.693561672225594,-2.2170061873853206
1783170124604695800,1.83769580078125,4.2196641061693425,-2.74740514947921,-2.010043498990685
1783170124614765000,1.84776513671875,2.7086218298375604,-1.6946885326772927,-2.234954954921454
1783170124624834800,1.857834716796875,1.5222650966137647,-1.2346097458697856,-2.8852178754106164
1783170124634903800,1.86790380859375,-0.38146015425324437,-1.0679865205176173,-2.6607202609777447
1783170124644972800,1.877972900390625,-1.4535031105548142,-0.10862331019565462,-1.4097145299717784
1783170124655042800,1.888042724609375,-0.09612696284651756,0.4937174370370805,-0.7274747549854218
1783170124665111800,1.89811181640625,2.6088340063959357,0.10063844892159103,-1.0826205374825746
1783170124675181800,1.908181884765625,5.140390127322077,-0.16269509212300182,-1.5397943235635756
1783170124685251000,1.9182509765625,7.312864514541626,-0.3176535986445844,-1.230926527312398
1783170124695319800,1.92831982421875,8.838195428466797,-0.16265081458985806,-1.023169912061095
1783170124705390000,1.93839013671875,9.318476606956123,0.24940496893525121,-0.10205679128691554
1783170124715458800,1.948458740234375,8.836200455257297,0.4951889708943665,0.020902064383774996
1783170124725527800,1.95852783203125,8.5357217171669,0.7000704691007733,0.3175895204324275
1783170124735597800,1.968597900390625,8.531076521709561,0.7776487988218664,0.26523937466591596
1783170124745667000,1.9786669921875,8.697111718040704,0.5022196001835167,-0.2099763371273875
1783170124755736800,1.98873681640625,9.70955506890416,0.004096037141978741,-0.693308427619934
1783170124765806000,1.99880615234375,11.284112078291177,-0.3968785265289247,-1.245016427463293
1783170124775874800,2.008874755859375,11.99929916024208,-0.47128947826027867,-1.5899819575339555
1783170124785944800,2.01894482421875,11.541969233751296,0.04508461174294352,-1.21824547104612
1783170124796013800,2.029013916015625,10.400582692110538,0.746533091198653,-0.5164158833183348
1783170124806083000,2.0390830078125,9.603205987250805,1.1211246748566628,-0.4480786254774779
1783170124816152800,2.04915283203125,9.197246767035127,1.1569086665518582,-0.9991684203572571
1783170124826221800,2.059221923828125,8.978010726392268,0.9496811897411942,-1.7272686137646436
1783170124836291800,2.069291748046875,9.184449829304217,0.7963707426875829,-2.127507702767849
1783170124846360800,2.07936083984375,9.152547209087013,0.9411763962462544,-2.3506541948527095
1783170124856429800,2.089429931640625,8.730175783252715,1.101757711085677,-2.5521464890122414
1783170124866499800,2.099499755859375,8.648921395367383,1.1312887798659503,-2.617493113669753
1783170124876568800,2.10956884765625,8.23592277803421,1.3905042180672287,-2.256633556635678
1783170124886637800,2.119637939453125,7.409720960706472,1.9647278549708425,-1.7230971732988953
1783170124896707800,2.129707763671875,6.648958122494816,2.5949028039380906,-1.2787941939026117
1783170124906776800,2.13977685546875,6.419317592215537,2.8680332241147757,-1.0797477585252373
1783170124916845800,2.149845703125,6.6940475565433495,2.8835628016799686,-1.1471296884026378
1783170124926915800,2.159915771484375,7.094279631283879,2.6472277421981096,-1.3398274854056536
1783170124936984800,2.16998486328125,7.245248191386461,2.4944576856315135,-1.4835845066942275
1783170124947054800,2.180054931640625,6.882454159158468,2.472306644099951,-1.4527366562269628
1783170124957124000,2.1901240234375,5.49453148201704,2.629251940524578,-1.4514961546465754
1783170124967192800,2.20019287109375,3.845950035998225,2.929716942350566,-1.3207239948764442
1783170124977262800,2.210262939453125,3.033812399858236,3.2149519340798256,-0.9192964267410337
1783170124987331800,2.220331787109375,2.9044162046164272,3.165715317223966,-0.4945287534199655
1783170124997400800,2.23040087890625,2.5758517742484806,2.6800068529888987,-0.04421162830069661
1783170125007470800,2.240470947265625,2.070003608304262,1.777472029826045,0.3355221405513584
1783170125017540000,2.2505400390625,1.4393261166423559,0.6288970379859209,0.914211963083595
1783170125027609900,2.26060986328125,-0.09787059164345265,-0.15650690500736236,1.9031039040982722
1783170125037678800,2.270678955078125,-2.6931588877677917,-0.7746893644943833,3.1242496266305446
1783170125047747800,2.280747802734375,-4.3668923106998205,-1.6156082739606499,3.383965561699867
1783170125057817900,2.29081787109375,-5.237760952749848,-2.985059182605147,2.946558479297161
1783170125067886800,2.300886962890625,-6.633846478080749,-4.667415472453833,2.62561153819561
1783170125077955800,2.310955810546875,-7.568825480991602,-6.081749186658859,1.7870055818468331
1783170125088025900,2.32102587890625,-9.681146136021614,-6.956831062489748,0.9179021228384227
1783170125098094800,2.3310947265625,-12.973291492158173,-7.055197328695654,0.0849410405088216
1783170125108164900,2.341164794921875,-17.714992682528496,-6.185139418506622,-0.04116889960393309
1783170125118233900,2.35123388671875,-23.386977995991707,-4.344556852512062,0.5577313517861068
1783170125128302800,2.361302734375,-27.445491170740127,-2.576905082693696,0.8104447146169841
1783170125138372900,2.371372802734375,-29.668470002794265,-1.7031281519815324,0.05420790246240794
1783170125148441600,2.381441650390625,-29.861100360584256,-1.5179387578472494,-1.4402555064469575
1783170125158510600,2.391510498046875,-27.84405560452938,-1.7018810745298862,-2.445737201604247
1783170125168580900,2.401580810546875,-23.47529925352335,-2.091732332770526,-2.136730289143324
1783170125178649600,2.411649658203125,-17.9387429857254,-2.1440289217188955,-0.9227707517880945
1783170125188719900,2.421719970703125,-12.507110735213756,-1.9553911406964062,0.5044632509244605
1783170125198788600,2.43178857421875,-8.58268103674054,-1.9499258610278367,1.1629865251608191
1783170125208857900,2.44185791015625,-4.994693954664468,-2.1240546397045255,1.012719683586806
1783170125218927600,2.451927734375,-1.009925230562687,-2.1325863212063907,0.7197881460055708
1783170125228996900,2.461996826171875,2.1830630012512207,-2.213849769181013,0.47425983584057535
1783170125239065600,2.472065673828125,3.454860468134284,-1.928867583169043,0.07875204967558383
1783170125249135600,2.482135498046875,2.5176807403087613,-1.5940438001453876,-0.5426875484438612
1783170125259204600,2.49220458984375,1.7078554727643727,-1.444986042100191,-1.2217670693010092
1783170125269273900,2.50227392578125,2.0840093373030424,-1.2451046902686356,-1.20991325763911
1783170125279343600,2.512343505859375,3.2845956714093685,-0.38703751599416136,-0.6675142803456634
1783170125289412900,2.522412841796875,4.437792477831244,-0.022980478093028067,-0.4798869184747338
1783170125299482600,2.532482666015625,5.4017298642009495,-0.021191548849642274,-0.7100350329499692
1783170125309551600,2.542551513671875,5.783658805009722,-0.01728314323425293,-0.8444426996782421
1783170125319620600,2.55262060546875,6.152259477689862,-0.11764525943249464,-1.0100726762093604
1783170125329690600,2.562690673828125,6.569028261211514,-0.2187571710847318,-1.1507586194895207
1783170125339759600,2.572759521484375,6.794331639069318,-0.3705482996165752,-1.0895530401594937
1783170125349828600,2.58282861328125,6.772447724041342,-0.306088029339537,-0.7290338209956884
1783170125359898600,2.592898681640625,6.851112679955363,-0.11571677558794617,-0.24883392758164552
1783170125369967600,2.602967529296875,7.0721630765438075,0.014940087239444256,0.6286135448694229
1783170125380038000,2.613037841796875,7.578346173530816,0.05372910596951842,1.385509478519857
1783170125390106600,2.623106689453125,8.49713625818491,-0.4197345014594495,1.3341374570704996
1783170125400175600,2.633175537109375,9.713101363208889,-1.2366514808304607,0.915231223128736
1783170125410245600,2.64324560546875,10.687971062481402,-2.121087314331531,0.20212511217035353
1783170125420315000,2.65331494140625,10.346247875332832,-2.6369214522391555,0.08664269332755356
1783170125430383600,2.663383544921875,9.661714874842762,-2.15732708697021,0.8740930109240114
1783170125440454000,2.673453857421875,9.2500928065598,-1.5092042472496627,1.5240876358658075
1783170125450522600,2.683522705078125,8.951754003107547,-1.3179966157391667,1.4582079272449016
1783170125460592600,2.693592529296875,8.620014449834823,-1.4041133489638566,0.7085602842222899
1783170125470661600,2.70366162109375,8.37221691609621,-1.720218110731244,-0.3963946885347366
1783170125480731000,2.71373095703125,8.419877077415585,-1.743262009449303,-0.7319696552518755
1783170125490800600,2.723800537109375,8.396715982058645,-1.3074379584543405,-0.6043055444996803
1783170125500869600,2.73386962890625,8.409376141667366,-0.1015373705226928,-0.21378968487046657
1783170125510938600,2.743938720703125,7.207879706978797,-1.2613942924208938,-1.6685028288021684
1783170125521008600,2.754008544921875,7.328592829549312,-1.0377238495271652,-2.1663383686825632
1783170125531077600,2.76407763671875,8.03357006765306,-0.32565731074959037,-2.1292741279184817
1783170125541147600,2.774147705078125,8.018176683688162,0.011539338885247706,-2.0253680555030704
1783170125551216600,2.784216552734375,7.6910706354349845,0.3344000046536326,-1.5169097070604562
1783170125561285600,2.79428564453125,6.720228876504302,0.7680671698756516,-1.1912082649081945
1783170125571355600,2.804355712890625,5.88659310978353,1.2191796831563115,-1.2109615245830267
1783170125581424600,2.814424560546875,5.087600786420703,1.2771816441394388,-1.6839283614709972
1783170125591493600,2.82449365234375,4.7898821606934066,1.4270868127942085,-1.9206325465261935
1783170125601563600,2.834563720703125,4.4985085200786585,1.7971786008149384,-1.5251292538732288
1783170125611632600,2.844632568359375,4.228876755672693,2.047411983398348,-1.1604368406780063
1783170125621702700,2.85470263671875,4.403124484553933,1.8240517024323344,-0.9912029213707894
1783170125631771600,2.864771728515625,4.361955438819527,1.5121160430431364,-0.7133696572653949
1783170125641840600,2.874840576171875,3.2275258767098185,1.0582762967556714,-0.524208948347345
1783170125651910700,2.88491064453125,1.408276898384094,0.44802696835547684,-0.20505400522910058
1783170125661979600,2.894979736328125,-0.8433996203660964,0.05557487996667623,0.46577042257785795
1783170125672048600,2.905048583984375,-3.14404562946856,-0.2709691504895687,1.0061654396377504
1783170125682118700,2.91511865234375,-4.327345313209295,-0.9450333639353513,1.6035370201557875
1783170125692188000,2.92518798828125,-4.8055058462828395,-1.5490692246481774,2.359342235960066
1783170125702257700,2.935257568359375,-5.508327952179313,-2.5719761018589136,2.688907952325046
1783170125712326700,2.94532666015625,-6.673598642754555,-3.5601579949080944,2.6669670464128252
1783170125722395600,2.955395751953125,-8.457740067341923,-3.9313755720883607,2.807525271660089
1783170125732465700,2.965465576171875,-10.104619385617971,-3.6935438443079587,3.358422247381508
1783170125742534700,2.97553466796875,-13.509497971487045,-3.123739339020848,3.520565696971118
1783170125752603600,2.985603759765625,-19.15351741966009,-2.7363655768096447,2.0750863183960315
1783170125762673700,2.995673583984375,-26.112308968567845,-1.9150263970822095,0.16034071101658046
1783170125772742700,3.00574267578125,-32.857387624168396,-0.6784758924081922,-0.957985638358444
1783170125782812700,3.015812744140625,-35.312127047395705,0.3814373578995466,-1.0725763325259088
1783170125792881700,3.025881591796875,-34.26340125379562,0.18842647635936735,-0.7136419714007526
1783170125802950700,3.03595068359375,-30.715110222291944,-0.27710809163600203,-0.3895547595120966
1783170125813020700,3.046020751953125,-24.882035352206227,-0.5993704992502927,-0.1234628962026909
1783170125823089700,3.056089599609375,-17.53405977679491,-1.7101143576070665,-0.33534115796126424
1783170125833158700,3.06615869140625,-9.968576591968535,-2.478143679690361,-0.7509843715190887
1783170125843228700,3.076228759765625,-3.209716079252958,-2.814728627167642,-0.6159133455112576
1783170125853297700,3.086297607421875,0.41515491858422754,-2.622761701722443,-0.7225117257505654
1783170125863367700,3.09636767578125,1.226448505115509,-1.8318313965231179,-1.0386132726475596
1783170125873436700,3.106436767578125,1.449299813646078,-0.8264876485317945,-1.0504191535145044
1783170125883505700,3.116505615234375,2.452586629107594,0.08931406796127557,-1.111158138246089
1783170125893575700,3.12657568359375,4.202451690083742,0.2710626739919185,-1.5844567643716931
1783170125903644700,3.136644775390625,6.142488609781861,0.2058832225948572,-1.8271989144168792
1783170125913713700,3.146713623046875,7.327508541443944,0.2374396597228944,-2.1514039805315432
1783170125923783700,3.15678369140625,8.382682780531049,0.3510885429956019,-2.1367735437631605
1783170125933852700,3.166852783203125,9.302003611060977,0.3026325551234186,-1.8960840884640813
1783170125943922700,3.176922607421875,10.354971280014514,0.06317571035921574,-1.6943544784173368
1783170125953991700,3.18699169921875,10.915553491187096,0.07172609656155109,-1.3105784484371543
1783170125964060700,3.197060791015625,10.99982401202321,0.28745734395384787,-0.1824097368204966
1783170125974130700,3.207130615234375,10.386247877287865,0.631690468096733,0.5898150641912594
1783170125984199700,3.21719970703125,10.058061048060654,0.3575162379555404,0.38657556103821844
1783170125994268700,3.2272685546875,10.182513941681384,-0.0819099291846156,-0.23247553450949487
1783170126004338700,3.237338623046875,10.506235023671389,-0.40122780777961015,-0.8230613273449242
1783170126014407700,3.24740771484375,11.044334184879064,-0.8211990406043828,-1.4303382158055902
1783170126024477700,3.257477783203125,11.709791313499212,-1.3020527582846582,-1.7959286007538438
1783170126034546700,3.267546630859375,12.134426592612266,-1.4427704118773341,-1.8293018780454993
1783170126044615700,3.27761572265625,11.575230867362022,-1.2362636505566538,-1.3866766226030884
1783170126054685700,3.287685791015625,10.308471394646167,-0.8711056656762957,-0.697927173461765
1783170126064754700,3.297754638671875,9.319909270107745,-0.24916589948236942,-0.027513226151838897
1783170126074823700,3.30782373046875,9.08024769655168,0.30960823935493825,0.4701926229342818
1783170126084893700,3.317893798828125,9.0626997649014,0.5599849759317934,0.6185713126741349
1783170126094962700,3.327962646484375,9.084102033892274,0.6284770590081811,0.3267445214644074
1783170126105032700,3.33803271484375,9.144213095983863,0.6495205776892602,-0.23765330247357486
1783170126115101700,3.348101806640625,9.142815504145622,0.5706082228854298,-0.8307640106767415
1783170126125170700,3.358170654296875,9.183642020052671,0.5644213509440422,-1.4029495658814906
1783170126135240400,3.368240478515625,9.223381325244903,0.5669958776071667,-1.8549831395298242
1783170126145309700,3.378309814453125,8.879278549483418,0.618625088687986,-1.9941288676306603
1783170126155380000,3.3883798828125,7.961973150429129,1.0278463794395327,-1.8181804723113775
1783170126165449000,3.398448974609375,6.817089998844265,1.634250722849369,-1.2905123964861034
1783170126175518000,3.40851806640625,6.0666270208507775,2.1140128459006546,-0.6874355169985443
1783170126185588200,3.418588134765625,5.756366308936476,2.3661995545089245,-0.48067090845927596
1783170126195657000,3.428656982421875,5.623949304568767,2.397437573337555,-0.6389579018164425
1783170126205726000,3.438725830078125,5.326407788974047,2.2346005885258315,-1.0206342561036348
1783170126215796000,3.4487958984375,4.986628721630573,1.9423957577839492,-1.032331123638153
1783170126225865000,3.458864990234375,4.485967602935433,1.7580509977802634,-0.707147714010626
1783170126235935000,3.46893505859375,3.5959371642976996,1.512607333691418,-0.3671991353191435
1783170126246004200,3.479004150390625,1.013003907355666,1.003063528099656,-0.17571940886899828
1783170126256073000,3.489072998046875,-2.181283132097125,0.28648353048563,0.2633053378634155
1783170126266143000,3.49914306640625,-4.747389757400751,-0.24622078594118355,1.5683575702250003
1783170126276212000,3.5092119140625,-5.809534420022368,-0.682875588671863,3.1107319734096524
1783170126286281200,3.51928125,-4.794413958904147,-1.5938570454016328,3.568994796836376
1783170126296351000,3.52935107421875,-4.446132436153293,-2.821738798190653,3.4307921948045492
1783170126306420000,3.539419921875,-6.089993867912888,-4.0292698368683455,3.376059903141856
1783170126316490000,3.549489990234375,-8.901473430156708,-4.6745843411698935,2.8194074326336382
1783170126326559000,3.55955908203125,-13.191031741285324,-4.890707218228281,1.6698434297561644
1783170126336628000,3.5696279296875,-17.930141161596772,-4.869603347662091,0.8626492413677275
1783170126346698000,3.579697998046875,-21.72003145672083,-4.5647482941836115,0.2593782092812471
1783170126356767000,3.58976708984375,-24.324836353731154,-4.452696032452583,-0.5225164286831393
1783170126366836000,3.5998359375,-25.696636748111246,-4.161906913727521,-0.4643484269507229
1783170126376906000,3.609906005859375,-26.592194425737855,-3.7463817005261775,0.5708255188979208
1783170126386975000,3.61997509765625,-27.10942849357128,-3.1830832161322236,1.6388539788611232
1783170126397045000,3.630044921875,-26.70997792459726,-2.6802067594751713,1.7727267349950968
1783170126407114000,3.640114013671875,-24.66030281857252,-2.579043556027114,1.20153727815561
1783170126417183000,3.650182861328125,-21.32554230954647,-2.824357456256449,0.445652311646007
1783170126427253000,3.6602529296875,-16.849276016414166,-2.281883440965414,0.6225087251883
1783170126437322000,3.670322021484375,-12.034327219003439,-1.193180441763997,0.8217485642459244
1783170126447391000,3.680390869140625,-7.921198072448372,-0.48992725097388024,0.4230092853464186
1783170126457461000,3.6904609375,-4.198645868059993,0.17571517108529805,-0.14181934949057176
1783170126467530000,3.700530029296875,-0.27360183708071706,0.6358186539426446,0.2591195218124427
1783170126477600000,3.71060009765625,3.508759231582284,1.129958846436441,0.909858370983973
1783170126487669000,3.7206689453125,5.399464257356525,1.0670078847438096,0.5550059454102069
1783170126497738000,3.730738037109375,5.821081065431237,0.885900206965208,-0.13416850594384594
1783170126507808000,3.74080810546875,6.706423053991794,1.1332020661413669,-0.3389012981282547
1783170126517877000,3.750876953125,8.064757817599176,1.298234222909808,-0.48026167007125914
1783170126527946000,3.760946044921875,8.32048263720572,1.265010875482857,-0.978777155039832
1783170126538016000,3.77101611328125,7.1381596895426505,1.1604448778539895,-1.5867933906257152
1783170126548085000,3.7810849609375,5.622797211924195,1.3384103120841084,-1.4531984285198152
1783170126558155000,3.791155029296875,5.403001783832908,1.5795356745824216,-1.1307144871093333
1783170126568224000,3.80122412109375,6.343799702155589,1.6378807499147952,-0.5773812972169369
1783170126578293000,3.81129296875,8.077940539777279,1.6005017441131173,-0.554669151203893
1783170126588363000,3.821363037109375,9.229557383531331,1.0762168809853494,-0.9793378576625138
1783170126598432000,3.831431884765625,9.541279400169849,0.850984522537142,-1.0805481881879269
1783170126608502000,3.841501953125,9.77925228998661,0.9858791690647601,-0.758622903573513
1783170126618571000,3.851571044921875,9.877907894527912,1.1594468067273498,-0.48039899618271736
1783170126628640000,3.861639892578125,9.644870707547664,1.2450532523423432,-0.3600505056735128
1783170126638710000,3.8717099609375,8.87343917580545,1.2307995399318634,-0.598414038775675
1783170126648779000,3.881779052734375,7.965172238731384,1.0716958964295684,-1.2945669325739144
1783170126658848000,3.891847900390625,8.263944172903894,0.8707045375294983,-1.6532596669629216
1783170126668918000,3.90191796875,9.47943581519723,0.7883842739783227,-1.5647332422479987
1783170126678987000,3.911987060546875,10.521887350833415,0.8138339186638593,-1.6440931946888564
1783170126689057000,3.92205712890625,10.558882910275459,0.7356589382238685,-1.8381579691961407
1783170126699126000,3.9321259765625,10.14112043954134,0.8675188932307064,-1.598233653050661
1783170126709195000,3.942195068359375,9.78367185999453,1.2383429410487412,-1.2111451375216244
1783170126719265000,3.95226513671875,9.715555186101794,1.3720340570054947,-1.1055951703567057
1783170126729334000,3.962333984375,9.135980105167627,1.4908359391272068,-1.2075927788022904
1783170126739403000,3.972403076171875,8.275878940847516,1.5777144505046308,-1.3597095590919255
1783170126749473000,3.98247314453125,8.256635895717144,1.644846058882773,-1.5980552277438342
1783170126759542000,3.9925419921875,8.713537367662786,1.6618065460339189,-1.959867409327626
1783170126769612000,4.002612060546875,9.099522305864095,1.6319149733781813,-2.2779919864848255
1783170126779681000,4.012680908203125,9.5677781155169,1.5545517477124928,-2.2414316035896538
1783170126789750000,4.02275,9.624659109646082,1.744376546562463,-1.9237207217998802
1783170126799820000,4.032820068359375,9.201407393845916,2.080343216010928,-1.59771766635254
1783170126809889000,4.042888916015625,7.854636226782202,2.338299447931349,-1.5163267926059663
1783170126819959000,4.052958984375,6.788543703317642,2.7028336018249393,-1.141126429399848
1783170126830028000,4.063028076171875,6.882118643593787,2.971207475124299,-0.8040110283076762
1783170126840097000,4.073096923828125,6.919877588623762,2.769806658640504,-1.1691450477905572
1783170126850167000,4.0831669921875,6.700192635169625,2.0896911823317406,-1.7624435336507855
1783170126860236000,4.093236083984375,6.1046285424649716,1.3169377543359995,-1.9355993756420908
1783170126870305000,4.103304931640625,4.991525846022367,0.32007541896402836,-1.8605860741034148
1783170126880374800,4.113374755859375,2.885442039555311,-0.8073390036866068,-1.6511562649428844
1783170126890444000,4.123444091796875,-0.6494710394591092,-1.57924049102813,-0.12234539994746446
1783170126900513800,4.133513671875,-4.266627517396211,-1.5795765911146997,2.5957854319915175
1783170126910583000,4.1435830078125,-6.9212482924550764,-1.0351643012374638,4.838682431958616
1783170126920652000,4.153652099609375,-7.631763875463604,-1.660127799166739,5.083869198676943
1783170126930722000,4.16372216796875,-6.582293400976061,-3.721612000928819,4.305563689512014
1783170126940790800,4.173790771484375,-6.071506609585881,-6.130123049205541,3.314852277985215
1783170126950860000,4.183860107421875,-7.636455832672119,-7.934509389442205,2.2681357783809304
1783170126960930000,4.193929931640625,-11.836643084955215,-8.367429097297787,0.7981811531104147
1783170126970999000,4.2039990234375,-19.7879013646245,-7.965224845701456,0.22343166570179163
1783170126981069000,4.214069091796875,-29.758939962792393,-5.880049387228489,0.4607346569003537
1783170126991138000,4.224137939453125,-37.68808461033105,-2.6363901218414303,0.9443594101965427
1783170127001207000,4.23420703125,-40.32130662353038,-0.6634378977522254,1.6033843138121067
1783170127011277000,4.244277099609375,-37.01800742069483,-1.0194836247637866,2.042804343472421
1783170127021346000,4.254345947265625,-30.44223202331066,-1.9281877842113375,2.3951444939643145
1783170127031415000,4.2644150390625,-23.645240809643266,-2.2243913292005657,2.5996312937647104
1783170127041485000,4.274485107421875,-16.995483645725248,-3.09399857301265,2.5094436578392982
1783170127051554000,4.284553955078125,-12.030606152653693,-3.4741643035411833,1.9132351297512649
1783170127061624000,4.2946240234375,-8.838820282366871,-3.1121196283757686,1.2033731883458791
1783170127071693000,4.304693115234375,-6.605028964397311,-2.7813042042106386,-0.17595413094032555
1783170127081762000,4.314761962890625,-3.7599440696716306,-2.8589094219386575,-2.203181952433288
1783170127091831800,4.324831787109375,-0.5671493146032095,-3.0563708531469107,-3.3380560434401034
1783170127101901000,4.334901123046875,2.112891732916236,-2.500952600608766,-3.2206802485987542
1783170127111970800,4.344970703125,3.5915082419395445,-1.4538238669417798,-2.2461177155792713
1783170127122040000,4.3550400390625,4.117510722640157,-0.18842662248983977,-1.189243759902194
1783170127132108800,4.36510888671875,4.258451809725165,0.7519222368910908,-0.32838330164738
1783170127142179000,4.375178955078125,4.733246665757894,1.208698182760924,0.1886528689937666
1783170127152247800,4.385247802734375,5.28048541123271,1.4522414200559257,0.18287994814813135
1783170127162316800,4.39531689453125,5.297701918971538,1.5872336817391215,-0.03811944890543818
1783170127172386800,4.40538671875,5.8930935777187345,1.2880955446027218,-0.48057248958609994
1783170127182455800,4.415455810546875,7.672164859434962,1.0856653850711881,-0.7441960996184498
1783170127192525800,4.42552587890625,9.00070303519368,1.109303596420586,-0.8780044852793216
1783170127202594800,4.4355947265625,10.085761540412902,0.9277398454375565,-0.6653127517133951
1783170127212663800,4.445663818359375,11.223571977132558,0.8921309180483221,-0.10930851598083972
1783170127222733800,4.45573388671875,11.969613631552457,0.9962228684246539,0.34621816048026083
1783170127232802800,4.465802734375,12.372242830562591,0.9032096536844968,-0.0311256444953382
1783170127242872800,4.475872802734375,12.240614346224069,0.5480563454680144,-1.0601358070172369
1783170127252941800,4.48594189453125,11.919786647588014,0.4060546434141695,-1.9001218195475638
1783170127263010800,4.4960107421875,12.174831083714961,0.5680765124507248,-2.3511923933826386
1783170127273080800,4.506080810546875,12.34777474426031,0.649380146305263,-2.6962545156955717
1783170127283149800,4.51614990234375,12.149389183944463,0.8016665110081433,-2.8845851304650303
1783170127293218800,4.52621875,12.24598142621517,1.032603218577802,-2.964469983562827
1783170127303288600,4.53628857421875,12.535724250757694,1.3296695178762077,-3.156389562734961
1783170127313357800,4.54635791015625,12.331005980288982,1.7950392506986856,-3.040422173386812
1783170127323427600,4.556427490234375,12.10688976638913,2.291799854823947,-2.7875375456422566
1783170127333496800,4.566496826171875,11.84582475479841,2.608531516318023,-2.802039533725381
1783170127343565800,4.57656591796875,10.908225924777984,2.863776151192188,-2.665079040709138
1783170127353635800,4.5866357421875,10.061080688142775,3.217006820783019,-2.4756793354034423
1783170127363704600,4.59670458984375,10.007960507851838,3.4634263441666957,-2.4819217369243503
1783170127373773800,4.60677392578125,10.029439349210262,3.341260392439365,-2.824587465620041
1783170127383843800,4.61684375,10.101650014418363,3.108926093031466,-3.177147688603401
1783170127393912800,4.626912841796875,10.225504357624054,2.9478721922442315,-3.614520868736505
1783170127403982800,4.63698291015625,9.530743393108247,2.9443220985472203,-3.957276321542263
1783170127414051800,4.6470517578125,8.713376624143123,3.1698525631591674,-3.592922784912586
1783170127424120800,4.657120849609375,7.3745683987826105,3.55326531278491,-2.529162503787875
1783170127434190800,4.66719091796875,5.432115650114417,3.9956361550748345,-0.9066580405727028
1783170127444259800,4.677259765625,3.774643626153469,4.255791650605201,0.4801049451395869
1783170127454329900,4.687329833984375,3.1569074491292235,3.69514601880759,0.9473258587867021
1783170127464398800,4.69739892578125,2.846527494749427,2.805964890475571,1.049561952163279
1783170127474467800,4.7074677734375,1.8791373375773428,1.8319515157714485,0.5925634495839476
1783170127484537900,4.717537841796875,-0.6004857670158148,0.464024747954309,-0.48557475485280155
1783170127494606800,4.72760693359375,-4.432743377748132,-1.0939297939389943,-1.359553784008324
1783170127504675800,4.73767578125,-7.711460512512922,-1.6878402742177248,-1.3915366298548877
1783170127514745600,4.74774560546875,-9.77982745952606,-1.749852786016464,-0.32066812416017054
1783170127524814800,4.75781494140625,-10.88016419789791,-1.9243796241000293,1.6812635261759161
1783170127534884600,4.767884521484375,-9.904256972271204,-2.192918917094171,3.1510341731816527
1783170127544953900,4.777953857421875,-10.389399619317054,-2.2865835814803837,3.1099592354714867
1783170127555022600,4.788022705078125,-13.04414840466976,-2.495499303638935,2.5080314529538152
1783170127565092900,4.7980927734375,-16.252583211940525,-2.502601244598627,1.5107998458780347
1783170127575161600,4.80816162109375,-21.822124049973485,-2.276465215308964,0.6230589064169675
1783170127585232000,4.81823193359375,-26.954880905938147,-1.5111328772246837,-0.2432859015330672
1783170127595300900,4.82830078125,-29.915301906371116,-0.9014292000085115,-0.32418669020775703
1783170127605369900,4.838369873046875,-29.192818822193143,-0.5055021289855242,0.3771004612063989
1783170127615440000,4.84843994140625,-25.185327394151685,-0.8415566228479147,1.116035388893634
1783170127625508900,4.8585087890625,-20.914207241511345,-1.2484151299908757,1.0564436745010315
1783170127635577600,4.86857763671875,-17.70267329918146,-1.5530002804867922,0.8883001077137886
1783170127645648000,4.87864794921875,-14.865093080997466,-1.7731052129186688,0.5799937082050368
1783170127655716900,4.888716796875,-12.153453949165344,-1.9544703725896775,0.7726992135904729
1783170127665786600,4.89878662109375,-10.881102940052747,-1.3119503213122485,1.5042245591409504
1783170127675856000,4.90885595703125,-9.22644305090308,-0.550303686003387,2.1761305716395376
1783170127685924900,4.9189248046875,-7.172661094081401,-0.5160594710960984,1.5283283421754836
1783170127695995000,4.928994873046875,-4.327193922039866,-1.0536696797430514,-0.33905605029854924
1783170127706064000,4.93906396484375,-0.8167050901859998,-2.014708422061801,-1.8766212631031869
1783170127716134000,4.9491337890625,2.298759756964445,-2.4067931384429335,-2.3737077381819485
1783170127726202600,4.95920263671875,4.357628807792067,-1.837993134023249,-1.6533545056395231
1783170127736272000,4.96927197265625,5.039094821926951,-0.974701503098756,-0.48611638744883234
1783170127746341600,4.979341552734375,5.17020658891499,-0.1334928169056773,0.48593664696775374
1783170127756411000,4.989410888671875,5.316924505835771,0.41888095337003467,1.1202289681259543
1783170127766479600,4.999479736328125,5.63451862937808,0.7138327447324991,1.3932999862655997
1783170127776550000,5.0095498046875,6.476105062842369,1.026538511711359,1.332531629309058
1783170127786618600,5.01961865234375,7.862317428934574,0.9733024499557912,0.9063854341764003
1783170127796689000,5.02968896484375,9.078246878123283,0.6899108941361307,0.12222805717810988
1783170127806757600,5.039757568359375,9.882679931235312,0.5777540029868483,-0.6151679339714348
1783170127816827000,5.049826904296875,10.414812292993068,0.562273232999444,-0.799133631529659
1783170127826897000,5.05989697265625,10.665527760004997,0.6076148882433772,-0.7869271339725703
1783170127836966000,5.0699658203125,10.707835454380511,0.5911969835363328,-0.6791770264148712
1783170127847036000,5.080035888671875,10.218305386030673,0.6692138508051634,-0.416633905095607
1783170127857105000,5.09010498046875,9.429346965426205,0.8541874102316797,-0.2638755389668047
1783170127867174000,5.100173828125,9.432766418480872,0.9254089182719588,-0.35278073386624453
1783170127877243600,5.11024365234375,10.037491722762583,0.7884040015920997,-0.7089588550858199
1783170127887313000,5.12031298828125,10.682163252985477,0.49630321574658154,-1.2765120743148028
1783170127897382000,5.1303818359375,11.233348690259456,0.22275223207026718,-1.6819643679216503
1783170127907452000,5.140451904296875,11.723536930257081,0.049181671798229215,-1.8456136920295654
1783170127917520600,5.150520751953125,11.758428210896254,0.07020707030072808,-1.8657761900924146
1783170127927591000,5.1605908203125,11.290566368997096,0.16945698747336863,-1.8718255532592534
1783170127937659600,5.17065966796875,10.69836619976759,0.3606757248997688,-1.9057975270964205
1783170127947729000,5.18072900390625,10.39138231756687,0.5346579347126186,-1.9082474044665694
1783170127957798700,5.190798583984375,10.204112025505303,0.6586826660491526,-2.0761796665906904
1783170127967868000,5.200867919921875,10.135718288236855,0.7446224352717399,-2.4517361497581005
1783170127977937700,5.210937744140625,10.017309350955486,0.8777434962555766,-2.7260581178069114
1783170127988007000,5.2210068359375,10.135403815460204,1.2043803195618092,-2.5556366692155597
1783170127998075600,5.23107568359375,10.625361753833293,1.4013878695227204,-2.4006335928998888
1783170128008146000,5.24114599609375,10.4325443490386,1.515184782963991,-2.602463010059297
1783170128018214700,5.251214599609375,8.86911020669043,1.7283312745600938,-2.6813275801986456
1783170128028284700,5.26128466796875,7.23174632025659,1.911185503745079,-2.6797721674501895
1783170128038353700,5.271353759765625,6.15964900341928,1.759081948263198,-2.4467710746966302
1783170128048423000,5.2814228515625,5.3638849944531914,1.5612180737338959,-1.8650762251295148
1783170128058493000,5.291492919921875,4.333499159663916,1.2567187018252908,-1.0356555918857455
1783170128068562000,5.30156201171875,2.8199884473919865,0.6252030057735741,-0.4071273872122168
1783170128078630700,5.311630615234375,0.468951975223422,-0.24241437939554453,0.1398467159770429
1783170128088700700,5.32170068359375,-2.379514378634095,-1.064876279542595,1.4195426810249685
1783170128098770000,5.33177001953125,-5.607275233143568,-1.4085449016705154,3.3990503181070086
1783170128108839700,5.341839599609375,-9.161286395859717,-1.5231100230053067,4.788945172104239
1783170128118909000,5.351908935546875,-12.13361761431694,-2.2345446205548942,4.5612335640609265
1783170128128977700,5.361977783203125,-13.159986614680289,-3.971263638101518,3.554360122284293
1783170128139048000,5.3720478515625,-12.8066232586205,-5.469584087765217,1.9752851970814167
1783170128149117000,5.382116943359375,-13.61749189773798,-5.418679829958081,-0.2296956579999998
1783170128159186000,5.39218603515625,-17.974583529913424,-4.202699235104024,-3.173693456496298
1783170128169256000,5.402255859375,-27.23529943729639,-2.35321337781623,-5.795152258926629
1783170128179325000,5.412324951171875,-38.88225815478563,0.8051366713367402,-6.803816091251373
1783170128189395000,5.42239501953125,-45.06286869769096,4.253869450370967,-5.648554168993234
1783170128199464000,5.4324638671875,-43.534255108833314,4.6508635661035775,-3.871116333697736
1783170128209533000,5.442532958984375,-36.67728259693384,3.1498323961764574,-3.0364263817489143
1783170128219603000,5.45260302734375,-28.11355059081316,1.9157383447438476,-2.1492282439276575
1783170128229672000,5.462671875,-19.960015004086493,0.3680241879664361,-0.5015283665163442
1783170128239741700,5.47274169921875,-12.751253838098048,-0.8542287651553749,1.038447414561361
1783170128249811000,5.48281103515625,-6.672837595254182,-1.5018454089194535,2.119256591773033
1783170128259880000,5.4928798828125,-2.2916104697316886,-2.217713751132786,2.395014730104804
1783170128269950000,5.502949951171875,0.7893225777417421,-2.4487878213465213,2.2009790355615317
1783170128280018700,5.513018798828125,3.4336651198923587,-2.510847679418325,1.720743157518655
1783170128290089000,5.5230888671875,5.660863615468144,-2.480854984475672,1.527046193410456
1783170128300158000,5.533157958984375,7.459082665246725,-1.8326308763377368,2.0609458571016788
1783170128310227000,5.54322705078125,8.73704917615354,-0.8900064732402563,2.4713752084687353
1783170128320297000,5.553296875,9.8232106741786,-0.4663828553877771,2.3730589188843965
1783170128330366000,5.563365966796875,10.917455525416136,-0.19870543991997835,1.92497525190562
1783170128340435000,5.57343505859375,12.008825698000193,0.10387129336297511,1.4571470200151204
1783170128350505000,5.5835048828125,13.376274911433457,0.136161305462569,1.0159117576263845
1783170128360574000,5.593573974609375,13.981815039229392,-0.20594956582933663,0.4559955360818654
1783170128370644000,5.60364404296875,13.989605546975135,-0.4081228279903531,-0.5187327088933438
1783170128380713000,5.613712890625,12.797156342095136,-0.6888079013302922,-2.0307965102925896
1783170128390782000,5.623781982421875,11.595296334791183,-1.1444824618294835,-2.573445882150531
1783170128400852000,5.63385205078125,11.157537370210886,-0.9685105395041406,-1.6281459762334822
1783170128410921000,5.6439208984375,10.898644441962242,-0.4402462513513863,-0.24685725721381604
1783170128420991000,5.653990966796875,10.489062939596176,-0.032946722442656756,0.5493920510511845
1783170128431059700,5.664059814453125,10.09973628975153,0.2726381066150963,0.6668148268394172
1783170128441129000,5.67412890625,10.389905815273522,0.5125038244411348,0.45020960962418466
1783170128451198700,5.68419873046875,10.691716678750515,0.5832239588305353,0.072106254985556
1783170128461268000,5.69426806640625,10.798410628318786,0.46715252458602186,-0.5030653668252751
1783170128471338000,5.704337890625,10.845740534770488,0.36434053101763125,-1.084016668016091
1783170128481407000,5.714406982421875,10.085731145274638,0.272717017070204,-1.5183903010070323
1783170128491475700,5.724475830078125,9.24285759460926,0.4843263622269034,-1.341288059477508
1783170128501546000,5.7345458984375,8.899151124688983,0.8146161550827324,-0.7641895977899432
1783170128511615000,5.744614990234375,8.539016667059064,1.2598596301995217,-0.24486801962535826
1783170128521684000,5.75468408203125,8.621373463228345,1.6045796610765157,-0.07757602816615253
1783170128531754000,5.76475390625,8.775928065124154,1.6436133022174237,-0.42153523073848337
1783170128541823000,5.774822998046875,8.580604814988375,1.512867592062801,-1.2597159839451313
1783170128551893000,5.78489306640625,8.317091825723647,1.481976633106172,-1.8740363611765205
1783170128561962000,5.7949619140625,8.049207781767844,1.5637361940346657,-2.0345253215573726
1783170128572031000,5.805031005859375,7.641882533895969,1.6865264151401818,-1.967390790569782
1783170128582101000,5.81510107421875,6.665218352422118,1.913926180755347,-1.8111629947647452
1783170128592170000,5.825169921875,5.762689666739106,2.2634010049439963,-1.3708126985169946
1783170128602239700,5.83523974609375,5.149985638663172,2.4693615305587646,-0.8647266321636736
1783170128612309000,5.84530908203125,5.3078989033371204,2.419064006473124,-0.7342216719623654
1783170128622378000,5.8553779296875,5.565229404574632,2.151557855919003,-0.8823392265480011
1783170128632448000,5.865447998046875,5.391624065250158,1.7622864433929324,-0.9768339850828051
1783170128642516700,5.875516845703125,4.115333378601074,1.0280056616544724,-0.9879111132837831
1783170128652587000,5.8855869140625,1.2295254283428192,0.280942555232346,-0.4053111315704882
1783170128662655700,5.89565576171875,-1.8522294569075106,-0.22605799561738968,0.8315707239497453
1783170128672725000,5.90572509765625,-4.598864498797059,-0.8841165384188294,2.3433298433139917
1783170128682794800,5.915794677734375,-6.135252228787541,-1.9383207634299993,3.3365701887965202
1783170128692864000,5.925864013671875,-6.163177762067318,-3.2977880381986497,3.4229511259153482
1783170128702932700,5.9359326171875,-5.89121726245284,-4.725608718225359,2.4448335307627915
1783170128713003000,5.9460029296875,-7.299467857351899,-5.72075665089488,0.6929749578818678
1783170128723071700,5.95607177734375,-10.336154351341724,-6.124544372290372,-0.4255456719562411
1783170128733142000,5.96614208984375,-13.836694620633125,-6.065756667757034,-0.9014597412772476
1783170128743211000,5.9762109375,-18.31225481132269,-5.486705318436027,-0.8360262420538812
1783170128753280000,5.986280029296875,-22.528254549765585,-4.579037224037945,-0.1507671466458123
1783170128763350000,5.99635009765625,-24.470730679309366,-3.6295690925255415,0.7595639838159084
1783170128773419000,6.0064189453125,-24.31728900709152,-3.17216990019083,1.5254691533520817
1783170128783489000,6.016489013671875,-22.537302948617935,-2.9132597285464406,1.9354149589858949
1783170128793557800,6.026557861328125,-20.533374863767623,-2.1909163451001046,1.8564838994815944
1783170128803627000,6.036626953125,-19.215588968169687,-1.8739698718115687,1.4253823469638824
1783170128813696800,6.04669677734375,-18.662661655664444,-1.8108105280652642,0.23454660516250878
1783170128823766000,6.05676611328125,-17.03423744701147,-1.6981348737388848,-1.3399636790059506
1783170128833835800,6.066835693359375,-14.692263986742496,-1.850712622603774,-2.337078089442849
1783170128843905000,6.076905029296875,-12.350213369584083,-1.923479752650857,-2.540807056613266
1783170128853973800,6.086973876953125,-10.408296042966843,-1.9756348873019218,-2.362755843795836
1783170128864044000,6.0970439453125,-9.856787949609755,-2.168183119766414,-1.5976782111249863
1783170128874112800,6.10711279296875,-9.170434747955202,-1.5801172738626599,-0.33172877615038304
1783170128884183000,6.11718310546875,-6.994913832646608,-0.7090764901161194,0.9524691399592906
1783170128894251800,6.127251708984375,-3.3837375981628894,0.10602174939513206,2.315642210443318
1783170128904321000,6.137321044921875,1.098266361838579,0.4411050601378083,3.1734795214846727
1783170128914390800,6.147390869140625,5.486365711218118,0.05572101043909788,2.648200094361603
1783170128924460000,6.1574599609375,7.96959823848009,-0.38227351646274327,0.9122405168801545
1783170128934528800,6.16752880859375,8.004776519367098,-0.524158021877706,-1.1211784508705138
1783170128944599000,6.17759912109375,7.172566986057162,-0.29200609329938887,-2.049657862628996
1783170128954667800,6.187667724609375,6.15811930963397,0.5382768558621406,-1.688976146379858
1783170128964737800,6.19773779296875,5.4723208192527295,1.4759537195548413,-1.2051417323883622
1783170128974807000,6.20780712890625,5.433607934498786,1.8905017582871018,-1.0073394518531857
1783170128984876000,6.2178759765625,6.138162563276291,1.93330688079074,-1.3358442609883845
1783170128994946000,6.227946044921875,7.375470900580287,1.891324618977308,-1.6790291912525892
1783170129005014800,6.238014892578125,8.715062969794868,1.9896797792673109,-1.5101342215761542
1783170129015085000,6.2480849609375,9.625862055695057,1.9454032690368592,-1.2827324101343751
1783170129025153800,6.25815380859375,9.778806884306668,1.8161159409970045,-1.1336642768256366
1783170129035223000,6.26822314453125,9.701326169741153,1.7606956670701503,-1.019397773111239
1783170129045292800,6.278292724609375,9.686009358143806,1.6926035430967807,-0.6953640449754893
1783170129055362000,6.288362060546875,9.639832713380455,1.6457304405018687,-0.2699118234563619
1783170129065431800,6.298431884765625,9.894213717162609,1.7170891650557516,-0.04013323641326278
1783170129075501000,6.3085009765625,10.15018052883148,1.5578370529934762,0.10264492990579456
1783170129085569800,6.31856982421875,10.227826078569889,1.3556892175346613,0.03243526578918099
1783170129095640000,6.32864013671875,10.585719479274749,1.2861951178088784,-0.18508118451945482
1783170129105708800,6.338708740234375,11.338045913052559,1.0934615919053554,-0.5166451620295643
1783170129115778800,6.34877880859375,11.896209372645616,0.9382841819360852,-0.8335144784286618
1783170129125847800,6.358847900390625,11.785200482487678,0.8940537028044462,-1.1808976641003042
1783170129135917000,6.3689169921875,11.50406649633646,1.0926301095172761,-1.2627753715157508
1783170129145987000,6.378987060546875,11.404834553211927,1.4968638211145997,-1.001846042068675
1783170129156055600,6.3890556640625,10.919108553320168,2.002220111888647,-0.6121339000377803
1783170129166124300,6.399124267578125,10.461335559237003,2.3593849060580134,-0.5960613016370684
1783170129176194300,6.4091943359375,10.2917727733016,2.4167887550175187,-1.104037492585927
1783170129186263300,6.41926318359375,10.275558136081695,2.355864622977376,-1.851247752393782
1783170129196333300,6.429333251953125,10.632429792523384,2.3456074328571557,-2.3648043007582427
1783170129206402300,6.43940234375,10.838077452796696,2.5061294187247753,-2.5323347040832043
1783170129216471600,6.449471435546875,10.35294649618864,2.714230317369103,-2.44527396800667
1783170129226541300,6.459541259765625,9.167944684705137,3.1855314860671755,-1.9013263730317354
1783170129236610300,6.4696103515625,7.855846771615743,3.653147536511719,-1.4695248555511236
1783170129246680300,6.479680419921875,6.942852806019783,3.608051380461454,-1.4198349419698117
1783170129256749300,6.489749267578125,6.171328919818997,3.3892569461062547,-1.059339395942539
1783170129266818300,6.499818359375,5.65964079567492,3.171499161322415,-0.34443054641112686
1783170129276888300,6.509888427734375,4.803666355895996,2.5966362036019563,0.4247005629016086
1783170129286957300,6.519957275390625,3.6684599641948936,1.5401269165188074,0.7754961508326232
1783170129297027300,6.53002734375,1.3620973310112952,0.5371189179986715,0.4309773781487718
1783170129307096600,6.5400966796875,-1.6644933008998632,-0.6843287100896239,-0.14241826523179188
1783170129317165300,6.550165283203125,-5.368515576863288,-2.026402074725926,-0.14045351363061925
1783170129327235600,6.560235595703125,-9.945178180724382,-3.096364717622101,0.4990711460899561
1783170129337304300,6.57030419921875,-13.209411447584628,-3.7284991300940513,0.40893746884148563
1783170129347374300,6.580374267578125,-15.186954214334486,-4.97570634559989,0.626914339736104
1783170129357443300,6.590443359375,-16.217417206013202,-6.1819420837700365,1.5861984934724866
1783170129367512600,6.6005126953125,-16.5170174077034,-6.440999262669682,2.4422962673701343
1783170129377582300,6.610582275390625,-16.385072112500666,-6.237074772927165,2.2666690668292344
1783170129387651300,6.6206513671875,-16.960425191825628,-5.491963677355646,1.2175767780043183
1783170129397721300,6.630721435546875,-18.56287207865715,-4.329502491243184,-1.230783757840842
1783170129407790300,6.640790283203125,-21.193148101532458,-3.6612925567835566,-4.787598433670401
1783170129417859300,6.650859375,-25.440681626880167,-3.553001693412661,-7.000891153490543
1783170129427929300,6.660929443359375,-28.16621601307392,-2.9904858838289976,-7.153205867505073
1783170129437998300,6.670998291015625,-27.437024955689907,-1.69131759493947,-5.526178666168451
1783170129448067300,6.6810673828125,-24.245509719038008,-0.4353802527502179,-3.4607208846002817
1783170129458137300,6.691137451171875,-19.981595552253722,-0.17215163338482378,-2.0766038833521305
1783170129468206300,6.701206298828125,-15.28088922009468,-0.2289806050658226,-1.3810136284053325
1783170129478276600,6.711276611328125,-10.758718084877728,-0.0854196908712387,-0.5655524008005857
1783170129488345300,6.721345458984375,-7.218333296453952,0.19814955960288644,0.8346044656224548
1783170129498414300,6.731414306640625,-4.531758463251591,0.5831944404751062,1.857263505551964
1783170129508484400,6.741484375,-2.491623923510313,0.7076002800837159,2.169764982130378
1783170129518553600,6.7515537109375,-0.8634481366604566,0.5472387454748153,1.6997843945115805
1783170129528623400,6.761623291015625,0.8423474809646606,0.18853373612612484,0.9151282011456787
1783170129538692400,6.7716923828125,2.484222122821212,-0.09159194976538419,0.6748721688278019
1783170129548761300,6.78176123046875,3.606880583116412,-0.38849034515097736,0.6077656218256801
1783170129558831400,6.791831298828125,4.469935921066999,-0.6075463530518114,0.8517893361140042
1783170129568900400,6.801900390625,5.639262609034776,-0.6385954251796007,0.8435005965225398
1783170129578970400,6.811970458984375,6.689080289524793,-0.7607717521704733,0.09597374504618346
1783170129589039400,6.822039306640625,7.870642774209379,-1.2141025260224938,-0.7478409589268267
1783170129599108400,6.8321083984375,9.113671827247739,-1.607918596240878,-1.062668540365249
1783170129609178400,6.842178466796875,9.70069780870974,-1.4855784569904207,-0.7283913583736866
1783170129619247400,6.852247314453125,9.932803852319717,-1.238985038344562,-0.13177242285385726
1783170129629317400,6.8623173828125,9.83986253377199,-1.1383214549817144,0.6337326414488256
1783170129639386400,6.872386474609375,9.8648730563879,-0.9977190983317792,1.1960007598817348
1783170129649455400,6.882455322265625,10.17446624430418,-0.8998226415947079,1.1959213379699736
1783170129659525400,6.892525390625,10.510754546922445,-1.0750517827287316,0.8329602055467664
1783170129669594400,6.902594482421875,10.632015951025485,-1.0986493698067963,0.6894627119772135
1783170129679664400,6.912664306640625,10.490168855011463,-0.8490643681295216,0.8617110837347804
1783170129689733400,6.9227333984375,10.436970348787307,-0.6227778244532645,0.9192490804679692
1783170129699802400,6.93280224609375,10.454859056699275,-0.30230770708322524,1.0702251662898807
1783170129709872400,6.942872314453125,9.778663676443696,0.09087064975351095,1.188118409134075
1783170129719941400,6.95294140625,8.965963145723938,0.36718130740150806,1.1416117286987602
1783170129730011400,6.963011474609375,8.46270850340426,0.7746344194367527,1.0587787663850932
1783170129740080400,6.973080322265625,8.515199153620005,1.1188090913906692,0.7571738738089799
1783170129750149400,6.9831494140625,8.985329524973034,0.9017449879594147,0.18102854812778532
1783170129760219400,6.993219482421875,9.718893975135684,0.8334626021109521,-0.40744887425154447
1783170129770288400,7.003288330078125,10.102011248946189,0.9899531405054032,-0.8080421104546636
1783170129780357400,7.013357421875,10.152904400837421,1.038868124191463,-0.9865166632506995
1783170129790427400,7.023427490234375,9.891559987783431,1.2909987186983227,-0.8558404381357133
1783170129800496400,7.033496337890625,8.846988391253351,1.7216292927034198,-0.44712351670973
1783170129810566400,7.04356640625,7.598069111132621,2.1682193601235746,-0.21793345187800003
1783170129820635400,7.053635498046875,6.604561931407451,2.496881697908044,-0.2764088938580826
1783170129830704400,7.063704345703125,5.894212352615595,2.660718799673021,-0.5204181046970189
1783170129840774400,7.0737744140625,5.565384302875399,2.9768063180446624,-0.7140048864290118
1783170129850843400,7.083843505859375,5.532459938395023,3.159051767681539,-0.762480601914972
1783170129860913200,7.0939130859375,5.751363386082649,2.8525650213479996,-0.7354349202096462
1783170129870982400,7.103982421875,6.232026257365941,2.5040751165434716,-0.7676569085743278
1783170129881051400,7.114051513671875,5.484761783152818,2.3092881652414796,-0.5536722125884145
1783170129891121400,7.124121337890625,3.8843940406829116,1.9328873402044175,-0.2805668172551319
1783170129901190400,7.1341904296875,2.2867349726498127,1.3466110080659388,0.04023907140791416
1783170129911260400,7.144260498046875,-0.09688391869366168,0.6048135670870542,0.53133551229164
1783170129921329200,7.1543291015625,-2.541514620360732,0.2764589800775051,1.7396382659941911
1783170129931398400,7.1643984375,-3.8062224212437865,0.3148085844770074,3.007380027745664
1783170129941468400,7.174468505859375,-3.466437508681416,-0.06442804850786923,3.170629392750561
1783170129951537400,7.184537353515625,-2.3864812950372696,-1.4297104392960667,2.083667538128048
1783170129961607400,7.194607421875,-1.0740215628981589,-3.463025362150371,1.101371634377539
1783170129971676400,7.204676513671875,-1.372903387185931,-4.893377021959424,0.5559404132487252
1783170129981745400,7.214745361328125,-3.6615953391224143,-5.547919957855344,0.00958728693544399
1783170129991815400,7.2248154296875,-6.702088239657878,-5.13085482173562,-0.661823813619092
1783170130001884400,7.234884521484375,-10.754995849484205,-4.057697182190418,-1.160162626846507
1783170130011954400,7.244954345703125,-17.024344998550415,-3.1765102674826977,-1.3409578046098352
1783170130022023400,7.2550234375,-24.200810161089894,-2.0311805411741135,-1.8295909241199493
1783170130032092400,7.265092529296875,-29.65577652543783,-1.0441717835575341,-2.5031363743886352
1783170130042162400,7.275162353515625,-30.856889513766763,-0.9791022222757338,-2.904725708957016
1783170130052231400,7.2852314453125,-27.95835535292625,-0.5692834040224551,-2.8414421543091533
1783170130062301400,7.295301513671875,-25.673141306233404,0.4250999740153551,-2.4830831819191572
1783170130072370200,7.3053701171875,-25.62333068888187,1.0548356547825037,-2.5350118143379685
1783170130082439400,7.315439453125,-26.31999193406105,1.5043765348322689,-3.318644948266446
1783170130092509200,7.32550927734375,-26.804270657753943,1.5439534890696405,-3.6983699492901563
1783170130102578400,7.335578369140625,-25.505332085967062,1.3349781456783414,-2.835855294087529
1783170130112647200,7.345647216796875,-21.170845084309576,0.7793056261181831,-1.2186232183173298
1783170130122717400,7.355717529296875,-16.119254937946796,0.6164760939605534,0.81206800496988
1783170130132786200,7.3657861328125,-12.002191374552249,0.4957762692630291,2.398055266844481
1783170130142856400,7.3758564453125,-7.03105365204215,0.19685440522581338,2.3407380732551215
1783170130152925400,7.385925537109375,-1.0506278278291226,-0.36037235803902146,1.3164606383435427
1783170130162994400,7.395994384765625,4.446474381458759,-0.8607882698014379,0.550303686003387
1783170130173064400,7.406064453125,9.363144016200303,-1.0205196898132562,1.2700383482560516
1783170130183133400,7.416133544921875,11.542983963751793,-0.8687450740247964,2.4045783850029108
1783170130193203500,7.426203369140625,12.263304316937923,-0.43113633157014847,3.139795278547704
1783170130203272400,7.4362724609375,12.556781067311762,-0.066455754943192,3.1869439832136033
1783170130213341400,7.446341552734375,12.40648646094799,0.05893383500576019,2.1699223646491763
1783170130223411200,7.4564111328125,12.817950123798846,-0.10331073687076568,0.9878275997187942
1783170130233480400,7.46648046875,13.433690158569812,-0.38822248799502845,-0.08007781838662922
1783170130243550200,7.47655029296875,13.343544023698568,-0.48622284349799155,-0.4979679340884089
1783170130253619500,7.486619384765625,12.826657161867617,0.034575054296851156,-0.16396869225539265
1783170130263688400,7.4966884765625,12.721850048959254,0.2738543505370617,-0.09376249873749912
1783170130273758500,7.506758544921875,12.341286551284789,0.3206974963851273,-0.34824754741601643
1783170130283827200,7.5168271484375,11.289276913708449,0.7090878882929682,0.3389223409162834
1783170130293897500,7.5268974609375,9.48474678108692,1.1983112287811934,-0.0802623263743706
1783170130303966200,7.53696630859375,11.054046600598097,0.2750682563714683,0.30606623763283713
1783170130314035500,7.547035400390625,9.872299991518258,0.24149697228968142,-0.35412294225543733
1783170130324105200,7.557105224609375,6.456894750937819,-0.23448373252674937,-2.865475356325507
1783170130334174500,7.567174560546875,7.456902398598194,-0.4882984807282686,-1.2140436354421078
1783170130344244500,7.577244384765625,7.46606711730659,1.1720824164167045,0.5990904036672785
1783170130354313500,7.5873134765625,8.217007649683952,1.2229670927405356,0.4704023932274431
1783170130364382200,7.59738232421875,10.262076723217964,1.306762981802225,0.6425144983194768
1783170130374452500,7.607452392578125,12.087882283580303,1.5290055107846856,0.8249385924588888
1783170130384521500,7.617521484375,12.238197932732104,1.3970621152780949,0.7188746844224632
1783170130394591200,7.62759130859375,12.12940204244852,1.0114769900493323,0.23920502542760222
1783170130404660500,7.637660400390625,11.586100636422634,1.1749921663835643,0.3066408774493262
1783170130414729500,7.6477294921875,11.327392417091131,1.0902072662845252,0.2937897618457675
1783170130424799500,7.657799560546875,11.641536692440509,1.217914923917502,0.23823921260274944
1783170130434868200,7.6678681640625,11.107907954645157,1.4310904954776167,-0.17505712730167433
1783170130444938500,7.6779384765625,9.780785490903257,1.3230541913896798,-0.8612172358032315
1783170130455007200,7.68800732421875,8.676714242178202,1.558128437155485,-0.6558202623553574
1783170130465076500,7.698076416015625,7.665295558187365,1.949670571092516,-0.1751157621537335
1783170130475146200,7.708146240234375,7.217525487202406,2.0888548776380715,0.0969908770663198
1783170130485215500,7.718215576171875,6.836689602327346,2.1007987056709823,0.18428046259582043
1783170130495285200,7.72828515625,5.909291848325729,2.1787033447369932,0.09579327391274273
1783170130505354500,7.7383544921875,4.8732303059875965,2.0150703872419893,-0.26551256558410824
1783170130515423200,7.74842333984375,4.400272017732262,1.3961387168228625,-0.5841710669549182
1783170130525493500,7.758493408203125,3.2419074532836674,1.123139814071357,-0.5976501051984727
1783170130535562200,7.768562255859375,1.3197662557601928,0.8814058181554079,0.006958851827727631
1783170130545632300,7.77863232421875,-0.7448784558594227,0.33376141448915003,0.8028659499257802
1783170130555701500,7.788701416015625,-2.4730180072396992,-0.43043753565102816,1.7216963665902614
1783170130565770500,7.7987705078125,-4.274250267359614,-1.7956603052064775,2.4484679417423902
1783170130575840500,7.808840576171875,-6.1395829514682285,-3.388670962911844,2.0434972941726444
1783170130585909200,7.8189091796875,-7.6358841702640055,-4.847951195563375,0.9144391229029745
1783170130595978200,7.828978271484375,-8.725041927495598,-6.036159401872753,0.26850557338763026
1783170130606048300,7.83904833984375,-9.545077038887143,-7.186522446173429,-0.39520295799952
1783170130616117500,7.849117431640625,-10.741215161412955,-7.387135034888982,-1.0616319638591258
1783170130626187300,7.859187255859375,-12.883022607690096,-5.824696333318949,-0.7785042466074228
1783170130636256500,7.869256591796875,-16.5916140912652,-4.465606075169146,-0.6945991980828344
1783170130646325200,7.8793251953125,-23.051930048823355,-3.302218714122474,-0.8818737279281019
1783170130656395500,7.8893955078125,-29.70874122290611,-1.5794995803557335,-1.5482197682119905
1783170130666464300,7.89946435546875,-33.68133903222084,-0.3042163171835244,-2.0945364304058254
1783170130676534500,7.909534423828125,-34.14220414710044,0.7692322681322693,-1.7738751743778585
1783170130686603300,7.919603271484375,-31.821706021058557,1.2622026861943303,-1.2353075188755989
1783170130696672500,7.929672607421875,-27.317565048050877,1.0311709938175975,-0.42564602705817667
1783170130706742300,7.9397421875,-22.26352926210165,0.9373343338653445,0.28869212817950174
1783170130716811500,7.9498115234375,-17.013837633061407,0.9482824288591742,0.18735612544780597
1783170130726881300,7.95988134765625,-12.230758138120173,0.32636341319233175,-0.9133033968713133
1783170130736950300,7.9699501953125,-8.282293484064937,-0.22543065749928354,-2.330729304938018
1783170130747019300,7.980019287109375,-4.7123102607131,-0.4508461174294352,-2.79660377241224
1783170130757089300,7.99008935546875,-1.7775649688065052,-0.7348162037894129,-2.7683915311455727
1783170130767158300,8.000158203125,0.43089141689836974,-1.142862751673162,-2.5135572306379674
1783170130777228300,8.010228271484374,2.8761048868894576,-1.2324281640470027,-1.9039254496142266
1783170130787297500,8.020297607421876,5.017520703500509,-1.4785650710970162,-1.4524600312426685
1783170130797366300,8.0303662109375,7.329554368057846,-1.2362447997257113,-0.43875323631465435
1783170130807436500,8.0404365234375,9.958892233300208,-1.0215162996351719,0.387522596097365
1783170130817505300,8.05050537109375,11.566534350687265,-0.8641527777984738,0.6203184486024081
1783170130827575600,8.060575439453125,11.617667156553267,-0.252670984993875,1.473166426923871
1783170130837644300,8.070644287109374,11.03259114011526,0.3959197644993663,2.046636468981206
1783170130847713500,8.080713623046876,10.912845985794068,0.47682694638222456,1.6560034127131102
1783170130857783300,8.090783203125,10.908285546010733,0.5502770902574062,0.7397703190654515
1783170130867852500,8.1008525390625,10.830198097723722,0.7176072948351502,-0.13044658107757567
1783170130877922300,8.11092236328125,11.30505082142353,1.1334151243701576,-0.09640508566815406
1783170130887991600,8.120991455078125,11.812855382132529,1.7769822004824876,0.40103129882682115
1783170130898060300,8.131060302734374,12.194469850164651,2.353491317974776,1.170315041418001
1783170130908130300,8.14113037109375,12.51551148381233,2.488895083068311,1.5731695005513726
1783170130918199300,8.15119921875,12.469981904780864,2.1713263862282037,1.2035606737419962
1783170130928269300,8.161269287109375,11.899822886967659,1.8426837760575114,0.9255006882086396
1783170130938338300,8.17133837890625,11.32138820824027,1.509917217824608,0.8362763443574309
1783170130948407300,8.1814072265625,11.308730971240996,1.469630361752212,0.6477624089103192
1783170130958477600,8.1914775390625,11.417421647584437,1.4313019462712109,0.21026152901062742
1783170130968546300,8.20154638671875,11.295330222398041,1.3452972951188682,-0.29247382040899245
1783170130978616600,8.211616455078126,11.059064136499165,1.560735989305377,-0.3509207121480256
1783170130988685300,8.221685302734375,10.842532678639888,1.8918325684994457,-0.044252279971493405
1783170130998754300,8.23175439453125,10.789693068856,2.102237067911029,0.026516999922413378
1783170131008824300,8.24182421875,11.057337458837031,2.193254724919796,-0.1692282384851016
1783170131018893600,8.2518935546875,11.823619937252998,2.426885201618075,-0.16284001701902598
1783170131028963300,8.26196337890625,11.913678393840788,2.7861016676202417,0.20053473770637065
1783170131039032600,8.272032470703126,10.872101302951574,3.1139550271093843,0.5432308250077068
1783170131049101300,8.282101318359375,9.19123612844348,3.240935101120174,0.49902303263191133
1783170131059171300,8.29217138671875,7.771819411885738,3.4770565178513526,0.3290897328836843
1783170131069240300,8.302240234375,6.6489809188485145,3.5158152875736355,0.31910825443230567
1783170131079310300,8.312310302734375,5.9133156970143315,3.231303349421918,0.01263302728991257
1783170131089379300,8.32237939453125,6.002583295485377,2.849733012792468,-0.5417560762800276
1783170131099448300,8.3324482421875,6.908661198082566,2.273787812793255,-0.6095801604343578
1783170131109518300,8.342518310546875,7.124725622951984,1.7424691055059431,-0.33852585241198535
1783170131119587300,8.35258740234375,5.82143002499938,0.9833747850283979,-0.14298993677305988
1783170131129657300,8.3626572265625,3.9013521897464987,0.3515884553417563,0.03095975900967605
1783170131139726300,8.372726318359375,1.2627438073337078,-0.36834815922379494,0.6091852793652563
1783170131149795300,8.38279541015625,-2.20620831451714,-1.1404054216489194,1.7797151325777172
1783170131159865300,8.392865234375,-5.448781538233161,-2.280601584461331,2.730747444666922
1783170131169934600,8.4029345703125,-7.3032146426647895,-3.756155198782682,3.1526445309877396
1783170131180004400,8.41300439453125,-8.401175299555062,-4.750922607702017,2.770437942281365
1783170131190073600,8.423073486328125,-9.71110463643372,-5.904596968507766,1.5183824099615215
1783170131200142300,8.433142333984375,-11.802701067864895,-7.250650342690944,0.2589329862643964
1783170131210212400,8.44321240234375,-14.332583118098974,-7.6045093733131885,-0.12782364869546145
1783170131220281300,8.45328125,-17.100304787158965,-6.882194631439447,-0.10258763762745074
1783170131230351400,8.463351318359376,-20.72103444740772,-5.873139753970503,-0.1688274939307943
1783170131240420400,8.47342041015625,-25.318362238156794,-4.685428683528304,-1.2546933334775268
1783170131250489600,8.483489501953125,-29.942554654955863,-3.5084283921927213,-2.3515809543088078
1783170131260559400,8.493559326171875,-32.55059312705993,-2.398648848823458,-2.877601847448945
1783170131270628400,8.50362841796875,-32.512243814921376,-1.6085282525718212,-2.6152593632683154
1783170131280698600,8.51369873046875,-29.9442754873991,-1.3472409765325486,-2.118139278180897
1783170131290767400,8.523767333984376,-25.86660168510675,-1.4925941809713839,-1.31404612454772
1783170131300836400,8.53383642578125,-21.412834808552265,-1.6582741341240703,-0.23909212137134744
1783170131310906400,8.54390625,-17.23550937641859,-1.6010282522052526,0.9398761273026466
1783170131320975400,8.553975341796875,-13.455747676599024,-1.552206207499653,1.7416975366115568
1783170131331045400,8.56404541015625,-9.420948554915189,-1.4838897732511163,1.7706816390335558
1783170131341114600,8.574114501953124,-5.782215620464086,-1.5874107918716966,1.42535867382735
1783170131351183400,8.584183349609376,-2.377036005821824,-1.532620048020035,1.3127373800367117
1783170131361253400,8.59425341796875,0.4938450089395046,-1.4074889628767966,1.0529057826984674
1783170131371322400,8.604322265625,2.1527081949979068,-1.1624664468094705,0.5828179353129118
1783170131381392400,8.614392333984375,2.8937130242943763,-0.9115186323463916,0.4225286622226238
1783170131391461400,8.62446142578125,3.356284943091869,-0.19178616205081342,0.5959708468746393
1783170131401530600,8.634530517578124,4.200052227726578,0.2803115638524294,0.569793508969061
1783170131411600400,8.644600341796876,5.563447781854868,0.3799799986980855,0.24571258069071916
1783170131421669400,8.65466943359375,6.9539943777590985,0.6205836754098534,0.0959712608281523
1783170131431739400,8.664739501953125,7.62977591651678,0.8511385440550744,-0.04067044856250286
1783170131441808400,8.674808349609375,7.617331445485353,1.193208498814702,0.13097297957185655
1783170131451877400,8.68487744140625,7.952775698494911,1.5870274916425346,0.4996049607057124
1783170131461947400,8.694947509765624,9.567971592262387,1.6760203648254275,0.43768874888829884
1783170131472016400,8.705016357421876,11.130553501695394,1.6851999888420104,-0.26935144962724294
1783170131482085400,8.71508544921875,12.67012336885333,1.7312015692993998,-0.8527429835770278
1783170131492155400,8.7251552734375,13.81616738091111,1.9705910479158162,-0.39777843451071526
1783170131502224400,8.735224365234375,14.307369181865452,2.2347405815184116,0.5211263260316104
1783170131512294700,8.745294677734375,13.490157311201095,2.4285481663942337,1.1891093198675662
1783170131522363400,8.75536328125,12.010465866422653,2.563129655319452,1.58309643580392
1783170131532432400,8.765432373046876,10.868533381336928,2.5136294190913437,1.8341694840818643
1783170131542502400,8.77550244140625,10.663740292066334,2.3530108409814536,1.8048910748884082
1783170131552571600,8.785571533203125,11.13779572790861,2.176360434872657,1.5315816448830066
1783170131562641400,8.795641357421875,11.652682355833052,1.947582805033028,1.1835581154812127
1783170131572710400,8.80571044921875,12.262511705255507,1.6661080426201222,0.9506988423511386
1783170131582779400,8.815779296875,12.951950597965716,1.7136008845485746,0.8154934493739158
1783170131592849400,8.825849365234374,13.270405137729645,1.7134316654615103,0.4898612730655819
1783170131602918400,8.83591845703125,13.076672371655702,1.7231510954432188,0.14717026379816234
1783170131612988400,8.845988525390625,12.381823144334554,2.0268352054461833,0.47185774313490836
1783170131623057400,8.856057373046875,11.428003831875323,2.336654164942354,0.7571097225315868
1783170131633126400,8.86612646484375,10.292693979799747,2.7104963915377853,0.8076162131927906
1783170131643196400,8.876196533203125,9.50806394378841,3.0855490168362856,0.9443872480515391
1783170131653265400,8.886265380859374,8.997118162444233,3.202748870588839,0.8640354350291192
1783170131663335400,8.89633544921875,8.783468982023,3.130927204698324,0.5125163185965269
1783170131673404400,8.906404296875,9.057582275757193,3.013079116170108,-0.018543847352452576
1783170131683473400,8.916473388671875,9.610651627081632,2.7560376610070465,-0.37726149698700756
1783170131693543400,8.92654345703125,9.372051545277237,2.7839327991485594,-0.29364107409007845
1783170131703612400,8.9366123046875,7.830593087893724,2.8613340187370775,-0.13832436524797231
1783170131713682400,8.946682373046874,6.20955723592639,2.5704601443380115,-0.045882922513782974
1783170131723751400,8.95675146484375,4.873057287508249,2.30388382197991,0.09218447229843586
1783170131733820400,8.9668203125,3.6704672123640774,1.6515962637953459,0.04790916764438152
1783170131743890400,8.976890380859375,2.9569962866812944,0.6736179309830069,-0.242803744039312
1783170131753959400,8.98695947265625,2.3718816917985674,-0.3897711787417531,-0.6703706196248531
1783170131764029400,8.997029541015625,0.8787643637359142,-1.1810295468516647,-0.6381473891511559
1783170131774098400,9.007098388671874,-1.677556196090579,-1.6221743544779716,-0.4272672350518405
1783170131784167400,9.01716748046875,-4.94041992816329,-2.4101693368777632,-0.41175380490384994
1783170131794237400,9.027237548828126,-8.81847424443066,-2.879013467812538,-0.1960677300938405
1783170131804306400,9.037306396484375,-12.648756755697727,-2.816694958804548,0.33266364584770053
1783170131814376400,9.04737646484375,-14.949087707501649,-3.126740566663444,0.6367502357043325
1783170131824445400,9.057445556640625,-15.207774884045124,-3.829927121958136,0.56847479105331
1783170131834514400,9.067514404296874,-14.38404793239832,-4.9866047562330955,0.08953465190939605
1783170131844584400,9.07758447265625,-14.132331763911246,-5.972765664848685,-0.6599411416776478
1783170131854653400,9.0876533203125,-16.113794334453342,-6.074896252024173,-1.648377740140259
1783170131864723500,9.097723388671875,-20.657749431455134,-5.020923205420375,-2.083423938630521
1783170131874792400,9.10779248046875,-27.077597769546507,-3.535619181457162,-2.5366867618128657
1783170131884861400,9.117861328125,-32.348278410601615,-2.23409965326637,-2.55877876663357
1783170131894931200,9.12793115234375,-34.16349009623527,-1.4257001807413994,-1.7933254325181245
1783170131905000400,9.13800048828125,-32.52467776455879,-1.402263483313471,-1.4638282513447105
1783170131915070500,9.148070556640626,-28.977600200498102,-1.5929033979386091,-1.607131537516415
1783170131925139500,9.158139404296875,-25.156522155427933,-1.4238615671373902,-1.3520179816760123
1783170131935208400,9.16820849609375,-21.474929737937448,-1.608908045669645,-1.5714242643192409
1783170131945278500,9.178278564453125,-17.486805858188866,-1.713563913539052,-1.5069465314507484
1783170131955347500,9.188347412109374,-13.555836528813838,-1.3287922966502606,-0.8273372510984539
1783170131965417500,9.19841748046875,-10.266063162505626,-1.0636555055759846,-0.5057233705207705
1783170131975486500,9.208486572265626,-8.489552671188116,-0.8475606855683028,-0.10491459187082945
1783170131985555500,9.218555419921875,-8.06484549588263,-0.399162545812875,0.4174125613179058
1783170131995625500,9.22862548828125,-6.9864271593302485,-0.06127616034820676,0.4669589747752994
1783170132005694500,9.238694580078125,-5.736741571012139,0.1858458122164011,0.7366364780191331
1783170132015764500,9.248764404296875,-3.460045177295804,0.7390626091875135,0.5843303857024759
1783170132025833500,9.25883349609375,-0.1210778642296791,1.363903211389482,0.04947415193878114
1783170132035902500,9.26890234375,2.9528239694327114,1.9921289259850978,-0.22786372986510395
1783170132045972200,9.27897216796875,5.374578822425008,2.295070254796743,-0.362685895678401
1783170132056041500,9.28904150390625,7.744909193128347,2.176697411742061,-0.1843634647041559
1783170132066111200,9.299111328125,10.13880573285818,2.086796045412123,0.20220482634305953
1783170132076180500,9.309180419921875,12.913773135262726,1.9420579041317103,0.39636509711407125
1783170132086249500,9.31924951171875,15.203484493374823,1.691465478977561,0.686226214274019
1783170132096319500,9.329319580078124,16.72550818244815,1.6593721584938466,1.0895532593552022
1783170132106388200,9.33938818359375,17.211780125784873,1.8066598381265997,1.6850471363678574
1783170132116458500,9.34945849609375,16.414001269865036,1.9937942288488149,1.930329764676094
1783170132126527200,9.35952734375,15.4425843413949,2.0867238569587467,1.737040650716424
1783170132136596500,9.369596435546875,14.999472325348853,2.314889930771291,1.6520149275988338
1783170132146666500,9.37966650390625,14.597469733804463,2.486019527631998,1.3188248832568525
1783170132156735700,9.38973583984375,14.18232709017992,2.595215815410018,0.994109164206311
1783170132166805800,9.3998056640625,13.451308817368744,2.7345304703369737,1.0511927682355047
1783170132176874800,9.409874755859375,12.649376348900795,2.785556016436219,1.471337604061514
1783170132186943700,9.41994384765625,12.874479235750435,2.817049763591587,1.7371967180609702
1783170132197013800,9.430013671875,13.581506392121314,2.8013220331057904,1.662949286328256
1783170132207082800,9.440082763671874,13.73086459441781,2.716768019153178,1.3806892187565565
1783170132217152800,9.45015283203125,13.080837674641609,2.6551164496213198,0.979448113103956
1783170132227221800,9.4602216796875,12.1833756246984,2.550632285057008,0.7014729563098401
1783170132237290800,9.470290771484375,11.313887623351812,2.709183847634494,0.4270367872968316
1783170132247360800,9.48036083984375,10.249179832243918,2.749384048336744,0.2671866362761706
1783170132257429800,9.4904296875,9.265557502195238,2.7456422314599154,0.17169358741901813
1783170132267499800,9.500499755859375,9.595819384130834,2.7812860840320583,-0.3749533296424895
1783170132277568800,9.51056884765625,9.919196182727813,3.0021909346699713,-0.5410433979660272
1783170132287637800,9.5206376953125,9.589845570418237,3.249824802279472,-0.21906236457638442
1783170132297707800,9.530707763671876,8.671538885366916,3.48541634991765,0.14450024087131022
1783170132307776800,9.54077685546875,7.604046431976556,3.583782616123557,0.3276198429942131
1783170132317846800,9.5508466796875,6.729190766116976,3.545228721323609,0.2523927525743842
1783170132327915800,9.560915771484375,6.122312083193659,3.42503670001775,0.1250439183164388
1783170132337984800,9.57098486328125,5.740131213450431,3.2767531412154436,-0.18933577322401104
1783170132348054500,9.581054443359376,5.529620915576816,2.927490206211805,-0.5429992082089186
1783170132358123800,9.591123779296876,5.35374120157957,2.5950305219709873,-0.599823211453855
1783170132368193800,9.60119384765625,5.22250142429769,2.2891434950962664,-0.7851659695189446
1783170132378262800,9.6112626953125,4.792973112446069,1.7997884910523891,-0.838962295505777
1783170132388331800,9.621331787109375,3.7338252935528753,1.5034016984507441,-0.43088725217990576
1783170132398401800,9.63140185546875,2.233852108246088,0.866401725769043,-0.5024412801101803
1783170132408470800,9.641470703125,0.5899205338597298,-0.1846609863460064,-0.5667457022383808
1783170132418540800,9.651540771484376,-1.4886270309060812,-1.4774755222946405,-0.13373583188131452
1783170132428609800,9.66160986328125,-3.6945454225659367,-2.827851435852051,0.3133294883677736
1783170132438679800,9.6716796875,-5.424192455899715,-3.648852761927247,0.6980645361058414
1783170132448749800,9.681749755859375,-6.815391378232836,-3.8378973701849577,0.7348131350494921
1783170132458818600,9.691818603515625,-7.751540593966841,-4.396653242713213,0.8019166863769293
1783170132468887800,9.7018876953125,-8.183717959022522,-5.125760713467002,1.0750149578496813
1783170132478957600,9.71195751953125,-9.638139937987923,-5.257921697247028,0.3502747423946857
1783170132489026800,9.72202685546875,-12.974140217941999,-4.676789449998736,-1.103619851695746
1783170132499096800,9.732096923828125,-18.65949705415368,-3.409052072161436,-2.5968758575767277
1783170132509165800,9.742165771484375,-26.468179923534393,-1.9086019169926642,-3.949510363715887
1783170132519234600,9.752234619140625,-33.46926513829231,-0.36894188733324407,-4.707637592726946
1783170132529304800,9.762304931640625,-36.05707213875055,0.818804692813754,-5.414648382484913
1783170132539373600,9.77237353515625,-34.554006832647325,1.0096436371423303,-5.3532595555424685
1783170132549443800,9.78244384765625,-30.562496233069893,0.9796009655781089,-4.6494048917278645
1783170132559512800,9.792512939453125,-25.735203502392768,1.0861294954515992,-3.4770340137585998
1783170132569581800,9.802581787109375,-21.616154902660845,0.7612896385647356,-1.8084698101580141
1783170132579651800,9.81265185546875,-18.416570925843715,0.16902181092649698,-0.3026069822907448
1783170132589720800,9.822720947265625,-15.564904899162054,-0.3497074639007449,0.6106651426594704
1783170132599790800,9.832790771484374,-12.640323273873328,-0.8990038725577294,0.9814340262241661
1783170132609859600,9.842859619140626,-9.093570703983307,-1.2138650640048085,1.089377464396879
1783170132619928800,9.8529287109375,-5.2846396083027125,-1.148561840097606,1.2110481068879366
1783170132629998600,9.86299853515625,-1.6409090116947889,-1.0869793902792035,0.8878716531686485
1783170132640067800,9.87306787109375,1.3785206425458192,-0.8645819629959761,0.7982705118943005
1783170132650137600,9.8831376953125,3.22383111384511,-0.14057868351340294,1.5268980171114206
1783170132660206800,9.893206787109374,4.0259354317486284,0.28504984442070125,2.2400112153977156
1783170132670275600,9.903275634765626,4.7462978705108165,0.4334361329451203,2.197986137355864
1783170132680345900,9.913345947265626,6.044457274618744,0.6251328631468117,1.879909490993619
1783170132690414600,9.92341455078125,7.77095665757656,0.9301029213070869,1.6464380042493343
1783170132700484900,9.93348486328125,9.514560320070386,1.183842412315309,1.5110586429446935
1783170132710553600,9.9435537109375,11.329852085202932,1.3239815353676676,1.2979450307048856
1783170132720622800,9.953622802734374,12.58737377397418,1.5531521100476384,1.1739551514860243
1783170132730692900,9.96369287109375,13.099261804604529,1.920402537162602,1.1621908447384834
1783170132740761900,9.973761962890626,12.988174588513374,2.213495256654918,1.1681016031522302
1783170132750831900,9.983831787109375,12.665043873631953,2.4971105382278562,1.2913739817515015
1783170132760900600,9.993900634765625,12.478111435222624,2.3450264180988074,1.3286414900027215
1783170132770969900,10.003969970703125,11.520806034213305,2.2075766802608965,1.420216927024722
1783170132781039600,10.01403955078125,11.47797343918085,2.4568381490722295,1.6415731746919453
1783170132791108900,10.02410888671875,11.505248399597406,2.3522002552509305,1.4404687108062206
1783170132801178600,10.0341787109375,11.705041488623618,1.8992443060606716,1.1988567338347433
1783170132811247900,10.044247802734375,12.00946282685995,1.965160547299683,1.1478002080753444
1783170132821316600,10.054316650390625,12.482307133346795,2.289870932587981,1.4174576914444565
