time,seconds_elapsed,z,y,x
1783170122832486100,0.065486083984375,0.20846715569496155,-0.1826586127281189,-0.1821226179599762
1783170122842556200,0.07555615234375,0.2694109082221985,-0.17188243567943573,-0.18130749464035034
1783170122852625200,0.085625244140625,0.32995280623435974,-0.16428975760936737,-0.17189428210258484
1783170122862694100,0.095694091796875,0.3530285954475403,-0.21333466470241547,-0.1568586677312851
1783170122872764200,0.10576416015625,0.36617663502693176,-0.21089227497577667,-0.07450388371944427
1783170122882833200,0.115833251953125,0.3645716905593872,-0.19604218006134033,0.003931764978915453
1783170122892902100,0.125902099609375,0.3431585431098938,-0.17657527327537537,0.0422368086874485
1783170122902972200,0.13597216796875,0.31335631012916565,-0.1250491440296173,0.03356926515698433
1783170122913041200,0.146041259765625,0.2908762991428375,-0.06294715404510498,-0.017139185220003128
1783170122923111200,0.156111083984375,0.27312761545181274,-0.002384479157626629,-0.07503271847963333
1783170122933180200,0.16618017578125,0.24512553215026855,0.008230348117649555,-0.13943009078502655
1783170122943249200,0.176249267578125,0.22423173487186432,-0.00930494163185358,-0.2207765430212021
1783170122953319200,0.186319091796875,0.23615683615207672,-0.021277181804180145,-0.3106433153152466
1783170122963388200,0.19638818359375,0.24377195537090302,-0.044079720973968506,-0.4176696836948395
1783170122973457200,0.20645703125,0.2272060215473175,-0.06458605825901031,-0.5137873888015747
1783170122983527200,0.216527099609375,0.20781734585762024,-0.12576353549957275,-0.5639548301696777
1783170122993596200,0.22659619140625,0.20685088634490967,-0.23671509325504303,-0.5229509472846985
1783170123003665200,0.2366650390625,0.23336271941661835,-0.3352804183959961,-0.35542574524879456
1783170123013735200,0.246735107421875,0.2720576524734497,-0.4002828299999237,-0.13893072307109833
1783170123023804200,0.25680419921875,0.35826024413108826,-0.4162733554840088,0.04301457479596138
1783170123033874000,0.2668740234375,0.4596875309944153,-0.419204980134964,0.1390756070613861
1783170123043943200,0.276943115234375,0.5442094802856445,-0.45857810974121094,0.1812037229537964
1783170123054012200,0.28701220703125,0.6316232681274414,-0.4691023826599121,0.25066137313842773
1783170123064082200,0.297082275390625,0.7249767780303955,-0.3604675233364105,0.3892982304096222
1783170123074151000,0.30715087890625,0.792559802532196,-0.1155424416065216,0.5363729596138
1783170123084220200,0.31722021484375,0.8029727339744568,0.17823804914951324,0.5474498271942139
1783170123094290000,0.3272900390625,0.7585656046867371,0.4972895383834839,0.3360494077205658
1783170123104359200,0.337359130859375,0.6434714198112488,0.7826608419418335,-0.006074672099202871
1783170123114428200,0.34742822265625,0.5094414949417114,0.9082592129707336,-0.34815290570259094
1783170123124498200,0.357498291015625,0.4187029004096985,0.8498481512069702,-0.5228449702262878
1783170123134567000,0.36756689453125,0.36994096636772156,0.5078271627426147,-0.44866710901260376
1783170123144638000,0.377637939453125,0.337146133184433,-0.042884621769189835,-0.16672539710998535
1783170123154707000,0.38770703125,0.2615845203399658,-0.6427726149559021,0.2235608547925949
1783170123164776200,0.397776123046875,0.2063959687948227,-0.976550817489624,0.6112034916877747
1783170123174846000,0.407845947265625,0.22002150118350983,-0.7763023972511292,0.9358845949172974
1783170123184915000,0.4179150390625,0.26308685541152954,-0.31355220079421997,0.9354704022407532
1783170123194984000,0.42798388671875,0.20566695928573608,0.08229340612888336,0.5629937648773193
1783170123205054000,0.438053955078125,0.22517822682857513,0.3021607995033264,0.05478578805923462
1783170123215123000,0.448123046875,0.2237803190946579,0.3229292035102844,-0.34483298659324646
1783170123225192200,0.458192138671875,0.28337499499320984,0.12949086725711823,-0.6182722449302673
1783170123235262000,0.468261962890625,0.28121596574783325,-0.33496466279029846,-0.9224976301193237
1783170123245331000,0.4783310546875,0.20488391816616058,-0.9213600754737854,-1.2682969570159912
1783170123255401000,0.48840087890625,0.1951412707567215,-1.4049651622772217,-1.3882627487182617
1783170123265470000,0.498469970703125,0.3997209370136261,-1.458080768585205,-1.1314246654510498
1783170123275539000,0.5085390625,0.81003338098526,-0.9065858721733093,-0.7597282528877258
1783170123285609000,0.51860888671875,1.2101236581802368,-0.04841534048318863,-0.5692026019096375
1783170123295678000,0.528677978515625,1.478263258934021,0.7619712948799133,-0.6290369033813477
1783170123305747000,0.538746826171875,1.5664018392562866,1.452081322669983,-0.7875714898109436
1783170123315817200,0.548817138671875,1.5691806077957153,1.9433985948562622,-0.8959027528762817
1783170123325886000,0.558885986328125,1.4503401517868042,2.16044282913208,-0.9083487391471863
1783170123335956200,0.568956298828125,1.268195629119873,2.1962056159973145,-0.9010546207427979
1783170123346025000,0.57902490234375,1.1056652069091797,2.063770294189453,-0.9899265766143799
1783170123356094200,0.58909423828125,0.9840602874755859,1.5621618032455444,-1.0382329225540161
1783170123366164000,0.5991640625,1.072506308555603,0.9576411247253418,-0.8444502949714661
1783170123376233200,0.609233154296875,1.3137975931167603,0.5234798192977905,-0.49866384267807007
1783170123386302000,0.619302001953125,1.569016456604004,0.2598930895328522,-0.12384194135665894
1783170123396372000,0.6293720703125,1.6014859676361084,0.4051336646080017,0.18318377435207367
1783170123406441000,0.63944091796875,1.3971279859542847,0.794766902923584,0.3117683529853821
1783170123416511000,0.649510986328125,1.0634195804595947,1.2737725973129272,0.11914218217134476
1783170123426580000,0.659580078125,0.7073550224304199,1.7229275703430176,-0.24653829634189606
1783170123436649000,0.66964892578125,0.4723800718784332,1.8975597620010376,-0.5248162150382996
1783170123446719000,0.679718994140625,0.32313254475593567,1.6764888763427734,-0.585639476776123
1783170123456788000,0.6897880859375,0.2557127773761749,1.1397244930267334,-0.46587076783180237
1783170123466857000,0.69985693359375,0.2853616774082184,0.6241952776908875,-0.2508851885795593
1783170123476927000,0.709927001953125,0.4179263710975647,0.14617200195789337,-0.0829760730266571
1783170123486996000,0.719995849609375,0.579189121723175,-0.16929461061954498,0.10916125029325485
1783170123497065000,0.73006494140625,0.6596842408180237,-0.19309662282466888,0.23882471024990082
1783170123507135000,0.740135009765625,0.5587478280067444,0.0030977874994277954,0.26992183923721313
1783170123517204000,0.750203857421875,0.2885088622570038,0.16031324863433838,0.22008530795574188
1783170123527274000,0.76027392578125,-0.028323940932750702,0.20471400022506714,0.14937171339988708
1783170123537343000,0.770343017578125,-0.21774552762508392,0.16031138598918915,0.032476797699928284
1783170123547412000,0.780411865234375,-0.2590559124946594,0.04951213300228119,-0.04357235133647919
1783170123557482000,0.79048193359375,-0.1947171539068222,-0.05536102503538132,-0.0188590157777071
1783170123567551000,0.800551025390625,-0.04366437718272209,-0.11835116147994995,0.16321109235286713
1783170123577620000,0.810619873046875,0.08938076347112656,-0.18040227890014648,0.5363436341285706
1783170123587690200,0.820690185546875,0.17117035388946533,-0.17968879640102386,0.9030655026435852
1783170123597759000,0.830759033203125,0.20824235677719116,-0.23610413074493408,1.0349383354187012
1783170123607828000,0.840827880859375,0.09445073455572128,-0.343283474445343,0.9938177466392517
1783170123617898000,0.85089794921875,-0.1443096399307251,-0.43910107016563416,0.9096400141716003
1783170123627967200,0.86096728515625,-0.3365602493286133,-0.42744505405426025,0.7546110153198242
1783170123638037000,0.871037109375,-0.4273354113101959,-0.20007742941379547,0.5789049863815308
1783170123648106000,0.88110595703125,-0.39741015434265137,0.19973015785217285,0.4337753653526306
1783170123658175000,0.891175048828125,-0.28918060660362244,0.533719539642334,0.3801347613334656
1783170123668245000,0.901244873046875,-0.22009031474590302,0.6593301892280579,0.45394423604011536
1783170123678314000,0.91131396484375,-0.2133418768644333,0.6660829186439514,0.6889926791191101
1783170123688383000,0.921383056640625,-0.2604875862598419,0.6006069183349609,1.0452848672866821
1783170123698453000,0.931452880859375,-0.3967817723751068,0.362775981426239,1.2797259092330933
1783170123708522000,0.94152197265625,-0.5659664273262024,0.14999791979789734,1.41161048412323
1783170123718592000,0.951592041015625,-0.6427309513092041,0.03439594432711601,1.414018988609314
1783170123728661000,0.961660888671875,-0.49663713574409485,0.12307611852884293,1.3114866018295288
1783170123738730000,0.97172998046875,-0.3125290870666504,0.24460920691490173,1.2442904710769653
1783170123748800000,0.981800048828125,-0.21485000848770142,0.2118770033121109,1.232135534286499
1783170123758869000,0.991868896484375,-0.18112534284591675,0.054563283920288086,1.2263692617416382
1783170123768938000,1.00193798828125,-0.1727876365184784,-0.00042370986193418503,1.1515756845474243
1783170123779008000,1.012008056640625,-0.28576746582984924,0.01798299327492714,0.95075523853302
1783170123789077000,1.022076904296875,-0.3728604316711426,-0.34425923228263855,0.5872659087181091
1783170123799146000,1.03214599609375,-0.37942564487457275,-0.3728376030921936,0.3881264626979828
1783170123809216000,1.042216064453125,-0.4162735641002655,-0.28034135699272156,0.43226778507232666
1783170123819285000,1.052284912109375,-0.2745742201805115,-0.26591527462005615,0.4358161687850952
1783170123829355000,1.06235498046875,-0.10161957889795303,-0.13807998597621918,0.35778409242630005
1783170123839424000,1.072424072265625,0.053373731672763824,-0.09304540604352951,0.1513717919588089
1783170123849493000,1.082492919921875,0.1418975591659546,-0.2367965430021286,-0.016569390892982483
1783170123859563000,1.09256298828125,0.06441900879144669,-0.5317336320877075,-0.25521498918533325
1783170123869632000,1.102632080078125,-0.1525833010673523,-1.186441421508789,-0.7028040885925293
1783170123879701000,1.112700927734375,-0.29640838503837585,-2.188400983810425,-1.2605865001678467
1783170123889771000,1.12277099609375,-0.2835170328617096,-3.144484281539917,-1.4970040321350098
1783170123899840000,1.132840087890625,-0.06246453523635864,-3.389261484146118,-1.2339287996292114
1783170123909910000,1.142909912109375,0.41235294938087463,-2.8645694255828857,-0.7927007675170898
1783170123919979000,1.15297900390625,0.928807258605957,-2.160170793533325,-0.6501470804214478
1783170123930048000,1.163048095703125,1.2985968589782715,-1.3499616384506226,-0.8393431305885315
1783170123940118000,1.173117919921875,1.3779693841934204,-0.4382396638393402,-1.1125030517578125
1783170123950187000,1.18318701171875,1.25083327293396,0.257280558347702,-1.383278727531433
1783170123960256000,1.193256103515625,0.9258050918579102,0.48138129711151123,-1.6306270360946655
1783170123970326000,1.203325927734375,0.5284920334815979,0.20321477949619293,-1.7912400960922241
1783170123980395000,1.21339501953125,0.3094491958618164,-0.21831567585468292,-1.8151168823242188
1783170123990464000,1.223464111328125,0.4283558130264282,-0.5636722445487976,-1.7538361549377441
1783170124000534000,1.233533935546875,0.5728578567504883,-0.8205026984214783,-1.5362249612808228
1783170124010603000,1.24360302734375,0.47516873478889465,-0.8975406289100647,-1.1984730958938599
1783170124020673000,1.253673095703125,0.28359612822532654,-0.7136642932891846,-0.879277229309082
1783170124030742000,1.263741943359375,0.18914756178855896,-0.2966344356536865,-0.676927924156189
1783170124040811000,1.27381103515625,0.2733955979347229,0.2710135579109192,-0.6599311232566833
1783170124050881000,1.283881103515625,0.21836239099502563,0.5801332592964172,-0.7047080993652344
1783170124060950000,1.293949951171875,0.06475658714771271,0.7773861885070801,-0.6517844200134277
1783170124071019000,1.30401904296875,-0.12067380547523499,0.9537482261657715,-0.5539345145225525
1783170124081089000,1.314089111328125,-0.25709423422813416,1.0014163255691528,-0.42683273553848267
1783170124091158000,1.324157958984375,-0.25619879364967346,0.9304689168930054,-0.33173051476478577
1783170124101228000,1.33422802734375,-0.019071467220783234,1.0396884679794312,-0.2502391040325165
1783170124111296800,1.344296875,0.29961350560188293,1.1660014390945435,-0.14227838814258575
1783170124121366000,1.354365966796875,0.40148019790649414,1.0431724786758423,0.09000465273857117
1783170124131436000,1.36443603515625,0.32991135120391846,0.7628664970397949,0.4144039750099182
1783170124141505000,1.374505126953125,0.24812380969524384,0.5839742422103882,0.6367970705032349
1783170124151574000,1.384573974609375,0.17167158424854279,0.5599759817123413,0.7084803581237793
1783170124161644000,1.39464404296875,-0.001632831757888198,0.5180242657661438,0.6386551856994629
1783170124171712800,1.404712646484375,-0.16039477288722992,0.48220008611679077,0.5586481094360352
1783170124181781800,1.41478173828125,-0.1759931743144989,0.5362041592597961,0.5732440948486328
1783170124191851800,1.424851806640625,-0.1171751320362091,0.545255720615387,0.560225784778595
1783170124201921000,1.434921142578125,0.010631299577653408,0.4748513698577881,0.42264261841773987
1783170124211990800,1.44499072265625,0.16355527937412262,0.49496132135391235,0.3019587993621826
1783170124222060000,1.45506005859375,0.18171536922454834,0.5544139742851257,0.28099438548088074
1783170124232128800,1.465128662109375,0.0328073650598526,0.6333293914794922,0.37156352400779724
1783170124242199000,1.475198974609375,-0.09421077370643616,0.7632309198379517,0.44627583026885986
1783170124252267800,1.485267822265625,-0.04777095466852188,0.8725895285606384,0.4319201111793518
1783170124262337000,1.4953369140625,0.08869794756174088,0.9030755162239075,0.39672937989234924
1783170124272406800,1.50540673828125,0.16111178696155548,0.9049518704414368,0.5153398513793945
1783170124282476000,1.51547607421875,0.10299096256494522,0.9103388786315918,0.7002183198928833
1783170124292545800,1.5255458984375,-0.005366386845707893,0.9216076135635376,0.8511180877685547
1783170124302615000,1.535614990234375,-0.048106927424669266,0.9613488912582397,0.8988230228424072
1783170124312683800,1.545683837890625,-0.021216724067926407,1.1250978708267212,0.9359384775161743
1783170124322753800,1.55575390625,0.03827323392033577,1.2416516542434692,0.9560266733169556
1783170124332822800,1.56582275390625,0.08074010163545609,1.3193581104278564,1.030112862586975
1783170124342892000,1.57589208984375,0.1488158106803894,1.3442165851593018,1.1316964626312256
1783170124352961800,1.5859619140625,0.21125446259975433,1.2218505144119263,1.2345565557479858
1783170124363030800,1.59603076171875,0.2717782258987427,1.0079361200332642,1.3942822217941284
1783170124373101000,1.60610107421875,0.30734553933143616,0.709926426410675,1.5354537963867188
1783170124383169800,1.616169677734375,0.3326282501220703,0.4920109212398529,1.5984452962875366
1783170124393238800,1.62623876953125,0.3077382445335388,0.3191678822040558,1.4530760049819946
1783170124403308800,1.636308837890625,0.22707988321781158,0.26593849062919617,1.1255580186843872
1783170124413377800,1.646377685546875,0.12049710005521774,0.45119237899780273,0.823354959487915
1783170124423446800,1.65644677734375,0.07415995746850967,0.6949387788772583,0.6629996299743652
1783170124433517000,1.66651708984375,0.1699294000864029,0.7783593535423279,0.7309636473655701
1783170124443585800,1.676585693359375,0.4369658827781677,0.5093984603881836,0.78826904296875
1783170124453654800,1.68665478515625,0.6705362796783447,-0.23853440582752228,0.7100516557693481
1783170124463724800,1.696724853515625,0.7559718489646912,-1.2257004976272583,0.61747807264328
1783170124473794000,1.7067939453125,0.6566446423530579,-2.207397699356079,0.4500238001346588
1783170124483863800,1.71686376953125,0.5099548101425171,-2.944643020629883,0.13771754503250122
1783170124493933000,1.72693310546875,0.372854620218277,-3.084292411804199,-0.32935845851898193
1783170124504001800,1.737001708984375,0.2674192786216736,-2.7814621925354004,-0.9851754307746887
1783170124514072000,1.747072021484375,0.147557333111763,-2.4008171558380127,-1.4198741912841797
1783170124524140800,1.757140869140625,0.020011359825730324,-2.0819358825683594,-1.247768759727478
1783170124534210000,1.7672099609375,0.11301455646753311,-1.5741195678710938,-0.7581866383552551
1783170124544279800,1.77727978515625,0.3930147886276245,-0.8560613989830017,-0.37028416991233826
1783170124554349000,1.78734912109375,0.6541740894317627,-0.1697569042444229,-0.22834652662277222
1783170124564418800,1.797418701171875,0.7268879413604736,0.34723642468452454,-0.2584972381591797
1783170124574487800,1.80748779296875,0.6022716760635376,0.3523290753364563,-0.5127339959144592
1783170124584556800,1.817556884765625,0.40773072838783264,-0.2072836458683014,-0.945661187171936
1783170124594626800,1.827626708984375,0.3041316568851471,-0.8484271764755249,-1.367605447769165
1783170124604695800,1.83769580078125,0.27836716175079346,-1.1685718297958374,-1.5366168022155762
1783170124614765000,1.84776513671875,0.22220875322818756,-1.142686367034912,-1.5863901376724243
1783170124624834800,1.857834716796875,0.027275491505861282,-0.8934285640716553,-1.441977858543396
1783170124634903800,1.86790380859375,-0.05640271678566933,-0.47783830761909485,-1.10154128074646
1783170124644972800,1.877972900390625,0.0005050372565165162,0.10317368805408478,-0.8088561296463013
1783170124655042800,1.888042724609375,-0.023256760090589523,0.5805619955062866,-0.6617267727851868
1783170124665111800,1.89811181640625,-0.15513171255588531,0.821876049041748,-0.602908730506897
1783170124675181800,1.908181884765625,-0.2294095754623413,0.8811564445495605,-0.6011476516723633
1783170124685251000,1.9182509765625,-0.3025655746459961,0.7853827476501465,-0.580782949924469
1783170124695319800,1.92831982421875,-0.26114097237586975,0.5840890407562256,-0.4863467514514923
1783170124705390000,1.93839013671875,-0.2102527618408203,0.34905093908309937,-0.28314462304115295
1783170124715458800,1.948458740234375,-0.16676953434944153,0.17686563730239868,-0.02092309109866619
1783170124725527800,1.95852783203125,-0.08281233161687851,0.13499966263771057,0.21245050430297852
1783170124735597800,1.968597900390625,-0.02573927864432335,0.228064626455307,0.4189850091934204
1783170124745667000,1.9786669921875,-0.06908115744590759,0.29161566495895386,0.5294148325920105
1783170124755736800,1.98873681640625,-0.1863287091255188,0.2663154602050781,0.43852975964546204
1783170124765806000,1.99880615234375,-0.33723726868629456,0.16211263835430145,0.269256591796875
1783170124775874800,2.008874755859375,-0.42441070079803467,-0.017389070242643356,0.15565046668052673
1783170124785944800,2.01894482421875,-0.39346373081207275,-0.19555269181728363,0.1589791625738144
1783170124796013800,2.029013916015625,-0.2773277461528778,-0.32793644070625305,0.24909043312072754
1783170124806083000,2.0390830078125,-0.18183477222919464,-0.40751728415489197,0.37767982482910156
1783170124816152800,2.04915283203125,-0.18246687948703766,-0.42691904306411743,0.48136094212532043
1783170124826221800,2.059221923828125,-0.2638791799545288,-0.40017637610435486,0.4757704436779022
1783170124836291800,2.069291748046875,-0.35741814970970154,-0.26678144931793213,0.35007980465888977
1783170124846360800,2.07936083984375,-0.4584504961967468,-0.0755462571978569,0.22875255346298218
1783170124856429800,2.089429931640625,-0.5861899256706238,0.010286478325724602,0.13709725439548492
1783170124866499800,2.099499755859375,-0.70257967710495,-0.022720741108059883,0.1112547442317009
1783170124876568800,2.10956884765625,-0.7450791597366333,-0.05905488505959511,0.18157629668712616
1783170124886637800,2.119637939453125,-0.6868161559104919,0.00043001770973205566,0.2972480356693268
1783170124896707800,2.129707763671875,-0.5736103653907776,0.11575832217931747,0.4095170795917511
1783170124906776800,2.13977685546875,-0.4620916247367859,0.20071741938591003,0.5025729537010193
1783170124916845800,2.149845703125,-0.4110075533390045,0.11535922437906265,0.5724891424179077
1783170124926915800,2.159915771484375,-0.428047239780426,-0.04914209991693497,0.5910587906837463
1783170124936984800,2.16998486328125,-0.46135514974594116,-0.17504234611988068,0.5261446237564087
1783170124947054800,2.180054931640625,-0.4884195327758789,-0.14205297827720642,0.48570188879966736
1783170124957124000,2.1901240234375,-0.47081872820854187,0.12748461961746216,0.5510319471359253
1783170124967192800,2.20019287109375,-0.3939228653907776,0.40823453664779663,0.6732667684555054
1783170124977262800,2.210262939453125,-0.30253857374191284,0.5158789753913879,0.7743415832519531
1783170124987331800,2.220331787109375,-0.20554226636886597,0.49898308515548706,0.8181761503219604
1783170124997400800,2.23040087890625,-0.14059485495090485,0.3543975055217743,0.8119086027145386
1783170125007470800,2.240470947265625,-0.12883274257183075,0.0771523267030716,0.76091468334198
1783170125017540000,2.2505400390625,-0.13177643716335297,-0.16722583770751953,0.7540392875671387
1783170125027609900,2.26060986328125,-0.06342293322086334,-0.521063506603241,0.9348998665809631
1783170125037678800,2.270678955078125,0.017953433096408844,-0.9127885699272156,1.136313557624817
1783170125047747800,2.280747802734375,0.045760829001665115,-1.3467432260513306,1.1349353790283203
1783170125057817900,2.29081787109375,0.07829618453979492,-1.477189540863037,0.9801731705665588
1783170125067886800,2.300886962890625,0.07703197747468948,-1.3219016790390015,0.5195040702819824
1783170125077955800,2.310955810546875,-0.030485298484563828,-1.2427539825439453,-0.10420121997594833
1783170125088025900,2.32102587890625,-0.22658850252628326,-1.4784951210021973,-0.7045506834983826
1783170125098094800,2.3310947265625,-0.4055595099925995,-1.7925951480865479,-1.150662899017334
1783170125108164900,2.341164794921875,-0.4267878234386444,-2.1011013984680176,-1.2170603275299072
1783170125118233900,2.35123388671875,-0.25819092988967896,-2.4017767906188965,-0.9420281052589417
1783170125128302800,2.361302734375,-0.008160295896232128,-2.525062084197998,-0.5392354130744934
1783170125138372900,2.371372802734375,0.18863384425640106,-2.20296049118042,-0.25208181142807007
1783170125148441600,2.381441650390625,0.32746684551239014,-1.3837302923202515,-0.13454638421535492
1783170125158510600,2.391510498046875,0.4237375259399414,-0.4044320583343506,-0.2024051994085312
1783170125168580900,2.401580810546875,0.518434464931488,0.34222933650016785,-0.3863268196582794
1783170125178649600,2.411649658203125,0.6832393407821655,0.5971831679344177,-0.6086923480033875
1783170125188719900,2.421719970703125,0.8171390891075134,0.5452147722244263,-0.7433090209960938
1783170125198788600,2.43178857421875,0.8959935307502747,0.460015207529068,-0.8713169097900391
1783170125208857900,2.44185791015625,0.9333076477050781,0.3442268371582031,-1.1020941734313965
1783170125218927600,2.451927734375,0.8891658782958984,0.23209413886070251,-1.434252142906189
1783170125228996900,2.461996826171875,0.790716826915741,0.02318938635289669,-1.7285418510437012
1783170125239065600,2.472065673828125,0.6658603549003601,-0.2762232720851898,-1.702673077583313
1783170125249135600,2.482135498046875,0.4849967658519745,-0.4194304943084717,-1.4860424995422363
1783170125259204600,2.49220458984375,0.22834599018096924,-0.4425543248653412,-1.2486977577209473
1783170125269273900,2.50227392578125,0.12816345691680908,-0.4126443564891815,-1.0980565547943115
1783170125279343600,2.512343505859375,0.1067032665014267,-0.2526914179325104,-1.0569440126419067
1783170125289412900,2.522412841796875,0.05833227187395096,-0.0815492495894432,-1.08329439163208
1783170125299482600,2.532482666015625,0.01137489266693592,0.18239063024520874,-1.1326767206192017
1783170125309551600,2.542551513671875,-0.07415173202753067,0.5151219964027405,-1.2017942667007446
1783170125319620600,2.55262060546875,-0.17251741886138916,0.8444890975952148,-1.263188362121582
1783170125329690600,2.562690673828125,-0.28844666481018066,1.110841155052185,-1.2786225080490112
1783170125339759600,2.572759521484375,-0.3472106158733368,1.2208635807037354,-1.1219422817230225
1783170125349828600,2.58282861328125,-0.3365422487258911,1.2095757722854614,-0.8305423259735107
1783170125359898600,2.592898681640625,-0.2176782190799713,1.164129614830017,-0.5172024369239807
1783170125369967600,2.602967529296875,-0.026023298501968384,1.0789800882339478,-0.20691412687301636
1783170125380038000,2.613037841796875,0.1609243005514145,1.0181702375411987,-0.014083934016525745
1783170125390106600,2.623106689453125,0.24513451755046844,0.9936904907226562,0.028377508744597435
1783170125400175600,2.633175537109375,0.20113646984100342,0.9417243003845215,-0.07335903495550156
1783170125410245600,2.64324560546875,0.052660975605249405,0.9005404114723206,-0.15903186798095703
1783170125420315000,2.65331494140625,-0.022690700367093086,0.8348603248596191,-0.133449986577034
1783170125430383600,2.663383544921875,0.07001633197069168,0.6816689372062683,-0.02445479854941368
1783170125440454000,2.673453857421875,0.20146964490413666,0.4983046352863312,0.13691392540931702
1783170125450522600,2.683522705078125,0.29862120747566223,0.28661370277404785,0.34400105476379395
1783170125460592600,2.693592529296875,0.2660214900970459,0.1625717729330063,0.5368982553482056
1783170125470661600,2.70366162109375,0.1636602282524109,0.08909942209720612,0.6515820026397705
1783170125480731000,2.71373095703125,0.06436295062303543,0.011310109868645668,0.7269026637077332
1783170125490800600,2.723800537109375,0.15501882135868073,-0.07802616059780121,0.7289535403251648
1783170125500869600,2.73386962890625,0.07394154369831085,0.1759973168373108,0.6915297508239746
1783170125510938600,2.743938720703125,-0.15820486843585968,0.3622657358646393,0.7265177965164185
1783170125521008600,2.754008544921875,-0.229990154504776,0.414659708738327,0.6904768347740173
1783170125531077600,2.76407763671875,-0.2291872203350067,0.5589593648910522,0.6329554915428162
1783170125541147600,2.774147705078125,-0.21111425757408142,0.4995519518852234,0.6346120834350586
1783170125551216600,2.784216552734375,-0.15375109016895294,0.3739253282546997,0.7577526569366455
1783170125561285600,2.79428564453125,-0.07868260890245438,0.2067316472530365,0.936384916305542
1783170125571355600,2.804355712890625,-0.05583934485912323,0.08803509175777435,1.180470585823059
1783170125581424600,2.814424560546875,-0.08071582019329071,-0.020254597067832947,1.4058917760849
1783170125591493600,2.82449365234375,-0.0794830471277237,-0.10541742295026779,1.616129994392395
1783170125601563600,2.834563720703125,-0.029163802042603493,-0.17197343707084656,1.780591368675232
1783170125611632600,2.844632568359375,-0.026118744164705276,-0.10027553886175156,1.7686578035354614
1783170125621702700,2.85470263671875,-0.04695549234747887,0.03239383548498154,1.542142629623413
1783170125631771600,2.864771728515625,-0.08966246992349625,0.27566349506378174,1.2304015159606934
1783170125641840600,2.874840576171875,-0.13735322654247284,0.5809454917907715,0.9437080025672913
1783170125651910700,2.88491064453125,-0.14052477478981018,0.8322799801826477,0.7931320667266846
1783170125661979600,2.894979736328125,-0.10450553148984909,0.8683636784553528,0.9027842879295349
1783170125672048600,2.905048583984375,-0.1335800588130951,0.5959446430206299,1.1452510356903076
1783170125682118700,2.91511865234375,-0.12737205624580383,0.08436273038387299,1.3197048902511597
1783170125692188000,2.92518798828125,-0.08349434286355972,-0.3693419098854065,1.3510217666625977
1783170125702257700,2.935257568359375,-0.13031303882598877,-0.6578103303909302,1.156402587890625
1783170125712326700,2.94532666015625,-0.22655089199543,-0.8207207322120667,0.8043376803398132
1783170125722395600,2.955395751953125,-0.25445637106895447,-1.0017147064208984,0.15637674927711487
1783170125732465700,2.965465576171875,-0.1528482735157013,-1.4927546977996826,-0.6304664611816406
1783170125742534700,2.97553466796875,-0.11174000799655914,-2.195354461669922,-1.2523082494735718
1783170125752603600,2.985603759765625,-0.1668224334716797,-2.805950880050659,-1.5533769130706787
1783170125762673700,2.995673583984375,-0.1696828007698059,-2.7563042640686035,-1.3807207345962524
1783170125772742700,3.00574267578125,0.029651891440153122,-1.8881196975708008,-1.057576298713684
1783170125782812700,3.015812744140625,0.29087185859680176,-0.8211201429367065,-0.6536648869514465
1783170125792881700,3.025881591796875,0.5339268445968628,-0.010115697979927063,-0.12560926377773285
1783170125802950700,3.03595068359375,0.8124450445175171,0.45406395196914673,0.35819149017333984
1783170125813020700,3.046020751953125,0.9661440253257751,0.4933088421821594,0.6427478194236755
1783170125823089700,3.056089599609375,0.9834417104721069,0.2704087495803833,0.6294965147972107
1783170125833158700,3.06615869140625,0.938680112361908,-0.1426219642162323,0.2823047637939453
1783170125843228700,3.076228759765625,0.8313231468200684,-0.4899556338787079,-0.1919773817062378
1783170125853297700,3.086297607421875,0.703667163848877,-0.5494783520698547,-0.566663384437561
1783170125863367700,3.09636767578125,0.6262604594230652,-0.30988019704818726,-0.7536596655845642
1783170125873436700,3.106436767578125,0.634554922580719,0.09877868741750717,-0.8279421925544739
1783170125883505700,3.116505615234375,0.5840920209884644,0.45553189516067505,-0.8361144065856934
1783170125893575700,3.12657568359375,0.45039063692092896,0.626095175743103,-0.8748287558555603
1783170125903644700,3.136644775390625,0.2682619094848633,0.7897894978523254,-0.8916798233985901
1783170125913713700,3.146713623046875,0.08713765442371368,1.012254238128662,-0.9480722546577454
1783170125923783700,3.15678369140625,-0.0666230320930481,1.2144075632095337,-0.9942041039466858
1783170125933852700,3.166852783203125,-0.22054733335971832,1.2198947668075562,-1.015282154083252
1783170125943922700,3.176922607421875,-0.31674525141716003,1.037530541419983,-0.9581707119941711
1783170125953991700,3.18699169921875,-0.30133911967277527,0.6888718008995056,-0.8144646883010864
1783170125964060700,3.197060791015625,-0.1130947470664978,0.36496859788894653,-0.5551649928092957
1783170125974130700,3.207130615234375,0.07246020436286926,0.14907436072826385,-0.23626074194908142
1783170125984199700,3.21719970703125,0.18012802302837372,0.10996652394533157,0.012991925701498985
1783170125994268700,3.2272685546875,0.21889299154281616,0.21040764451026917,0.16289407014846802
1783170126004338700,3.237338623046875,0.16750949621200562,0.3289438486099243,0.20409473776817322
1783170126014407700,3.24740771484375,0.009908962994813919,0.44539377093315125,0.12751340866088867
1783170126024477700,3.257477783203125,-0.18028806149959564,0.5833103060722351,-0.06710094958543777
1783170126034546700,3.267546630859375,-0.3228095471858978,0.7642385363578796,-0.26788464188575745
1783170126044615700,3.27761572265625,-0.3923163414001465,0.8478228449821472,-0.3069753646850586
1783170126054685700,3.287685791015625,-0.37111732363700867,0.8001341223716736,-0.1658715009689331
1783170126064754700,3.297754638671875,-0.25143367052078247,0.6301098465919495,0.051474303007125854
1783170126074823700,3.30782373046875,-0.09714611619710922,0.3626573383808136,0.27972477674484253
1783170126084893700,3.317893798828125,0.026734743267297745,0.1307147890329361,0.47197163105010986
1783170126094962700,3.327962646484375,0.09735618531703949,-0.03397589549422264,0.5819162726402283
1783170126105032700,3.33803271484375,0.08966639637947083,-0.12750503420829773,0.6418861150741577
1783170126115101700,3.348101806640625,0.014028895646333694,-0.14080512523651123,0.6257055401802063
1783170126125170700,3.358170654296875,-0.10716436803340912,-0.03792375326156616,0.5055586695671082
1783170126135240400,3.368240478515625,-0.2570582628250122,0.10978447645902634,0.34066343307495117
1783170126145309700,3.378309814453125,-0.3812037408351898,0.2336859405040741,0.24667705595493317
1783170126155380000,3.3883798828125,-0.4154171049594879,0.29913339018821716,0.297782301902771
1783170126165449000,3.398448974609375,-0.370322585105896,0.25439783930778503,0.44866472482681274
1783170126175518000,3.40851806640625,-0.2816166877746582,0.13103942573070526,0.6317999362945557
1783170126185588200,3.418588134765625,-0.2075122743844986,-0.005096831358969212,0.774331271648407
1783170126195657000,3.428656982421875,-0.19527345895767212,-0.09580596536397934,0.8576791286468506
1783170126205726000,3.438725830078125,-0.24252638220787048,-0.06125519424676895,0.8249251842498779
1783170126215796000,3.4487958984375,-0.27496951818466187,0.07966411113739014,0.6660265922546387
1783170126225865000,3.458864990234375,-0.2744307816028595,0.17497441172599792,0.38656195998191833
1783170126235935000,3.46893505859375,-0.28390178084373474,0.19661259651184082,0.22177860140800476
1783170126246004200,3.479004150390625,-0.3386661112308502,0.15499083697795868,0.31552237272262573
1783170126256073000,3.489072998046875,-0.3452896773815155,0.09241747111082077,0.6052106618881226
1783170126266143000,3.49914306640625,-0.20231744647026062,0.020602814853191376,1.0060337781906128
1783170126276212000,3.5092119140625,-0.016077538952231407,-0.27086445689201355,1.2062838077545166
1783170126286281200,3.51928125,0.10263165086507797,-0.7953121066093445,1.1443368196487427
1783170126296351000,3.52935107421875,0.1612004190683365,-1.2807862758636475,0.9300622940063477
1783170126306420000,3.539419921875,0.16662488877773285,-1.6986249685287476,0.5919831991195679
1783170126316490000,3.549489990234375,0.09892600029706955,-1.919088363647461,0.21586497128009796
1783170126326559000,3.55955908203125,0.03249151259660721,-1.8013588190078735,-0.11690481007099152
1783170126336628000,3.5696279296875,0.04106982424855232,-1.467032551765442,-0.411240816116333
1783170126346698000,3.579697998046875,0.01207731943577528,-1.0571401119232178,-0.6071959137916565
1783170126356767000,3.58976708984375,-0.038103558123111725,-0.7199040055274963,-0.7582131624221802
1783170126366836000,3.5998359375,-0.03030875325202942,-0.4384496808052063,-0.8776497840881348
1783170126376906000,3.609906005859375,0.1065705344080925,-0.25293388962745667,-0.8602284789085388
1783170126386975000,3.61997509765625,0.29849013686180115,-0.23398205637931824,-0.6098113059997559
1783170126397045000,3.630044921875,0.4336620569229126,-0.30790045857429504,-0.20129147171974182
1783170126407114000,3.640114013671875,0.39432263374328613,-0.43819764256477356,0.24143515527248383
1783170126417183000,3.650182861328125,0.3262045383453369,-0.5524706840515137,0.5933018326759338
1783170126427253000,3.6602529296875,0.33211594820022583,-0.5908766984939575,0.7437127828598022
1783170126437322000,3.670322021484375,0.38299429416656494,-0.2819518446922302,0.6773926019668579
1783170126447391000,3.680390869140625,0.4310350716114044,0.30442163348197937,0.4686998724937439
1783170126457461000,3.6904609375,0.5017254948616028,0.8219121694564819,0.15935346484184265
1783170126467530000,3.700530029296875,0.6293231248855591,0.9360440373420715,-0.21266980469226837
1783170126477600000,3.71060009765625,0.6946688294410706,0.7047756910324097,-0.509461522102356
1783170126487669000,3.7206689453125,0.6246441006660461,0.42998313903808594,-0.6502318382263184
1783170126497738000,3.730738037109375,0.5702751278877258,0.41183340549468994,-0.8336077928543091
1783170126507808000,3.74080810546875,0.5426164269447327,0.4991748631000519,-1.1096632480621338
1783170126517877000,3.750876953125,0.48153552412986755,0.5392063856124878,-1.349054217338562
1783170126527946000,3.760946044921875,0.3475799858570099,0.6099533438682556,-1.416617751121521
1783170126538016000,3.77101611328125,0.24494308233261108,0.7341176271438599,-1.2190463542938232
1783170126548085000,3.7810849609375,0.21781772375106812,0.8098079562187195,-0.8537073731422424
1783170126558155000,3.791155029296875,0.24247513711452484,0.7733378410339355,-0.48149412870407104
1783170126568224000,3.80122412109375,0.29516127705574036,0.6266078948974609,-0.244941845536232
1783170126578293000,3.81129296875,0.26472190022468567,0.41580647230148315,-0.12885572016239166
1783170126588363000,3.821363037109375,0.1896393597126007,0.2201654464006424,-0.03691800311207771
1783170126598432000,3.831431884765625,0.15621481835842133,0.1222255751490593,0.0013476291205734015
1783170126608502000,3.841501953125,0.1739041954278946,0.03783869370818138,0.003808919806033373
1783170126618571000,3.851571044921875,0.20502722263336182,-0.01770925335586071,-0.00013681966811418533
1783170126628640000,3.861639892578125,0.22261658310890198,0.0415768101811409,0.025988277047872543
1783170126638710000,3.8717099609375,0.18120361864566803,0.3018861413002014,0.10646767169237137
1783170126648779000,3.881779052734375,0.07179485261440277,0.6055693626403809,0.16153521835803986
1783170126658848000,3.891847900390625,-0.0510232150554657,0.7778737545013428,0.1177576556801796
1783170126668918000,3.90191796875,-0.15913473069667816,0.7775967717170715,-0.005607325118035078
1783170126678987000,3.911987060546875,-0.2818926274776459,0.6817602515220642,-0.07281538844108582
1783170126689057000,3.92205712890625,-0.3784429430961609,0.5631863474845886,-0.08116767555475235
1783170126699126000,3.9321259765625,-0.38912007212638855,0.48316606879234314,-0.04510261490941048
1783170126709195000,3.942195068359375,-0.3621380627155304,0.38746923208236694,-0.0020801257342100143
1783170126719265000,3.95226513671875,-0.332916796207428,0.26853325963020325,0.0821378156542778
1783170126729334000,3.962333984375,-0.3132934868335724,0.2336069643497467,0.23174528777599335
1783170126739403000,3.972403076171875,-0.29736244678497314,0.2348778247833252,0.38421231508255005
1783170126749473000,3.98247314453125,-0.3175638020038605,0.23968444764614105,0.46928921341896057
1783170126759542000,3.9925419921875,-0.36586663126945496,0.26608675718307495,0.5060216188430786
1783170126769612000,4.002612060546875,-0.44559913873672485,0.26569393277168274,0.4802338778972626
1783170126779681000,4.012680908203125,-0.4931458830833435,0.23930947482585907,0.43960416316986084
1783170126789750000,4.02275,-0.48556262254714966,0.21633927524089813,0.4139263927936554
1783170126799820000,4.032820068359375,-0.4617534279823303,0.17832505702972412,0.5122910141944885
1783170126809889000,4.042888916015625,-0.3796740770339966,0.28793367743492126,0.6986501812934875
1783170126819959000,4.052958984375,-0.21976029872894287,0.3394069969654083,0.8596630692481995
1783170126830028000,4.063028076171875,-0.08492905646562576,0.2659919559955597,0.9929590821266174
1783170126840097000,4.073096923828125,-0.054959166795015335,0.08830984681844711,1.0783802270889282
1783170126850167000,4.0831669921875,-0.09779581427574158,-0.11697994917631149,1.0405858755111694
1783170126860236000,4.093236083984375,-0.17729544639587402,-0.19498072564601898,0.8441958427429199
1783170126870305000,4.103304931640625,-0.3764340579509735,-0.08949717879295349,0.48795345425605774
1783170126880374800,4.113374755859375,-0.6216118335723877,0.23303452134132385,0.1671125888824463
1783170126890444000,4.123444091796875,-0.6754834055900574,0.5263606905937195,0.05414664372801781
1783170126900513800,4.133513671875,-0.4092421531677246,0.6019782423973083,0.2684570848941803
1783170126910583000,4.1435830078125,-0.12009016424417496,0.31712159514427185,0.6184308528900146
1783170126920652000,4.153652099609375,-0.051485802978277206,-0.2275393158197403,0.7053170204162598
1783170126930722000,4.16372216796875,-0.2284582555294037,-0.8892050981521606,0.3582223355770111
1783170126940790800,4.173790771484375,-0.6130925416946411,-1.5840660333633423,-0.33316248655319214
1783170126950860000,4.183860107421875,-1.031706690788269,-2.313760280609131,-1.2780933380126953
1783170126960930000,4.193929931640625,-1.3330098390579224,-2.7341041564941406,-2.125581979751587
1783170126970999000,4.2039990234375,-1.4583306312561035,-2.5603702068328857,-2.535055160522461
1783170126981069000,4.214069091796875,-1.2303980588912964,-1.7340484857559204,-2.3847005367279053
1783170126991138000,4.224137939453125,-0.7302615642547607,-0.6772690415382385,-1.8269580602645874
1783170127001207000,4.23420703125,-0.2657087743282318,-0.050340719521045685,-1.1486488580703735
1783170127011277000,4.244277099609375,0.09385977685451508,-0.017473049461841583,-0.5656090378761292
1783170127021346000,4.254345947265625,0.4242728650569916,-0.3528422713279724,-0.04714084044098854
1783170127031415000,4.2644150390625,0.6647466421127319,-0.8987030982971191,0.28413835167884827
1783170127041485000,4.274485107421875,0.798782229423523,-1.3577555418014526,0.455000638961792
1783170127051554000,4.284553955078125,0.9205245971679688,-1.4132235050201416,0.4697664678096771
1783170127061624000,4.2946240234375,0.9951245188713074,-0.966514527797699,0.40702399611473083
1783170127071693000,4.304693115234375,0.881331205368042,-0.3035553991794586,0.23167388141155243
1783170127081762000,4.314761962890625,0.5765313506126404,0.30482321977615356,-0.0655713900923729
1783170127091831800,4.324831787109375,0.23009340465068817,0.6624249219894409,-0.4211718738079071
1783170127101901000,4.334901123046875,-0.03592735156416893,0.8086084723472595,-0.7063596844673157
1783170127111970800,4.344970703125,-0.14843495190143585,0.8690739870071411,-0.8599448800086975
1783170127122040000,4.3550400390625,-0.14947251975536346,0.9514050483703613,-0.8577714562416077
1783170127132108800,4.36510888671875,-0.08390484750270844,1.120473027229309,-0.7998506426811218
1783170127142179000,4.375178955078125,0.004443391226232052,1.3938161134719849,-0.7197592854499817
1783170127152247800,4.385247802734375,0.10054093599319458,1.6672167778015137,-0.49642303586006165
1783170127162316800,4.39531689453125,0.12787483632564545,1.8202697038650513,-0.14702001214027405
1783170127172386800,4.40538671875,0.09994613379240036,1.7941290140151978,0.141795814037323
1783170127182455800,4.415455810546875,0.07021939754486084,1.6445560455322266,0.3827671408653259
1783170127192525800,4.42552587890625,0.044609569013118744,1.407357931137085,0.6190681457519531
1783170127202594800,4.4355947265625,0.07569185644388199,1.0886104106903076,0.7980448603630066
1783170127212663800,4.445663818359375,0.1830517053604126,0.761817991733551,0.9362127184867859
1783170127222733800,4.45573388671875,0.29655832052230835,0.4879666864871979,0.9998593926429749
1783170127232802800,4.465802734375,0.30193737149238586,0.3787672221660614,1.0139743089675903
1783170127242872800,4.475872802734375,0.21166151762008667,0.40863510966300964,1.0041486024856567
1783170127252941800,4.48594189453125,0.09911555796861649,0.3923780024051666,0.9710124731063843
1783170127263010800,4.4960107421875,-0.04305675998330116,0.25974008440971375,0.9562638998031616
1783170127273080800,4.506080810546875,-0.19732333719730377,0.08359631150960922,0.9993965029716492
1783170127283149800,4.51614990234375,-0.3391331732273102,-0.0018355008214712143,0.9805293679237366
1783170127293218800,4.52621875,-0.47467315196990967,0.055735647678375244,0.823678195476532
1783170127303288600,4.53628857421875,-0.593886137008667,0.2015860676765442,0.6185293197631836
1783170127313357800,4.54635791015625,-0.6704245805740356,0.361752450466156,0.41096702218055725
1783170127323427600,4.556427490234375,-0.738688588142395,0.406585693359375,0.23193174600601196
1783170127333496800,4.566496826171875,-0.8041041493415833,0.2790897786617279,0.2233932465314865
1783170127343565800,4.57656591796875,-0.8211427330970764,0.11229199916124344,0.351295530796051
1783170127353635800,4.5866357421875,-0.7765839695930481,0.00037317629903554916,0.4755707085132599
1783170127363704600,4.59670458984375,-0.7552559971809387,-0.10879219323396683,0.5677502155303955
1783170127373773800,4.60677392578125,-0.7636834383010864,-0.1504065990447998,0.5980232357978821
1783170127383843800,4.61684375,-0.8089179992675781,-0.1243600845336914,0.4992135763168335
1783170127393912800,4.626912841796875,-0.8993149995803833,-0.005039679817855358,0.3855287730693817
1783170127403982800,4.63698291015625,-0.9767104387283325,0.12670370936393738,0.26364681124687195
1783170127414051800,4.6470517578125,-0.9891957640647888,0.10946641117334366,0.2447315752506256
1783170127424120800,4.657120849609375,-0.8958378434181213,-0.14786019921302795,0.4217558801174164
1783170127434190800,4.66719091796875,-0.6660271883010864,-0.5208520293235779,0.7579322457313538
1783170127444259800,4.677259765625,-0.44550490379333496,-0.9671456217765808,1.0559576749801636
1783170127454329900,4.687329833984375,-0.2773493230342865,-1.3615705966949463,1.1196650266647339
1783170127464398800,4.69739892578125,-0.1664944291114807,-1.5828138589859009,0.9142002463340759
1783170127474467800,4.7074677734375,-0.16463516652584076,-1.6969664096832275,0.5933204889297485
1783170127484537900,4.717537841796875,-0.31776055693626404,-1.6476351022720337,0.3963701128959656
1783170127494606800,4.72760693359375,-0.5205095410346985,-1.327955961227417,0.2619854211807251
1783170127504675800,4.73767578125,-0.6191825866699219,-0.6844755411148071,0.05515102669596672
1783170127514745600,4.74774560546875,-0.5970871448516846,0.006124562583863735,-0.10404399037361145
1783170127524814800,4.75781494140625,-0.5294092893600464,0.1262379139661789,-0.34350213408470154
1783170127534884600,4.767884521484375,-0.4831884801387787,-0.45772844552993774,-0.6234706044197083
1783170127544953900,4.777953857421875,-0.490297794342041,-1.1557458639144897,-0.8416966795921326
1783170127555022600,4.788022705078125,-0.5076011419296265,-1.8045648336410522,-1.2050527334213257
1783170127565092900,4.7980927734375,-0.5275538563728333,-2.0841822624206543,-1.4043644666671753
1783170127575161600,4.80816162109375,-0.5184704661369324,-1.9580200910568237,-1.386664628982544
1783170127585232000,4.81823193359375,-0.4085378646850586,-1.4026466608047485,-1.1664135456085205
1783170127595300900,4.82830078125,-0.1969786137342453,-0.6334555149078369,-0.8744041919708252
1783170127605369900,4.838369873046875,0.007894361391663551,-0.13972410559654236,-0.7360705137252808
1783170127615440000,4.84843994140625,0.1326846331357956,0.1067085787653923,-0.7295634150505066
1783170127625508900,4.8585087890625,0.20095689594745636,0.19229990243911743,-0.7462393641471863
1783170127635577600,4.86857763671875,0.2223769873380661,0.1484803706407547,-0.6930952668190002
1783170127645648000,4.87864794921875,0.21586290001869202,-0.15810300409793854,-0.6207571625709534
1783170127655716900,4.888716796875,0.2950451672077179,-0.6666955947875977,-0.2975102365016937
1783170127665786600,4.89878662109375,0.5305634140968323,-1.1921225786209106,0.15373283624649048
1783170127675856000,4.90885595703125,0.7651541233062744,-1.4810348749160767,0.5701315402984619
1783170127685924900,4.9189248046875,0.8162083029747009,-1.3245960474014282,0.7536901831626892
1783170127695995000,4.928994873046875,0.6303600072860718,-0.7699485421180725,0.5355265140533447
1783170127706064000,4.93906396484375,0.30245187878608704,-0.06735073029994965,0.07161157578229904
1783170127716134000,4.9491337890625,0.032266370952129364,0.4844377338886261,-0.4288010895252228
1783170127726202600,4.95920263671875,-0.12807244062423706,0.8100142478942871,-0.7682247161865234
1783170127736272000,4.96927197265625,-0.18064463138580322,0.9824961423873901,-0.8929933309555054
1783170127746341600,4.979341552734375,-0.1596815586090088,1.04879629611969,-0.8375500440597534
1783170127756411000,4.989410888671875,-0.11575254797935486,1.0418771505355835,-0.659448504447937
1783170127766479600,4.999479736328125,-0.03601164370775223,0.9957855939865112,-0.4301346242427826
1783170127776550000,5.0095498046875,0.026685580611228943,0.8692528009414673,-0.24686045944690704
1783170127786618600,5.01961865234375,0.008667963556945324,0.7296802401542664,-0.14187732338905334
1783170127796689000,5.02968896484375,-0.061415426433086395,0.7375221848487854,-0.14708831906318665
1783170127806757600,5.039757568359375,-0.12390197068452835,0.899388313293457,-0.2525942623615265
1783170127816827000,5.049826904296875,-0.1430298537015915,1.0630286931991577,-0.3558553457260132
1783170127826897000,5.05989697265625,-0.1350792497396469,1.1092184782028198,-0.4205038547515869
1783170127836966000,5.0699658203125,-0.09646090120077133,0.9966837763786316,-0.35605233907699585
1783170127847036000,5.080035888671875,-0.011097798123955727,0.8728302717208862,-0.1553884744644165
1783170127857105000,5.09010498046875,0.08736693859100342,0.778225839138031,0.07438132911920547
1783170127867174000,5.100173828125,0.16297514736652374,0.663226842880249,0.2501544952392578
1783170127877243600,5.11024365234375,0.1693207323551178,0.5793009996414185,0.3404656946659088
1783170127887313000,5.12031298828125,0.12692373991012573,0.5506760478019714,0.327824205160141
1783170127897382000,5.1303818359375,0.05825318396091461,0.5771253108978271,0.20928657054901123
1783170127907452000,5.140451904296875,0.007974036037921906,0.6179805994033813,0.0697861984372139
1783170127917520600,5.150520751953125,-0.01922961138188839,0.6471443772315979,-0.023759957402944565
1783170127927591000,5.1605908203125,-0.029114998877048492,0.6574643850326538,-0.02307925373315811
1783170127937659600,5.17065966796875,-0.02609521523118019,0.582892894744873,0.04574860259890556
1783170127947729000,5.18072900390625,-0.025219034403562546,0.45420074462890625,0.1585204303264618
1783170127957798700,5.190798583984375,-0.053322773426771164,0.2848470211029053,0.26547783613204956
1783170127967868000,5.200867919921875,-0.10476545989513397,0.11768170446157455,0.36597940325737
1783170127977937700,5.210937744140625,-0.13237960636615753,-0.01855907216668129,0.41691139340400696
1783170127988007000,5.2210068359375,-0.13963697850704193,-0.19911153614521027,0.3824327886104584
1783170127998075600,5.23107568359375,-0.1713271290063858,-0.3534133732318878,0.2564903497695923
1783170128008146000,5.24114599609375,-0.20331569015979767,-0.32601264119148254,0.14182129502296448
1783170128018214700,5.251214599609375,-0.2067837119102478,-0.13350296020507812,0.0933072566986084
1783170128028284700,5.26128466796875,-0.21581263840198517,0.0867985188961029,0.07535222172737122
1783170128038353700,5.271353759765625,-0.21569976210594177,0.1075970008969307,0.08738663792610168
1783170128048423000,5.2814228515625,-0.1732468456029892,-0.0860491618514061,0.12513907253742218
1783170128058493000,5.291492919921875,-0.12542761862277985,-0.4225705862045288,0.14460964500904083
1783170128068562000,5.30156201171875,-0.1358294039964676,-0.7625734210014343,0.16979116201400757
1783170128078630700,5.311630615234375,-0.16058215498924255,-1.0968877077102661,0.21933874487876892
1783170128088700700,5.32170068359375,-0.0650939792394638,-1.4306681156158447,0.3342539072036743
1783170128098770000,5.33177001953125,0.20671723783016205,-1.6028780937194824,0.4735826551914215
1783170128108839700,5.341839599609375,0.5201358199119568,-1.55935800075531,0.639606773853302
1783170128118909000,5.351908935546875,0.7009928822517395,-1.5390478372573853,0.688323438167572
1783170128128977700,5.361977783203125,0.6323336362838745,-1.7786163091659546,0.34692665934562683
1783170128139048000,5.3720478515625,0.3723641335964203,-2.403895854949951,-0.4437345266342163
1783170128149117000,5.382116943359375,-0.0007572430185973644,-3.209757089614868,-1.4804953336715698
1783170128159186000,5.39218603515625,-0.45074817538261414,-3.8042850494384766,-2.3658437728881836
1783170128169256000,5.402255859375,-0.7469359040260315,-3.3644988536834717,-2.610644578933716
1783170128179325000,5.412324951171875,-0.6082735061645508,-1.8303364515304565,-2.289064407348633
1783170128189395000,5.42239501953125,-0.2895764708518982,-0.2591957747936249,-1.6277644634246826
1783170128199464000,5.4324638671875,-0.18678967654705048,0.6356754302978516,-0.8950442671775818
1783170128209533000,5.442532958984375,-0.18446020781993866,0.9020597338676453,-0.26753807067871094
1783170128219603000,5.45260302734375,-0.18231317400932312,0.63981693983078,0.26061126589775085
1783170128229672000,5.462671875,-0.14907585084438324,0.0712839886546135,0.6684618592262268
1783170128239741700,5.47274169921875,-0.0663866400718689,-0.43605950474739075,0.8560655117034912
1783170128249811000,5.48281103515625,-0.021685749292373657,-0.5363389849662781,0.7804040312767029
1783170128259880000,5.4928798828125,-0.04452982544898987,-0.08047889173030853,0.4943651854991913
1783170128269950000,5.502949951171875,-0.11924028396606445,0.6760314106941223,0.08942969143390656
1783170128280018700,5.513018798828125,-0.2820667028427124,1.3606656789779663,-0.2767561376094818
1783170128290089000,5.5230888671875,-0.3971400260925293,1.7372957468032837,-0.49447035789489746
1783170128300158000,5.533157958984375,-0.37960854172706604,1.753169059753418,-0.4791715741157532
1783170128310227000,5.54322705078125,-0.28972312808036804,1.491220235824585,-0.2939114570617676
1783170128320297000,5.553296875,-0.18557459115982056,1.0219969749450684,-0.011570898815989494
1783170128330366000,5.563365966796875,-0.04380360618233681,0.5528163909912109,0.26658162474632263
1783170128340435000,5.57343505859375,0.08595772087574005,0.12671169638633728,0.38988131284713745
1783170128350505000,5.5835048828125,0.1745152771472931,-0.17397810518741608,0.40410685539245605
1783170128360574000,5.593573974609375,0.19213524460792542,-0.15450477600097656,0.2070900797843933
1783170128370644000,5.60364404296875,0.09165924042463303,0.2744061052799225,-0.0693012923002243
1783170128380713000,5.613712890625,-0.10761452466249466,0.7961466312408447,-0.21894438564777374
1783170128390782000,5.623781982421875,-0.24268898367881775,1.00375235080719,-0.2004482001066208
1783170128400852000,5.63385205078125,-0.2199440896511078,0.864227831363678,-0.03286231309175491
1783170128410921000,5.6439208984375,-0.10825085639953613,0.4622122347354889,0.2431357055902481
1783170128420991000,5.653990966796875,0.030140776187181473,0.041863810271024704,0.5611037611961365
1783170128431059700,5.664059814453125,0.14423832297325134,-0.250190407037735,0.7686076760292053
1783170128441129000,5.67412890625,0.22220075130462646,-0.3882457911968231,0.821462094783783
1783170128451198700,5.68419873046875,0.21459530293941498,-0.3866066038608551,0.7434192299842834
1783170128461268000,5.69426806640625,0.13956855237483978,-0.20431053638458252,0.5091108679771423
1783170128471338000,5.704337890625,0.0157930850982666,0.0856858640909195,0.2685571014881134
1783170128481407000,5.714406982421875,-0.08961597084999084,0.3318009376525879,0.1639602929353714
1783170128491475700,5.724475830078125,-0.14059953391551971,0.3825030028820038,0.16401727497577667
1783170128501546000,5.7345458984375,-0.11423727124929428,0.2951056659221649,0.2626587152481079
1783170128511615000,5.744614990234375,-0.03279726952314377,0.11093394458293915,0.4015098214149475
1783170128521684000,5.75468408203125,0.030268210917711258,-0.1330568492412567,0.5163385272026062
1783170128531754000,5.76475390625,-0.003321707248687744,-0.27919089794158936,0.5952062010765076
1783170128541823000,5.774822998046875,-0.10310560464859009,-0.28623121976852417,0.5986644625663757
1783170128551893000,5.78489306640625,-0.21276633441448212,-0.16535860300064087,0.5393942594528198
1783170128561962000,5.7949619140625,-0.31713172793388367,0.05754487216472626,0.41908061504364014
1783170128572031000,5.805031005859375,-0.39711233973503113,0.3475836217403412,0.33020374178886414
1783170128582101000,5.81510107421875,-0.42494845390319824,0.5528339743614197,0.34009236097335815
1783170128592170000,5.825169921875,-0.389064222574234,0.6375145316123962,0.47407066822052
1783170128602239700,5.83523974609375,-0.3314574956893921,0.5884617567062378,0.6071826219558716
1783170128612309000,5.84530908203125,-0.3007999658584595,0.4060418903827667,0.6625891327857971
1783170128622378000,5.8553779296875,-0.29240942001342773,0.16676831245422363,0.6216641068458557
1783170128632448000,5.865447998046875,-0.33157598972320557,-0.125423863530159,0.49530670046806335
1783170128642516700,5.875516845703125,-0.3966798186302185,-0.29790177941322327,0.43795713782310486
1783170128652587000,5.8855869140625,-0.39404356479644775,-0.29659923911094666,0.4868122935295105
1783170128662655700,5.89565576171875,-0.26642563939094543,-0.12126468867063522,0.6501801013946533
1783170128672725000,5.90572509765625,-0.029091399163007736,0.031134970486164093,0.8663283586502075
1783170128682794800,5.915794677734375,0.18352219462394714,-0.15395082533359528,1.0138533115386963
1783170128692864000,5.925864013671875,0.262021005153656,-0.7367724180221558,0.9760212898254395
1783170128702932700,5.9359326171875,0.13544562458992004,-1.4665354490280151,0.78387451171875
1783170128713003000,5.9460029296875,-0.10919341444969177,-2.0707318782806396,0.5592679977416992
1783170128723071700,5.95607177734375,-0.37789615988731384,-2.252743721008301,0.2106916904449463
1783170128733142000,5.96614208984375,-0.59461909532547,-1.9696753025054932,-0.14826352894306183
1783170128743211000,5.9762109375,-0.6564590334892273,-1.2823818922042847,-0.3487216532230377
1783170128753280000,5.986280029296875,-0.5373052358627319,-0.47436463832855225,-0.40208128094673157
1783170128763350000,5.99635009765625,-0.3549427092075348,0.027565322816371918,-0.27038490772247314
1783170128773419000,6.0064189453125,-0.2007688581943512,-0.06959398090839386,-0.0522746667265892
1783170128783489000,6.016489013671875,-0.0216025672852993,-0.5575262904167175,0.07419685274362564
1783170128793557800,6.026557861328125,0.18409599363803864,-1.137507677078247,0.08377783745527267
1783170128803627000,6.036626953125,0.35770779848098755,-1.3780792951583862,0.003171751508489251
1783170128813696800,6.04669677734375,0.4521203339099884,-1.1821380853652954,-0.22200250625610352
1783170128823766000,6.05676611328125,0.45914578437805176,-0.6777053475379944,-0.5978288650512695
1783170128833835800,6.066835693359375,0.3744191825389862,-0.0054399119690060616,-1.0128167867660522
1783170128843905000,6.076905029296875,0.21216048300266266,0.5474176406860352,-1.2899363040924072
1783170128853973800,6.086973876953125,-0.028546400368213654,0.8514654040336609,-1.2374709844589233
1783170128864044000,6.0970439453125,-0.1826755553483963,0.925951361656189,-0.8030982613563538
1783170128874112800,6.10711279296875,-0.1700012981891632,0.7918543219566345,-0.17631801962852478
1783170128884183000,6.11718310546875,0.02983151376247406,0.48785844445228577,0.42736107110977173
1783170128894251800,6.127251708984375,0.32547301054000854,0.055057771503925323,0.780234694480896
1783170128904321000,6.137321044921875,0.5206442475318909,-0.5017032623291016,0.771336019039154
1783170128914390800,6.147390869140625,0.5063121914863586,-0.8655629754066467,0.4099258482456207
1783170128924460000,6.1574599609375,0.2995983362197876,-0.6630548238754272,-0.10936854779720306
1783170128934528800,6.16752880859375,0.010443213395774364,-0.07412497699260712,-0.6107472777366638
1783170128944599000,6.17759912109375,-0.18351630866527557,0.65494704246521,-0.942502498626709
1783170128954667800,6.187667724609375,-0.22900709509849548,1.2749011516571045,-1.0371789932250977
1783170128964737800,6.19773779296875,-0.19849279522895813,1.6333065032958984,-0.9267765283584595
1783170128974807000,6.20780712890625,-0.17947649955749512,1.656721830368042,-0.6521321535110474
1783170128984876000,6.2178759765625,-0.2071661353111267,1.3823212385177612,-0.31415584683418274
1783170128994946000,6.227946044921875,-0.21030333638191223,0.9271705150604248,-0.0003675392363220453
1783170129005014800,6.238014892578125,-0.2197619527578354,0.3773219883441925,0.25020831823349
1783170129015085000,6.2480849609375,-0.24079027771949768,-0.0025848764926195145,0.4132174849510193
1783170129025153800,6.25815380859375,-0.2579439878463745,-0.0917738527059555,0.48655712604522705
1783170129035223000,6.26822314453125,-0.25206080079078674,0.10414265841245651,0.44734206795692444
1783170129045292800,6.278292724609375,-0.20616818964481354,0.4584827423095703,0.37270089983940125
1783170129055362000,6.288362060546875,-0.10189131647348404,0.7987279295921326,0.31256964802742004
1783170129065431800,6.298431884765625,-0.0008093721698969603,0.9448498487472534,0.3133827745914459
1783170129075501000,6.3085009765625,0.07047226279973984,0.8962181210517883,0.4282425343990326
1783170129085569800,6.31856982421875,0.12398052215576172,0.7261136174201965,0.5726425051689148
1783170129095640000,6.32864013671875,0.117964968085289,0.4070965051651001,0.7224717140197754
1783170129105708800,6.338708740234375,0.0601334311068058,0.004907136783003807,0.790557861328125
1783170129115778800,6.34877880859375,-0.0492204912006855,-0.24335381388664246,0.7746611833572388
1783170129125847800,6.358847900390625,-0.14308273792266846,-0.2628866136074066,0.7080215215682983
1783170129135917000,6.3689169921875,-0.18220937252044678,-0.16627486050128937,0.5819469690322876
1783170129145987000,6.378987060546875,-0.14822933077812195,-0.06141944229602814,0.4762040078639984
1783170129156055600,6.3890556640625,-0.07143441587686539,-0.011395691893994808,0.45893236994743347
1783170129166124300,6.399124267578125,-0.03267328813672066,-0.051743075251579285,0.47914594411849976
1783170129176194300,6.4091943359375,-0.0788668841123581,-0.12043026834726334,0.5127739310264587
1783170129186263300,6.41926318359375,-0.19348526000976562,-0.21544760465621948,0.4754888713359833
1783170129196333300,6.429333251953125,-0.3297693133354187,-0.3525543212890625,0.375424861907959
1783170129206402300,6.43940234375,-0.48058465123176575,-0.526611864566803,0.3029743731021881
1783170129216471600,6.449471435546875,-0.5738957524299622,-0.6875948905944824,0.2727173864841461
1783170129226541300,6.459541259765625,-0.5946071743965149,-0.6995820999145508,0.30140289664268494
1783170129236610300,6.4696103515625,-0.5955166816711426,-0.5188757181167603,0.2801375687122345
1783170129246680300,6.479680419921875,-0.5876122117042542,-0.21973076462745667,0.22957751154899597
1783170129256749300,6.489749267578125,-0.5287193059921265,-0.07524174451828003,0.13953763246536255
1783170129266818300,6.499818359375,-0.4190887212753296,-0.12808087468147278,0.0720103308558464
1783170129276888300,6.509888427734375,-0.31549495458602905,-0.3863837718963623,-0.0645858645439148
1783170129286957300,6.519957275390625,-0.26133012771606445,-0.8339975476264954,-0.17969806492328644
1783170129297027300,6.53002734375,-0.26680320501327515,-1.3519889116287231,-0.25933244824409485
1783170129307096600,6.5400966796875,-0.3153195083141327,-1.872880220413208,-0.2857293486595154
1783170129317165300,6.550165283203125,-0.3411814570426941,-2.0076239109039307,-0.1385902315378189
1783170129327235600,6.560235595703125,-0.34160110354423523,-1.655124306678772,-0.06109848991036415
1783170129337304300,6.57030419921875,-0.32367751002311707,-0.8984276652336121,-0.19144371151924133
1783170129347374300,6.580374267578125,-0.31193870306015015,-0.1018170714378357,-0.4427781105041504
1783170129357443300,6.590443359375,-0.2305186688899994,0.28498125076293945,-0.6456968784332275
1783170129367512600,6.6005126953125,-0.12010371685028076,-0.04145077243447304,-0.7213586568832397
1783170129377582300,6.610582275390625,0.013287096284329891,-0.9763662219047546,-0.6819521188735962
1783170129387651300,6.6206513671875,0.13302645087242126,-2.0321950912475586,-0.624222457408905
1783170129397721300,6.630721435546875,0.04167977347970009,-2.897336483001709,-0.7085208296775818
1783170129407790300,6.640790283203125,-0.23439382016658783,-3.0515074729919434,-0.7380192279815674
1783170129417859300,6.650859375,-0.5093430876731873,-2.3223798274993896,-0.7408672571182251
1783170129427929300,6.660929443359375,-0.597486674785614,-1.1559101343154907,-0.7686432600021362
1783170129437998300,6.670998291015625,-0.45728689432144165,-0.09116065502166748,-0.8438048362731934
1783170129448067300,6.6810673828125,-0.29689887166023254,0.46881210803985596,-0.8371238708496094
1783170129458137300,6.691137451171875,-0.23227302730083466,0.5626829266548157,-0.7830489277839661
1783170129468206300,6.701206298828125,-0.21799789369106293,0.30984270572662354,-0.7387860417366028
1783170129478276600,6.711276611328125,-0.17369568347930908,-0.08329101651906967,-0.6721230745315552
1783170129488345300,6.721345458984375,-0.04030846431851387,-0.41845065355300903,-0.6112074255943298
1783170129498414300,6.731414306640625,0.14468508958816528,-0.4856110215187073,-0.6040597558021545
1783170129508484400,6.741484375,0.29248571395874023,-0.18682235479354858,-0.665308952331543
1783170129518553600,6.7515537109375,0.3713107705116272,0.3544531464576721,-0.7954509854316711
1783170129528623400,6.761623291015625,0.41693755984306335,0.8907382488250732,-0.9385849833488464
1783170129538692400,6.7716923828125,0.42815375328063965,1.296623706817627,-0.9936599731445312
1783170129548761300,6.78176123046875,0.4408607482910156,1.4262818098068237,-0.893999457359314
1783170129558831400,6.791831298828125,0.46372345089912415,1.3076486587524414,-0.6606684327125549
1783170129568900400,6.801900390625,0.4608747661113739,1.047498345375061,-0.3807499408721924
1783170129578970400,6.811970458984375,0.3500233590602875,0.7369687557220459,-0.11139489710330963
1783170129589039400,6.822039306640625,0.16894255578517914,0.4102628827095032,0.07106390595436096
1783170129599108400,6.8321083984375,0.020809287205338478,0.2759503722190857,0.14127255976200104
1783170129609178400,6.842178466796875,-0.0412096306681633,0.33740001916885376,0.11594808846712112
1783170129619247400,6.852247314453125,-0.039740100502967834,0.5156714916229248,0.06939683109521866
1783170129629317400,6.8623173828125,0.006645269691944122,0.7335912585258484,0.008630216121673584
1783170129639386400,6.872386474609375,0.059922341257333755,0.8820456862449646,-0.029292665421962738
1783170129649455400,6.882455322265625,0.055266574025154114,0.8847786784172058,-0.0276532880961895
1783170129659525400,6.892525390625,-0.00759601267054677,0.7815766930580139,-0.0051666200160980225
1783170129669594400,6.902594482421875,-0.059234246611595154,0.6154173612594604,0.061150506138801575
1783170129679664400,6.912664306640625,-0.11139678210020065,0.37642738223075867,0.1489538699388504
1783170129689733400,6.9227333984375,-0.14792196452617645,0.08672861009836197,0.21606585383415222
1783170129699802400,6.93280224609375,-0.1436619758605957,-0.09749209135770798,0.29532286524772644
1783170129709872400,6.942872314453125,-0.1220354363322258,-0.11044500768184662,0.38715675473213196
1783170129719941400,6.95294140625,-0.06160058453679085,0.06386420875787735,0.46529603004455566
1783170129730011400,6.963011474609375,0.029094578698277473,0.32456356287002563,0.5005787014961243
1783170129740080400,6.973080322265625,0.03996134176850319,0.4683572053909302,0.5176753997802734
1783170129750149400,6.9831494140625,-0.022821616381406784,0.43540191650390625,0.5047641396522522
1783170129760219400,6.993219482421875,-0.09683193266391754,0.3307967185974121,0.4504822790622711
1783170129770288400,7.003288330078125,-0.1880333572626114,0.2640433609485626,0.34333470463752747
1783170129780357400,7.013357421875,-0.25903135538101196,0.19243016839027405,0.22272014617919922
1783170129790427400,7.023427490234375,-0.27751296758651733,0.10594920068979263,0.20532935857772827
1783170129800496400,7.033496337890625,-0.25795525312423706,0.08068060129880905,0.2756676971912384
1783170129810566400,7.04356640625,-0.22349700331687927,0.1391657590866089,0.3946344554424286
1783170129820635400,7.053635498046875,-0.216321662068367,0.2418050616979599,0.5525327324867249
1783170129830704400,7.063704345703125,-0.2002115398645401,0.444301962852478,0.6526935696601868
1783170129840774400,7.0737744140625,-0.15167276561260223,0.6314098238945007,0.6994125843048096
1783170129850843400,7.083843505859375,-0.1239723190665245,0.7014206647872925,0.7151291370391846
1783170129860913200,7.0939130859375,-0.12994152307510376,0.5990259051322937,0.6090461015701294
1783170129870982400,7.103982421875,-0.10902243852615356,0.3822011649608612,0.46879273653030396
1783170129881051400,7.114051513671875,-0.077170230448246,0.2193152904510498,0.3967432975769043
1783170129891121400,7.124121337890625,-0.05048397555947304,0.11593673378229141,0.3339906334877014
1783170129901190400,7.1341904296875,-0.07460395991802216,0.12513317167758942,0.37855491042137146
1783170129911260400,7.144260498046875,-0.04905230551958084,0.2216615527868271,0.5830128192901611
1783170129921329200,7.1543291015625,0.13190869987010956,0.26700133085250854,0.8949992060661316
1783170129931398400,7.1643984375,0.3952508568763733,0.14706388115882874,1.1531018018722534
1783170129941468400,7.174468505859375,0.5388849973678589,-0.1883775293827057,1.2533048391342163
1783170129951537400,7.184537353515625,0.48481321334838867,-0.7179149389266968,1.081913948059082
1783170129961607400,7.194607421875,0.3137274980545044,-1.2020318508148193,0.631886899471283
1783170129971676400,7.204676513671875,0.0877666175365448,-1.333866000175476,0.03882728889584541
1783170129981745400,7.214745361328125,-0.11177791655063629,-1.151491641998291,-0.6794562935829163
1783170129991815400,7.2248154296875,-0.19054962694644928,-0.9916412234306335,-1.466764211654663
1783170130001884400,7.234884521484375,-0.20718586444854736,-0.9587852954864502,-1.9918100833892822
1783170130011954400,7.244954345703125,-0.193608820438385,-1.0261468887329102,-1.94193696975708
1783170130022023400,7.2550234375,-0.14676354825496674,-1.0872565507888794,-1.3392002582550049
1783170130032092400,7.265092529296875,-0.15484589338302612,-1.1430045366287231,-0.5302687883377075
1783170130042162400,7.275162353515625,-0.19976569712162018,-1.2373565435409546,-0.12720710039138794
1783170130052231400,7.2852314453125,-0.194631889462471,-1.3421927690505981,-0.16918841004371643
1783170130062301400,7.295301513671875,-0.1466401368379593,-1.242356777191162,-0.3674527704715729
1783170130072370200,7.3053701171875,-0.12646038830280304,-0.8995059728622437,-0.6048600673675537
1783170130082439400,7.315439453125,-0.1313113421201706,-0.41375869512557983,-0.6573200821876526
1783170130092509200,7.32550927734375,-0.09492244571447372,0.07817696034908295,-0.4347948133945465
1783170130102578400,7.335578369140625,-0.04589124768972397,0.20650216937065125,0.003966019954532385
1783170130112647200,7.345647216796875,0.09717229008674622,-0.17548620700836182,0.5903334617614746
1783170130122717400,7.355717529296875,0.356269896030426,-0.6066490411758423,1.2106660604476929
1783170130132786200,7.3657861328125,0.6040757894515991,-0.6724228858947754,1.5565088987350464
1783170130142856400,7.3758564453125,0.7065302729606628,-0.47905075550079346,1.4337949752807617
1783170130152925400,7.385925537109375,0.6499584913253784,-0.17159013450145721,0.9915478825569153
1783170130162994400,7.395994384765625,0.5781345963478088,0.008164728060364723,0.32674455642700195
1783170130173064400,7.406064453125,0.5695754885673523,0.11092865467071533,-0.2985956370830536
1783170130183133400,7.416133544921875,0.6362549066543579,0.2665137052536011,-0.7319984436035156
1783170130193203500,7.426203369140625,0.7411623001098633,0.4257431626319885,-0.9907102584838867
1783170130203272400,7.4362724609375,0.7795339226722717,0.5798347592353821,-1.0355408191680908
1783170130213341400,7.446341552734375,0.7116392850875854,0.7617896199226379,-1.0006535053253174
1783170130223411200,7.4564111328125,0.5320916771888733,0.8585310578346252,-0.9582319855690002
1783170130233480400,7.46648046875,0.2659085988998413,0.8559065461158752,-0.8825679421424866
1783170130243550200,7.47655029296875,0.08183862268924713,0.8870072364807129,-0.7769677639007568
1783170130253619500,7.486619384765625,-0.035239044576883316,0.9469211101531982,-0.7526286840438843
1783170130263688400,7.4966884765625,-0.17071299254894257,0.9575021266937256,-0.7649612426757812
1783170130273758500,7.506758544921875,-0.2185669243335724,1.2336056232452393,-0.9409055113792419
1783170130283827200,7.5168271484375,-0.08438142389059067,1.761940598487854,-1.2175272703170776
1783170130293897500,7.5268974609375,-0.09961361438035965,0.992547333240509,-0.8238697648048401
1783170130303966200,7.53696630859375,-0.11050674319267273,0.5068964958190918,-0.7387386560440063
1783170130314035500,7.547035400390625,-0.29635897278785706,0.1852370947599411,-0.23288701474666595
1783170130324105200,7.557105224609375,-0.45700109004974365,-0.11310406774282455,0.1427963227033615
1783170130334174500,7.567174560546875,-0.41633278131484985,-0.05292847007513046,0.4901813864707947
1783170130344244500,7.577244384765625,-0.3206413984298706,-0.04287556931376457,0.7835642695426941
1783170130354313500,7.5873134765625,-0.2892015874385834,-0.15193374454975128,0.9182612895965576
1783170130364382200,7.59738232421875,-0.24649514257907867,-0.19713903963565826,0.8036447167396545
1783170130374452500,7.607452392578125,-0.21258167922496796,-0.07563190907239914,0.6615579128265381
1783170130384521500,7.617521484375,-0.253842830657959,0.003662379924207926,0.48307129740715027
1783170130394591200,7.62759130859375,-0.24181023240089417,0.09249866008758545,0.3848281502723694
1783170130404660500,7.637660400390625,-0.22261950373649597,0.06031568720936775,0.38944581151008606
1783170130414729500,7.6477294921875,-0.19506438076496124,-0.16267788410186768,0.40676212310791016
1783170130424799500,7.657799560546875,-0.16002410650253296,-0.30980634689331055,0.392692893743515
1783170130434868200,7.6678681640625,-0.21945858001708984,-0.14080369472503662,0.3246108293533325
1783170130444938500,7.6779384765625,-0.2869105637073517,0.172031968832016,0.21472933888435364
1783170130455007200,7.68800732421875,-0.28544992208480835,0.4344622790813446,0.1859603077173233
1783170130465076500,7.698076416015625,-0.2242443561553955,0.5388011932373047,0.21631261706352234
1783170130475146200,7.708146240234375,-0.14817862212657928,0.484581857919693,0.27204906940460205
1783170130485215500,7.718215576171875,-0.05610036104917526,0.44936129450798035,0.36173316836357117
1783170130495285200,7.72828515625,0.006478641647845507,0.42716625332832336,0.489135205745697
1783170130505354500,7.7383544921875,-0.015223458409309387,0.26073145866394043,0.5687751173973083
1783170130515423200,7.74842333984375,-0.07788440585136414,0.08380673825740814,0.5819254517555237
1783170130525493500,7.758493408203125,-0.08939884603023529,0.10283103585243225,0.525938868522644
1783170130535562200,7.768562255859375,-0.07091923803091049,0.25260576605796814,0.5337450504302979
1783170130545632300,7.77863232421875,-0.028978440910577774,0.3727010190486908,0.530454695224762
1783170130555701500,7.788701416015625,0.030478395521640778,0.4453027546405792,0.5200068950653076
1783170130565770500,7.7987705078125,0.06834082305431366,0.348749577999115,0.5174701809883118
1783170130575840500,7.808840576171875,0.05204140394926071,0.045424893498420715,0.5112797021865845
1783170130585909200,7.8189091796875,0.040552787482738495,-0.18826721608638763,0.43869900703430176
1783170130595978200,7.828978271484375,0.006814777851104736,-0.2803296446800232,0.2211342453956604
1783170130606048300,7.83904833984375,-0.15973958373069763,-0.33548450469970703,-0.11661875993013382
1783170130616117500,7.849117431640625,-0.23272810876369476,-0.3713001608848572,-0.5402630567550659
1783170130626187300,7.859187255859375,-0.24253572523593903,-0.5195743441581726,-1.088243007659912
1783170130636256500,7.869256591796875,-0.2391767054796219,-0.5634745359420776,-1.4886136054992676
1783170130646325200,7.8793251953125,-0.17159898579120636,-0.3759070336818695,-1.5615670680999756
1783170130656395500,7.8893955078125,-0.12542057037353516,-0.024027720093727112,-1.3579785823822021
1783170130666464300,7.89946435546875,-0.036590028554201126,0.22454985976219177,-0.9716267585754395
1783170130676534500,7.909534423828125,0.06285092234611511,0.35951662063598633,-0.5569971203804016
1783170130686603300,7.919603271484375,0.1495482623577118,0.34509748220443726,-0.19675210118293762
1783170130696672500,7.929672607421875,0.24609734117984772,-0.06235457956790924,0.2168363630771637
1783170130706742300,7.9397421875,0.36102792620658875,-0.883122980594635,0.6620073914527893
1783170130716811500,7.9498115234375,0.36641231179237366,-1.6657893657684326,0.9485139846801758
1783170130726881300,7.95988134765625,0.2675962448120117,-2.0588901042938232,0.9594556093215942
1783170130736950300,7.9699501953125,0.1598799228668213,-1.907364845275879,0.7119607329368591
1783170130747019300,7.980019287109375,0.10536342114210129,-1.345603346824646,0.37004706263542175
1783170130757089300,7.99008935546875,0.056891635060310364,-0.6661315560340881,0.12651844322681427
1783170130767158300,8.000158203125,0.058592863380908966,-0.1313035637140274,0.0324699729681015
1783170130777228300,8.010228271484374,0.029181640595197678,0.2197645753622055,0.07517474889755249
1783170130787297500,8.020297607421876,0.01698196679353714,0.3950919210910797,0.16614940762519836
1783170130797366300,8.0303662109375,0.029190324246883392,0.3172186017036438,0.1576175093650818
1783170130807436500,8.0404365234375,0.014032674953341484,0.1780599057674408,0.0017485549906268716
1783170130817505300,8.05050537109375,0.06964180618524551,0.19638629257678986,-0.22324521839618683
1783170130827575600,8.060575439453125,0.2297007143497467,0.4395664632320404,-0.4027270972728729
1783170130837644300,8.070644287109374,0.3849906623363495,0.6487923860549927,-0.4667520225048065
1783170130847713500,8.080713623046876,0.4895429015159607,0.6799516677856445,-0.37859952449798584
1783170130857783300,8.090783203125,0.479152649641037,0.6473938822746277,-0.19478310644626617
1783170130867852500,8.1008525390625,0.39639970660209656,0.5807973146438599,-0.03529811650514603
1783170130877922300,8.11092236328125,0.29961952567100525,0.5499476790428162,0.06802542507648468
1783170130887991600,8.120991455078125,0.24271444976329803,0.522158145904541,0.11181152611970901
1783170130898060300,8.131060302734374,0.23778361082077026,0.46850740909576416,0.10783089697360992
1783170130908130300,8.14113037109375,0.22759169340133667,0.43896234035491943,0.06859347969293594
1783170130918199300,8.15119921875,0.25905317068099976,0.4928668439388275,0.02420167624950409
1783170130928269300,8.161269287109375,0.3029945194721222,0.5325551629066467,0.06413604319095612
1783170130938338300,8.17133837890625,0.37221264839172363,0.518613338470459,0.13535700738430023
1783170130948407300,8.1814072265625,0.44399842619895935,0.4773963987827301,0.17928984761238098
1783170130958477600,8.1914775390625,0.4764017164707184,0.46311625838279724,0.18323692679405212
1783170130968546300,8.20154638671875,0.5018224120140076,0.48682451248168945,0.1662536859512329
1783170130978616600,8.211616455078126,0.5485823154449463,0.5131264328956604,0.15376557409763336
1783170130988685300,8.221685302734375,0.5847097039222717,0.5128934383392334,0.13186852633953094
1783170130998754300,8.23175439453125,0.5713111162185669,0.4182133972644806,0.1283292919397354
1783170131008824300,8.24182421875,0.4970884919166565,0.1768510937690735,0.08387739956378937
1783170131018893600,8.2518935546875,0.431625097990036,-0.023122884333133698,-0.04486122354865074
1783170131028963300,8.26196337890625,0.4143473207950592,-0.10898293554782867,-0.14883290231227875
1783170131039032600,8.272032470703126,0.40402957797050476,-0.12172867357730865,-0.10602916032075882
1783170131049101300,8.282101318359375,0.392354816198349,-0.13589030504226685,0.07416005432605743
1783170131059171300,8.29217138671875,0.3958393335342407,-0.08488611876964569,0.2975361943244934
1783170131069240300,8.302240234375,0.41306599974632263,0.08922256529331207,0.49126997590065
1783170131079310300,8.312310302734375,0.4091338515281677,0.23142310976982117,0.6227004528045654
1783170131089379300,8.32237939453125,0.38926559686660767,0.19327598810195923,0.5955923795700073
1783170131099448300,8.3324482421875,0.3787023425102234,0.10236434638500214,0.3943123519420624
1783170131109518300,8.342518310546875,0.3532795310020447,0.1437663733959198,0.15686997771263123
1783170131119587300,8.35258740234375,0.30021363496780396,0.24347072839736938,-0.02154417522251606
1783170131129657300,8.3626572265625,0.20052751898765564,0.30540359020233154,-0.10990893095731735
1783170131139726300,8.372726318359375,0.13443711400032043,0.31684866547584534,0.01265366654843092
1783170131149795300,8.38279541015625,0.11209984868764877,0.27206894755363464,0.2531261742115021
1783170131159865300,8.392865234375,0.08587543666362762,0.11575710028409958,0.3973044157028198
1783170131169934600,8.4029345703125,0.11529990285634995,-0.1356508880853653,0.35598599910736084
1783170131180004400,8.41300439453125,0.13924291729927063,-0.2516230344772339,0.09361045062541962
1783170131190073600,8.423073486328125,0.09359874576330185,-0.28803321719169617,-0.3312801420688629
1783170131200142300,8.433142333984375,0.011001442559063435,-0.2556866407394409,-0.7916895747184753
1783170131210212400,8.44321240234375,-0.047639764845371246,-0.2907463312149048,-1.261741042137146
1783170131220281300,8.45328125,-0.08864254504442215,-0.4552348852157593,-1.5913821458816528
1783170131230351400,8.463351318359376,-0.16604626178741455,-0.6853495836257935,-1.675947904586792
1783170131240420400,8.47342041015625,-0.2852594554424286,-0.7249128222465515,-1.4685773849487305
1783170131250489600,8.483489501953125,-0.39647677540779114,-0.46111366152763367,-1.1575825214385986
1783170131260559400,8.493559326171875,-0.41417065262794495,-0.0348701998591423,-0.852478563785553
1783170131270628400,8.50362841796875,-0.34025222063064575,0.36926954984664917,-0.5559270977973938
1783170131280698600,8.51369873046875,-0.2293260544538498,0.6305283308029175,-0.303522527217865
1783170131290767400,8.523767333984376,-0.0830945372581482,0.6827768683433533,-0.09242067486047745
1783170131300836400,8.53383642578125,0.08116603642702103,0.5025743246078491,0.107965387403965
1783170131310906400,8.54390625,0.23834846913814545,0.08932042121887207,0.3632163405418396
1783170131320975400,8.553975341796875,0.3744412064552307,-0.3730573058128357,0.5818731784820557
1783170131331045400,8.56404541015625,0.43837252259254456,-0.5485990643501282,0.5768014192581177
1783170131341114600,8.574114501953124,0.4585019648075104,-0.46242719888687134,0.3713163137435913
1783170131351183400,8.584183349609376,0.45329442620277405,-0.3151051104068756,0.04433818534016609
1783170131361253400,8.59425341796875,0.4168916344642639,-0.27375921607017517,-0.2390155792236328
1783170131371322400,8.604322265625,0.34573543071746826,-0.32722190022468567,-0.3776397407054901
1783170131381392400,8.614392333984375,0.3018186390399933,-0.36966192722320557,-0.38837093114852905
1783170131391461400,8.62446142578125,0.2708436846733093,-0.3551197350025177,-0.3172624111175537
1783170131401530600,8.634530517578124,0.2252991646528244,-0.31897586584091187,-0.2450246959924698
1783170131411600400,8.644600341796876,0.18017056584358215,-0.26337066292762756,-0.19385792315006256
1783170131421669400,8.65466943359375,0.1542007178068161,-0.11117763817310333,-0.13486741483211517
1783170131431739400,8.664739501953125,0.1616743505001068,0.09189904481172562,0.010632796213030815
1783170131441808400,8.674808349609375,0.2449013590812683,0.23951846361160278,0.3028632402420044
1783170131451877400,8.68487744140625,0.3534611165523529,0.1942543238401413,0.5996416807174683
1783170131461947400,8.694947509765624,0.4114549458026886,0.0982954353094101,0.7985493540763855
1783170131472016400,8.705016357421876,0.3651929199695587,0.1334369033575058,0.8113397359848022
1783170131482085400,8.71508544921875,0.29539352655410767,0.28791502118110657,0.6279826164245605
1783170131492155400,8.7251552734375,0.2362617403268814,0.38349056243896484,0.3502735197544098
1783170131502224400,8.735224365234375,0.20754387974739075,0.40574777126312256,0.14758385717868805
1783170131512294700,8.745294677734375,0.20585331320762634,0.39340803027153015,0.12138687819242477
1783170131522363400,8.75536328125,0.2122918665409088,0.3326747715473175,0.22581280767917633
1783170131532432400,8.765432373046876,0.22779147326946259,0.2079557329416275,0.3789634704589844
1783170131542502400,8.77550244140625,0.2630758285522461,0.06123596802353859,0.48394736647605896
1783170131552571600,8.785571533203125,0.29407474398612976,-0.005489532835781574,0.4706856310367584
1783170131562641400,8.795641357421875,0.3103075325489044,-0.018676333129405975,0.3452304005622864
1783170131572710400,8.80571044921875,0.3390856385231018,-0.10087160766124725,0.17239686846733093
1783170131582779400,8.815779296875,0.34802860021591187,-0.18045154213905334,-0.05484449863433838
1783170131592849400,8.825849365234374,0.31033024191856384,-0.17544426023960114,-0.31128185987472534
1783170131602918400,8.83591845703125,0.287319153547287,-0.10799448937177658,-0.527706503868103
1783170131612988400,8.845988525390625,0.26725250482559204,-0.05798618495464325,-0.6517304182052612
1783170131623057400,8.856057373046875,0.2502281367778778,-0.05556125193834305,-0.6374030709266663
1783170131633126400,8.86612646484375,0.25770044326782227,-0.09910713136196136,-0.5152537226676941
1783170131643196400,8.876196533203125,0.25435903668403625,-0.1208682432770729,-0.3588657081127167
1783170131653265400,8.886265380859374,0.24367310106754303,-0.004081171937286854,-0.2886432111263275
1783170131663335400,8.89633544921875,0.2240556925535202,0.19157691299915314,-0.34550347924232483
1783170131673404400,8.906404296875,0.17014160752296448,0.2626239061355591,-0.48018643260002136
1783170131683473400,8.916473388671875,0.12089045345783234,0.1329914629459381,-0.6006365418434143
1783170131693543400,8.92654345703125,0.11453961580991745,-0.0778435468673706,-0.5887638926506042
1783170131703612400,8.9366123046875,0.10971134901046753,-0.30929139256477356,-0.43343591690063477
1783170131713682400,8.946682373046874,0.14780442416667938,-0.5213983058929443,-0.19509685039520264
1783170131723751400,8.95675146484375,0.20699542760849,-0.6017560362815857,0.053714945912361145
1783170131733820400,8.9668203125,0.25040602684020996,-0.43124231696128845,0.1594293862581253
1783170131743890400,8.976890380859375,0.26119038462638855,-0.05574462562799454,0.016620296984910965
1783170131753959400,8.98695947265625,0.2321086823940277,0.37043094635009766,-0.2752658724784851
1783170131764029400,8.997029541015625,0.22415192425251007,0.7810677289962769,-0.5355811715126038
1783170131774098400,9.007098388671874,0.14213135838508606,0.9626500606536865,-0.6587811708450317
1783170131784167400,9.01716748046875,-0.00013008364476263523,0.822111189365387,-0.5258064270019531
1783170131794237400,9.027237548828126,-0.098117895424366,0.5540309548377991,-0.11570730805397034
1783170131804306400,9.037306396484375,-0.13948151469230652,0.2670648694038391,0.3464396297931671
1783170131814376400,9.04737646484375,-0.11849500983953476,0.03290456533432007,0.6296979188919067
1783170131824445400,9.057445556640625,-0.06971463561058044,-0.10068997740745544,0.5287041068077087
1783170131834514400,9.067514404296874,0.013700357638299465,-0.22877150774002075,0.08563267439603806
1783170131844584400,9.07758447265625,0.07390250265598297,-0.36197978258132935,-0.5209187269210815
1783170131854653400,9.0876533203125,0.11692427098751068,-0.3302556872367859,-1.1047683954238892
1783170131864723500,9.097723388671875,0.10719386488199234,-0.052192479372024536,-1.3849834203720093
1783170131874792400,9.10779248046875,0.018785975873470306,0.3076799511909485,-1.208726406097412
1783170131884861400,9.117861328125,-0.06655493378639221,0.3574562966823578,-0.6475847363471985
1783170131894931200,9.12793115234375,-0.16416645050048828,0.034488338977098465,0.028409449383616447
1783170131905000400,9.13800048828125,-0.281692236661911,-0.38455235958099365,0.5062858462333679
1783170131915070500,9.148070556640626,-0.2984829246997833,-0.526197612285614,0.629716694355011
1783170131925139500,9.158139404296875,-0.28266671299934387,-0.45392340421676636,0.5238887071609497
1783170131935208400,9.16820849609375,-0.2869623899459839,-0.38540345430374146,0.3211750090122223
1783170131945278500,9.178278564453125,-0.22809326648712158,-0.37366747856140137,0.08932831883430481
1783170131955347500,9.188347412109374,-0.1457243710756302,-0.3634726405143738,-0.20002226531505585
1783170131965417500,9.19841748046875,-0.06734476238489151,-0.37293869256973267,-0.44626033306121826
1783170131975486500,9.208486572265626,0.04922632873058319,-0.5113375186920166,-0.4067869484424591
1783170131985555500,9.218555419921875,0.12951388955116272,-0.7563931345939636,-0.1953309029340744
1783170131995625500,9.22862548828125,0.1694413274526596,-1.0454150438308716,0.19641797244548798
1783170132005694500,9.238694580078125,0.15186792612075806,-1.1008641719818115,0.5755210518836975
1783170132015764500,9.248764404296875,0.08910653740167618,-0.9006056785583496,0.7965162992477417
1783170132025833500,9.25883349609375,0.008672904223203659,-0.6275842785835266,0.9301258325576782
1783170132035902500,9.26890234375,-0.07278306782245636,-0.31167346239089966,1.087631344795227
1783170132045972200,9.27897216796875,-0.1416110098361969,0.020831814035773277,1.2655237913131714
1783170132056041500,9.28904150390625,-0.17863214015960693,0.3603326678276062,1.396153211593628
1783170132066111200,9.299111328125,-0.21186348795890808,0.5238098502159119,1.44304621219635
1783170132076180500,9.309180419921875,-0.23361697793006897,0.534493088722229,1.3465207815170288
1783170132086249500,9.31924951171875,-0.23391090333461761,0.4041476249694824,1.1284319162368774
1783170132096319500,9.329319580078124,-0.18469461798667908,0.19233392179012299,0.8492391109466553
1783170132106388200,9.33938818359375,-0.07616104930639267,0.03808226436376572,0.6144854426383972
1783170132116458500,9.34945849609375,0.028978152200579643,0.04172813147306442,0.46965447068214417
1783170132126527200,9.35952734375,0.11046094447374344,0.1317714899778366,0.34927135705947876
1783170132136596500,9.369596435546875,0.13220351934432983,0.21875034272670746,0.27136191725730896
1783170132146666500,9.37966650390625,0.09288062900304794,0.26311126351356506,0.23644086718559265
1783170132156735700,9.38973583984375,0.023269863799214363,0.25433239340782166,0.25509124994277954
1783170132166805800,9.3998056640625,-0.05272580310702324,0.21800918877124786,0.34691938757896423
1783170132176874800,9.409874755859375,-0.11855302006006241,0.041311103850603104,0.4610765874385834
1783170132186943700,9.41994384765625,-0.17398372292518616,-0.23821040987968445,0.47788095474243164
1783170132197013800,9.430013671875,-0.21591386198997498,-0.4324701428413391,0.3479309678077698
1783170132207082800,9.440082763671874,-0.22295494377613068,-0.4247147738933563,0.11778576672077179
1783170132217152800,9.45015283203125,-0.19825811684131622,-0.31908074021339417,-0.09332194924354553
1783170132227221800,9.4602216796875,-0.14380504190921783,-0.1846928596496582,-0.23647072911262512
1783170132237290800,9.470290771484375,-0.09070800244808197,-0.015353366732597351,-0.29457396268844604
1783170132247360800,9.48036083984375,-0.050154685974121094,0.16213321685791016,-0.26644107699394226
1783170132257429800,9.4904296875,-0.08992341160774231,0.22662726044654846,-0.2567216157913208
1783170132267499800,9.500499755859375,-0.17585822939872742,0.2009987235069275,-0.323193222284317
1783170132277568800,9.51056884765625,-0.2773217260837555,0.13132990896701813,-0.41373562812805176
1783170132287637800,9.5206376953125,-0.34631600975990295,0.03937550634145737,-0.46945467591285706
1783170132297707800,9.530707763671876,-0.38675159215927124,-0.03222730755805969,-0.45523178577423096
1783170132307776800,9.54077685546875,-0.4118647873401642,-0.04585058614611626,-0.40088167786598206
1783170132317846800,9.5508466796875,-0.41669973731040955,-0.027190618216991425,-0.31325995922088623
1783170132327915800,9.560915771484375,-0.41246795654296875,0.013689068146049976,-0.23456622660160065
1783170132337984800,9.57098486328125,-0.41871413588523865,0.06283024698495865,-0.16586199402809143
1783170132348054500,9.581054443359376,-0.4326135814189911,0.039952054619789124,-0.07709743082523346
1783170132358123800,9.591123779296876,-0.4468092918395996,-0.026820316910743713,-0.01626923307776451
1783170132368193800,9.60119384765625,-0.488986074924469,-0.08571676909923553,-0.018703797832131386
1783170132378262800,9.6112626953125,-0.49884483218193054,-0.07168750464916229,-0.06964340806007385
1783170132388331800,9.621331787109375,-0.4944119155406952,0.05862763524055481,-0.173561692237854
1783170132398401800,9.63140185546875,-0.5030975937843323,0.2272627204656601,-0.2954697608947754
1783170132408470800,9.641470703125,-0.5345985293388367,0.2829655408859253,-0.340695321559906
1783170132418540800,9.651540771484376,-0.6005210280418396,0.19206602871418,-0.2814357280731201
1783170132428609800,9.66160986328125,-0.6454008221626282,0.013291964307427406,-0.18537156283855438
1783170132438679800,9.6716796875,-0.6508336663246155,-0.14877869188785553,-0.12806805968284607
1783170132448749800,9.681749755859375,-0.6693286895751953,-0.2166292518377304,-0.2130606323480606
1783170132458818600,9.691818603515625,-0.6305373907089233,-0.25237658619880676,-0.5493587851524353
1783170132468887800,9.7018876953125,-0.571106493473053,-0.35180917382240295,-1.1086163520812988
1783170132478957600,9.71195751953125,-0.5187777280807495,-0.5683545470237732,-1.7622958421707153
1783170132489026800,9.72202685546875,-0.4896695017814636,-0.9111059904098511,-2.280742645263672
1783170132499096800,9.732096923828125,-0.5344308018684387,-1.1355347633361816,-2.340874195098877
1783170132509165800,9.742165771484375,-0.5704132318496704,-1.0019581317901611,-1.7989271879196167
1783170132519234600,9.752234619140625,-0.6224269270896912,-0.6399493217468262,-1.0096375942230225
1783170132529304800,9.762304931640625,-0.69398432970047,-0.28273528814315796,-0.3349597752094269
1783170132539373600,9.77237353515625,-0.7925819754600525,-0.0260624960064888,0.068955197930336
1783170132549443800,9.78244384765625,-0.8508459329605103,0.042248956859111786,0.22671012580394745
1783170132559512800,9.792512939453125,-0.8091461658477783,0.04143509268760681,0.2558882534503937
1783170132569581800,9.802581787109375,-0.6763585805892944,0.008107335306704044,0.3235629200935364
1783170132579651800,9.81265185546875,-0.48416703939437866,-0.13278694450855255,0.5129283666610718
1783170132589720800,9.822720947265625,-0.2788214385509491,-0.30711308121681213,0.8009404540061951
1783170132599790800,9.832790771484374,-0.0922238826751709,-0.3674325942993164,1.0364373922348022
1783170132609859600,9.842859619140626,0.04168853536248207,-0.3165687322616577,1.1236616373062134
1783170132619928800,9.8529287109375,0.05590395629405975,-0.13236480951309204,1.0182324647903442
1783170132629998600,9.86299853515625,-0.054711151868104935,0.12405070662498474,0.7662028074264526
1783170132640067800,9.87306787109375,-0.1921590268611908,0.3108157813549042,0.5615655183792114
1783170132650137600,9.8831376953125,-0.28619322180747986,0.3444761633872986,0.5351734161376953
1783170132660206800,9.893206787109374,-0.32955026626586914,0.24143099784851074,0.6715184450149536
1783170132670275600,9.903275634765626,-0.3491511642932892,0.04206477105617523,0.8886638879776001
1783170132680345900,9.913345947265626,-0.3468289077281952,-0.15800601243972778,1.037196159362793
1783170132690414600,9.92341455078125,-0.3166671395301819,-0.21931369602680206,1.0352014303207397
1783170132700484900,9.93348486328125,-0.29346781969070435,-0.15597066283226013,0.8526224493980408
1783170132710553600,9.9435537109375,-0.25984811782836914,-0.027957186102867126,0.5598256587982178
1783170132720622800,9.953622802734374,-0.20490047335624695,0.1090395450592041,0.2937979996204376
1783170132730692900,9.96369287109375,-0.15573059022426605,0.2421412616968155,0.14010849595069885
1783170132740761900,9.973761962890626,-0.1376834213733673,0.2787192463874817,0.23408186435699463
1783170132750831900,9.983831787109375,-0.12219684571027756,0.16217759251594543,0.28803208470344543
1783170132760900600,9.993900634765625,-0.13165053725242615,0.4236755073070526,0.2358812838792801
1783170132770969900,10.003969970703125,-0.08436726033687592,0.6041233539581299,0.06644407659769058
1783170132781039600,10.01403955078125,-0.04809314385056496,0.5248439908027649,0.05848468840122223
1783170132791108900,10.02410888671875,-0.049960605800151825,0.26907873153686523,0.033428434282541275
1783170132801178600,10.0341787109375,-0.07203341275453568,0.008850877173244953,-0.02647591382265091
1783170132811247900,10.044247802734375,-0.08433261513710022,-0.2274264693260193,-0.07891451567411423
1783170132821316600,10.054316650390625,-0.06059373542666435,-0.38523367047309875,-0.19901108741760254
