time,seconds_elapsed,z,y,x
1783169537394414300,0.081414306640625,0.010357143363356589,-0.007851069693407044,-0.013944061939418315
1783169537404484400,0.091484375,0.009459902262687683,0.006016269181412645,-0.00647699801136041
1783169537414553300,0.10155322265625,-0.036329204487800595,0.01647371284777764,0.012778662288701162
1783169537424623400,0.111623291015625,-0.020617256093025206,0.0035827310247113927,0.01386281339675188
1783169537434692400,0.1216923828125,0.008711129721999169,0.00007402878401335328,0.003488233699760167
1783169537444761300,0.13176123046875,0.009011573973298072,0.010139637288311496,0.00047379609078634525
1783169537454831400,0.141831298828125,-0.02600362530648708,0.007183710092166438,-0.012849137133959448
1783169537464900400,0.151900390625,-0.020766309174895286,-0.008974776493711397,0.001393430544709554
1783169537474969300,0.16196923828125,-0.010590367597341537,0.009500471735093743,-0.00667856901504565
1783169537485039400,0.172039306640625,-0.012536240968108176,0.0046074892288772385,-0.009184140361496246
1783169537495108400,0.1821083984375,-0.019719430470466613,0.003537215949129313,-0.0033149275260453575
1783169537505177300,0.19217724609375,-0.021664719319343564,0.010877600740618072,0.001078922377084382
1783169537515247400,0.202247314453125,-0.015678046125173567,0.0036887715153396125,0.015702938537835144
1783169537525316400,0.21231640625,-0.018671382722258566,-0.0036745831597829234,0.013060118711739777
1783169537535385300,0.22238525390625,-0.016726093873381614,-0.001004879893339239,0.007645682172774104
1783169537545455400,0.232455322265625,-0.020767478218674657,-0.010554264237498863,0.015406753761478466
1783169537555524400,0.2425244140625,-0.00954407341480255,-0.02290775078353472,0.012135312609066022
1783169537565593300,0.25259326171875,0.010806640696525573,-0.006583657273207791,0.010433289897575741
1783169537575664000,0.2626640625,-0.011788637471199036,-0.025113759228098206,0.016190538250043754
1783169537585732900,0.27273291015625,-0.031092472878098486,-0.004055769063672051,0.009357153132621896
1783169537595802000,0.282802001953125,-0.011938275074958801,-0.004316607390367426,0.004633874912303872
1783169537605871900,0.292871826171875,-0.01522913331389427,-0.006371073968452401,0.002328708950692089
1783169537615941000,0.302941162109375,-0.009842179578542708,0.013833706033276393,-0.017983018007251664
1783169537626009900,0.313009765625,0.008564414727687835,0.01512135295732878,0.007933695059118326
1783169537636080000,0.323080078125,0.002129997766017914,-0.013612373166484757,0.005904808163573034
1783169537646148900,0.33314892578125,-0.01088905828297138,0.003802680218592286,-0.011074888294830451
1783169537656219000,0.343218994140625,-0.006999065107107162,-0.002291481071198359,-0.0026021544555667785
1783169537666287900,0.353287841796875,-0.002958265283703804,-0.002375003769341856,0.009463528125034645
1783169537676357000,0.363357177734375,-0.013583119672536849,0.005512525476934388,0.0126517867893097
1783169537686427000,0.373427001953125,-0.001911386579275131,-0.015998925809725187,0.005074183150375029
1783169537696496000,0.38349609375,-0.011937106031179428,-0.0063597762563033025,0.007813868071732576
1783169537706564900,0.39356494140625,-0.015228548792004585,-0.0031088344692252576,0.024894490454229524
1783169537716635000,0.403634765625,-0.014928689062595367,0.0048957863846560935,0.021833178071293514
1783169537726703900,0.413703857421875,-0.011937106031179428,-0.001062569463904947,0.01141730395775521
1783169537736773000,0.423773193359375,0.006466565665602684,0.0003625999344279989,-0.0013841158687369897
1783169537746843100,0.433843017578125,-0.01119067157804966,-0.008003424410638399,0.021402090894361025
1783169537756911900,0.443911865234375,-0.020617256093025206,0.004111759867495857,0.003231546391797019
1783169537766980900,0.45398095703125,-0.01478255859017372,0.011813762779301032,0.005085073295503389
1783169537777051000,0.46405078125,-0.02390928337574005,0.010881861357204616,0.005243420503748348
1783169537787119900,0.474119873046875,-0.018522914162278175,-0.002122787140519358,-0.005232743846107041
1783169537797189000,0.484189208984375,-0.017623919495940207,0.01567997778735589,0.006779516630381113
1783169537807259100,0.494259033203125,-0.01298573830127716,0.010525325837382115,0.006131328662135638
1783169537817327900,0.504327880859375,-0.014033786049485205,0.00851411844571121,0.026401584248663856
1783169537827396900,0.51439697265625,-0.014482698860764502,-0.00961307896382641,-0.0052680697461706585
1783169537837467000,0.524466796875,-0.0017640870630741118,0.0033910443775122985,-0.003062573899904964
1783169537847536000,0.5345361328125,-0.010144377395510672,0.003923872612579726,0.010604953245120122
1783169537857604900,0.54460498046875,-0.017026538124680517,0.01407946552184876,-0.02114934910915326
1783169537867675100,0.554675048828125,-0.030493337941169738,0.002819181039999239,0.012140912374434992
1783169537877743900,0.564743896484375,-0.008047697377204895,0.010418687125132418,0.006685921204439364
1783169537887814100,0.574814208984375,0.012003741526603698,0.0011083448343910277,0.006164329032727982
1783169537897883000,0.5848828125,0.0013794716596603393,0.00040437954980880017,-0.0006575825593201443
1783169537907952000,0.5949521484375,-0.009095160603523254,-0.002456457807985134,0.006856050182023318
1783169537918022000,0.60502197265625,-0.009394435811042785,0.006058162961225025,0.01282740250947536
1783169537928091100,0.615091064453125,-0.023012042275071143,0.006139480002550408,0.02976458527520299
1783169537938159900,0.625159912109375,-0.0031119945406913757,-0.013275195367680862,0.015838164023752325
1783169537948230100,0.635230224609375,0.00032967034578323365,0.002998387231538072,0.020000306938192807
1783169537958299000,0.645298828125,-0.014634090030193328,-0.017360140293487345,0.020569366397266274
1783169537968368000,0.6553681640625,-0.006105331137776375,-0.003004296382516622,0.0024682498521229716
1783169537978438000,0.66543798828125,-0.009546996024250983,-0.004493452661461197,0.007285766244132537
1783169537988507100,0.675507080078125,-0.0052080900371074676,0.013998084548441692,0.004978823883965379
1783169537998575900,0.685575927734375,-0.003712298521399498,0.005941313382214866,-0.0082994230989716
1783169538008646000,0.69564599609375,-0.012990998998284339,-0.00043082916531711815,0.007936881388403708
1783169538018715000,0.70571484375,-0.03783084122240543,0.0007744641043711453,0.003965971888368949
1783169538028784000,0.7157841796875,-0.006407528954744338,0.013851200590771622,-0.0028124247889383695
1783169538038854000,0.72585400390625,-0.014038462224602699,0.003251978400116786,0.0035877325684588865
1783169538048923100,0.735923095703125,-0.007005494847893715,-0.008686616335250436,0.010619795762869762
1783169538058991900,0.745991943359375,-0.008203180199861526,-0.001143941304157488,-0.009553549062623642
1783169538069062000,0.756061767578125,0.00017594108879566192,-0.009435270144930109,0.0034279069308249745
1783169538079131000,0.766130859375,-0.009849778363108635,0.003607143946760334,0.015290223842876729
1783169538089200000,0.7762001953125,-0.014786650243401527,0.002709341157088056,0.014849820848327361
1783169538099270000,0.786269775390625,-0.0010205752193927764,0.01391255712287966,0.01513911351794959
1783169538109339000,0.7963388671875,-0.006407528954744338,0.0013484646000433713,0.01508676113456022
1783169538119407900,0.806407958984375,-0.02346621578335762,-0.0011936393645126371,0.012695173839887138
1783169538129478000,0.816477783203125,0.008706453546881675,-0.0009055751041742041,0.003914758866006741
1783169538139547000,0.826546875,-0.006557166558504105,-0.017493123589968306,0.01706667833882384
1783169538149617000,0.836616943359375,-0.02241875255703926,-0.012985290776705368,0.015633126987924333
1783169538159686100,0.84668603515625,-0.024812369695305824,-0.0028980503959115593,0.018308218815538565
1783169538169755000,0.8567548828125,0.0006260229438543319,0.009829018702870234,0.009508178975869669
1783169538179825200,0.8668251953125,-0.005956862577795982,0.0005140915685566142,0.00920632136890781
1783169538189894000,0.876893798828125,-0.022266776865720747,0.008673053600778803,-0.011592562343250028
1783169538199963100,0.886963134765625,-0.001917231798171997,0.009186766143422573,0.02054685773793608
1783169538210033000,0.897032958984375,-0.013739187017083166,0.009083675661706364,0.0031314972505380864
1783169538220102100,0.90710205078125,-0.0008703530937433242,0.011290076831914483,-0.0013049462603696156
1783169538230171000,0.9171708984375,-0.006707388684153557,0.00996693846937269,-0.001933717142092064
1783169538240241200,0.9272412109375,-0.00012274959683418273,0.006844408834935166,0.0016073872475768438
1783169538250310000,0.937309814453125,0.0031681086421012877,0.008881339756329543,-0.019123124528152402
1783169538260379100,0.947379150390625,-0.015088263538479803,0.015547926072636619,0.01761567225740291
1783169538270449000,0.957448974609375,-0.002966448590159416,0.0058105996746337036,0.007476356912788469
1783169538280518100,0.96751806640625,-0.013141805645823477,-0.006535548381740227,0.01401227062070975
1783169538290587000,0.9775869140625,-0.01239361762702465,0.024040878432733004,0.0274787690430996
1783169538300657200,0.9876572265625,-0.017930208966135976,-0.0003611294965492561,0.010636146392760564
1783169538310726000,0.997725830078125,-0.017630933758616445,0.009515897633088752,0.01915827119005844
1783169538320795100,1.007795166015625,-0.021971008789539337,0.012632477017352357,0.01217870536786504
1783169538330865000,1.017864990234375,-0.011047463715076446,0.006796998629788868,0.0031243882313836363
1783169538340934100,1.02793408203125,-0.008802315136790275,0.0008739241571631282,-0.006056022378132911
1783169538351003000,1.0380029296875,-0.0005722469300031662,0.014525227394816464,0.01109931263332255
1783169538361073000,1.048072998046875,-0.012242810979485512,0.0007069015937624499,0.0026833561908162665
1783169538371142000,1.058141845703125,-0.014488544079661369,0.0026977374842623246,0.005216622686723712
1783169538381211100,1.068211181640625,-0.01748129615485668,0.01344250562544912,-0.01286080245557823
1783169538391281000,1.078281005859375,-0.006110591834783553,0.012183573339227587,0.003880170468171127
1783169538401350100,1.08835009765625,-0.006409867042303085,0.019208699902775697,0.0004557683853956405
1783169538411419000,1.0984189453125,0.009750994163751601,0.02069830370629206,0.016408160772809058
1783169538421489000,1.108489013671875,0.0018202011644840239,-0.00007912051766179501,-0.007756188775965711
1783169538431558000,1.118557861328125,-0.02601239313483238,0.01821073837399017,0.0012473811290343291
1783169538441627100,1.128627197265625,-0.019129063361883164,0.01463925482907798,0.006504437432490522
1783169538451697000,1.13869677734375,-0.013591302978992461,0.008012959423963911,-0.007206138836394529
1783169538461766000,1.148765869140625,-0.002668342426419258,0.00860520796237979,0.0011806360357557422
1783169538471836200,1.158836181640625,-0.009551672199368475,0.005573808943806216,-0.0057003807658096775
1783169538481905000,1.16890478515625,-0.016436171016097068,-0.0074212862742831925,-0.004459826669783797
1783169538491974000,1.178973876953125,-0.007608721438050269,-0.0028146646950859577,0.020108151226839982
1783169538502044000,1.1890439453125,-0.012844868525862693,0.000017736586090177297,0.021155826799001076
1783169538512113200,1.199113037109375,-0.01898059480190277,0.0017588948647258803,0.024307187518989665
1783169538522182000,1.209181884765625,-0.013443418940901756,-0.00046131106854882086,0.010312204818153986
1783169538532252200,1.219252197265625,-0.014790741896629333,-0.006374211207032203,0.011434666084509808
1783169538542321000,1.22932080078125,0.00047229368686676023,0.002596076341229491,0.013636947060382225
1783169538552390100,1.23939013671875,-0.008655600142478943,0.005898661550576798,-0.011341205372597323
1783169538562460000,1.2494599609375,-0.011498714613914489,-0.006125332746189087,0.0116100454843021
1783169538572529000,1.25952880859375,-0.016138649374246597,0.001824498313688673,0.015399363897822331
1783169538582597600,1.26959765625,-0.02317161675095558,-0.0003150435988092795,-0.010509862265124684
1783169538592668000,1.27966796875,-0.0037181437402963634,0.00906763784235809,-0.014717951796698617
1783169538602736600,1.289736572265625,-0.008806991311907767,0.011511866356432436,0.008611699351959396
1783169538612806000,1.299805908203125,-0.012100187638401984,0.013590814355225302,0.024572478258516637
1783169538622875600,1.309875732421875,-0.024969606083631513,-0.0051829190632328385,0.004392098620749311
1783169538632945000,1.31994482421875,-0.024371640190482137,0.008221592639386653,-0.01120145555025665
1783169538643013600,1.330013671875,-0.02003156515955925,0.011856268480466678,0.00844744755931315
1783169538653084000,1.340083984375,-0.028859599259495734,0.00578335090810433,-0.0053186948217102325
1783169538663152600,1.350152587890625,-0.026015315744280815,0.007273625998478382,0.0027200121065077834
1783169538673222000,1.360221923828125,-0.0168880064368248,0.005444419543631374,-0.0016354066240193788
1783169538683291600,1.370291748046875,-0.005514964029192924,0.011835385522642173,-0.0019173882034432608
1783169538693361000,1.38036083984375,-0.012248656198382377,0.004147972825192846,0.0036794591226556803
1783169538703429600,1.3904296875,-0.006561842733621597,-0.005467795852641575,0.01402127705271705
1783169538713500000,1.4005,-0.025864509096741675,0.0008957752293674275,0.012678006934310542
1783169538723568600,1.410568603515625,-0.012248071676492691,0.004036214979831129,0.0021550694168370682
1783169538733638000,1.420637939453125,-0.0091062665194273,0.01094887587854173,0.017349565242190147
1783169538743707600,1.430707763671875,-0.00820785637497902,0.005604176682606339,0.008261868709203554
1783169538753777000,1.44077685546875,-0.013595394632220268,0.02142505621141754,-0.0018808418856060597
1783169538763845600,1.450845703125,-0.02002981159389019,0.00868002219768241,0.0045716221894079355
1783169538773915600,1.46091552734375,-0.009855039060115813,-0.0018878687063697724,-0.009875194790511159
1783169538783984600,1.470984619140625,-0.0022241057902574538,0.005116105471295304,-0.01528906164896325
1783169538794054000,1.481053955078125,-0.0020762217521667478,0.0026626342048402876,0.003212526597495889
1783169538804124000,1.4911240234375,-0.010156067833304404,-0.003590859532239847,0.014042789056559557
1783169538814193000,1.50119287109375,-0.015991934379935263,0.0019068474014755337,0.018118308566894847
1783169538824261600,1.51126171875,-0.00372223539352417,0.0018113968035206197,-0.010715628811670467
1783169538834331600,1.52133154296875,-0.015096446844935416,-0.0058537401300389315,-0.008725249578896909
1783169538844401000,1.53140087890625,-0.01928688427209854,-0.004707985894707963,0.003064111694798339
1783169538854470700,1.541470703125,-0.01404839909672737,0.007384269598987884,0.005831865083304
1783169538864540000,1.551539794921875,-0.019735797083377835,-0.004209612485091201,0.008045302207430358
1783169538874608600,1.561608642578125,-0.004323123896121979,0.009646903601614758,0.021036285222694278
1783169538884679000,1.571678955078125,-0.01794014583826065,-0.0003405707657104358,0.019013076865975743
1783169538894747600,1.58174755859375,0.005254267266392707,-0.0183359995883191,0.029556152989179827
1783169538904817000,1.59181689453125,-0.0022281974434852597,0.007821386941196396,0.009843983376561663
1783169538914886700,1.60188671875,-0.016144494593143464,0.017718876903550698,0.02713735802717274
1783169538924956000,1.611955810546875,-0.01928688427209854,0.009397773979022167,0.02168811846124008
1783169538935024600,1.622024658203125,-0.0028267478585243225,0.014536767135560512,0.016992492007894905
1783169538945095000,1.632094970703125,-0.00941080242395401,0.0017486520319245755,0.0037609896514681166
1783169538955163600,1.64216357421875,-0.022280805391073227,-0.010406718126125633,0.005644915118371136
1783169538965233000,1.65223291015625,-0.011805588605999945,0.0010166251300601288,0.008142686750856228
1783169538975302700,1.662302734375,-0.014947978284955024,0.015462467145733535,0.012158775683044222
1783169538985372000,1.672371826171875,-0.01644435432255268,0.01608116073308047,-0.0017881300923647358
1783169538995440600,1.682440673828125,-0.01794014583826065,0.012535195221914909,0.010108337967749684
1783169539005511000,1.692510986328125,-0.02332709957361221,-0.0021138412156607956,0.00014791942906449549
1783169539015579600,1.70257958984375,-0.013450433203577994,0.012586601182166486,0.004253955091960961
1783169539025649000,1.71264892578125,-0.00985913071334362,0.00014486096394248306,0.0019748973942070734
1783169539035718700,1.72271875,-0.009559270983934403,0.006771457763155922,0.003227216134907212
1783169539045788000,1.732787841796875,-0.009559855505824088,-0.0052888545225840055,0.006377753729344113
1783169539055856600,1.742856689453125,-0.01958615947961807,0.008096084829885513,-0.0018826548167795408
1783169539065927000,1.752927001953125,-0.014350012391805647,0.0018836172229377553,-0.009906440453790128
1783169539075995600,1.76299560546875,-0.022280220869183538,-0.0028537454633042214,0.007057790149067295
1783169539086065000,1.77306494140625,-0.007015431720018387,0.007942478870484047,0.01584599912869162
1783169539096134700,1.783134765625,-0.013898176971077918,-0.015143359293160028,0.03518532254914753
1783169539106204000,1.793203857421875,-0.01015840592086315,0.004588912392570637,0.009715102008107351
1783169539116272600,1.803272705078125,-0.026319851648807523,0.011813360920501873,0.0034182212204497773
1783169539126342700,1.8133427734375,-0.01509761588871479,-0.007372054004808887,-0.0009450702892791013
1783169539136411600,1.82341162109375,-0.015397475618124008,0.010079399567632935,0.00488878696335596
1783169539146481000,1.83348095703125,-0.028265725019574164,0.002045707882894203,0.010898180021054577
1783169539156551000,1.843551025390625,-0.027816812208294867,-0.004087040984770283,0.009367085438169305
1783169539166620000,1.853619873046875,-0.006418634870648384,0.0040198620666516945,0.014957321502035483
1783169539176688600,1.863688720703125,-0.011805588605999945,-0.004534748219652101,0.0037041951300459913
1783169539186758700,1.873758544921875,0.003906359788775444,-0.0019483758551068603,-0.001161990700790193
1783169539196828000,1.883827880859375,-0.0038753801286220547,0.020734137638076206,0.003413596419326495
1783169539206897000,1.89389697265625,-0.009861468800902365,0.008535074468771926,-0.00947216352263931
1783169539216967000,1.903966796875,-0.007616320222616196,0.0043991756738629186,0.008687358404055703
1783169539227035600,1.91403564453125,0.013034838140010833,0.009053408387606031,0.021865260559855958
1783169539237105000,1.92410498046875,-0.004921089789271354,0.01084979485166259,0.03002933944190154
1783169539247174700,1.934174560546875,-0.0008820435315370559,-0.010621013897354713,0.007511167931265663
1783169539257244000,1.944243896484375,-0.012105448335409164,-0.010853260883805341,0.000622634543525055
1783169539267312600,1.954312744140625,0.0006137479841709137,0.015404526413418352,0.008118276112095918
1783169539277383000,1.9643828125,-0.010908932027220725,0.00960113279770594,0.00889865279237856
1783169539287451600,1.97445166015625,-0.002979308071732521,-0.008045295357564463,0.0029549225491471588
1783169539297522000,1.98452197265625,-0.012706336838006973,-0.011151937869703397,0.0021501044057076796
1783169539307590700,1.994590576171875,-0.0035778584867715833,-0.00926253935995046,0.001835493490094086
1783169539317660000,2.004659912109375,-0.011059154152870178,0.004395997336087748,0.014835569702333304
1783169539327729700,2.014729736328125,-0.005672200417518616,-0.000976589947193861,-0.010952185505413216
1783169539337799000,2.024798828125,0.0010609072297811507,-0.0013499487376539036,-0.005345440123096341
1783169539347867600,2.03486767578125,-0.025874445968866348,0.004234669294534251,-0.005159595269861165
1783169539357938000,2.04493798828125,-0.015550035831332206,-0.0029630738895619286,-0.001839025737607153
1783169539368006700,2.055006591796875,-0.014054244315624236,0.0041265373115194955,0.00396249443978304
1783169539378076000,2.065075927734375,-0.0064221420019865035,0.008400091011449694,0.0007306181127787568
1783169539388145700,2.075145751953125,-0.015251345145702361,-0.007839972910657524,-0.007712867940758587
1783169539398215000,2.08521484375,-0.005974398234486579,0.011220299531333147,0.0028857012293476143
1783169539408283600,2.09528369140625,-0.0062730889201164245,0.003009721476305276,-0.005978125703177647
1783169539418354000,2.10535400390625,-0.020339023673534393,0.011552974684955551,0.003230743815843016
1783169539428422700,2.115422607421875,-0.008965981265902518,0.019375032913009634,-0.012956625229580094
1783169539438492000,2.125491943359375,-0.020787351962924003,0.0026318600406637412,-0.004113246288395021
1783169539448561700,2.135561767578125,-0.017494740158319474,-0.003857319315546192,0.00008048706590780057
1783169539458631000,2.145630859375,-0.013753215542435646,0.013702942093345336,0.005226955709425965
1783169539468699600,2.15569970703125,-0.005523147335648537,0.014043321062810718,0.014656985706946579
1783169539478769700,2.165769775390625,-0.010012275448441505,-0.010519224890158512,0.008102045354858273
1783169539488838700,2.175838623046875,-0.017044658303260803,-0.0014827767705079167,0.006426416318304836
1783169539498908000,2.185907958984375,-0.022432196560502052,0.003535969273536466,0.02559658344213385
1783169539508978000,2.19597802734375,-0.016747136661410332,0.006086078448034823,-0.011075520765781402
1783169539519046700,2.206046630859375,-0.006720832687616348,-0.00013197408290579915,-0.012293066162266768
1783169539529115600,2.21611572265625,-0.019888357296586036,-0.003950778885814361,0.006632938633387675
1783169539539185700,2.226185546875,-0.012705752316117286,0.0054494884443935,-0.0016312670217303092
1783169539549254700,2.236254638671875,-0.00881517461836338,-0.006885179236740805,0.012321340125391725
1783169539559324000,2.246323974609375,-0.018241759133338926,-0.0011451925463275983,-0.006266978839738294
1783169539569394000,2.256393798828125,-0.0145002345174551,0.003692689638631418,0.007486093997157877
1783169539579462700,2.266462646484375,-0.013752046498656273,0.002080564567144029,-0.0018773050715157294
1783169539589531600,2.27653173828125,-0.011956395253539085,0.001981332843215205,0.011290463849337538
1783169539599601700,2.2866015625,-0.010910101071000098,0.01144632683955133,0.007780542332510231
1783169539609670700,2.296670654296875,-0.018541618862748147,0.004396175432601012,-0.01374210163502139
1783169539619739600,2.30673974609375,-0.008516483932733535,0.002743754883343354,0.011105861105117945
1783169539629809700,2.3168095703125,-0.01839198125898838,0.0015737612558994441,-0.0009519806623226031
1783169539639878700,2.326878662109375,-0.0031289456754922864,0.0044176337791606785,0.0031658150786708574
1783169539649947600,2.33694775390625,-0.01225683950483799,-0.00440711238514632,0.015756936030683573
1783169539660017700,2.347017578125,-0.009414894077181815,0.009307862639287486,0.01890252802194445
1783169539670086700,2.357086669921875,0.00644669192135334,0.01128029522341676,0.011385116437915711
1783169539680155600,2.36715576171875,-0.006571779605746269,0.0004654529541265219,0.014478688264283118
1783169539690226000,2.377225830078125,-0.003879471781849861,0.009905887897941282,-0.010560312669083942
1783169539700294700,2.387294677734375,-0.01495206993818283,-0.005317674191691912,-0.00904175334078609
1783169539710365000,2.397364990234375,-0.014354104045033454,-0.003990476141963154,0.00565637151908013
1783169539720433700,2.40743359375,0.0016571195572614669,0.002624375420529395,0.0007089462787320371
1783169539730503000,2.4175029296875,-0.012857728007435797,0.00656252315363381,0.016994248998496914
1783169539740572700,2.42757275390625,-0.01330547177493572,0.006211558858072385,0.014123360604146727
1783169539750642000,2.437641845703125,-0.01973871969282627,0.009048723079334013,0.0033550186494830992
1783169539760710700,2.447710693359375,-0.020037410378456116,-0.001335029729735106,0.003294003469025483
1783169539770781000,2.457781005859375,-0.010909516549110413,0.017396814475487916,0.007224948568141553
1783169539780849700,2.467849609375,-0.02198211470544338,-0.00989374993557576,0.013362671580089953
1783169539790919000,2.4779189453125,-0.01988601920902729,-0.0027703734622104093,0.0037031128512346185
1783169539800988700,2.48798876953125,-0.029763270100951193,0.0017094160000793634,0.00776929941928829
1783169539811058000,2.498057861328125,-0.03155775230228901,0.008018192721507512,-0.0061687723124050535
1783169539821126700,2.508126708984375,-0.00746492905318737,0.004048238777765073,0.002716554065875243
1783169539831196700,2.51819677734375,-0.0016290625065565108,0.0041630242638522755,0.002552131026581628
1783169539841265700,2.528265625,-0.014347674304246901,-0.0011059702142141759,0.006140081649104831
1783169539851335000,2.5383349609375,-0.012851298266649245,-0.003940956178121268,-0.003943399296957068
1783169539861404700,2.54840478515625,-0.027066286101937294,-0.0037196918099885803,-0.004759392996603855
1783169539871473700,2.5584736328125,-0.011503390789031983,0.012652172665088437,-0.007364494036149699
1783169539881542700,2.568542724609375,-0.02706687062382698,0.0015727611754788086,0.03187038474830333
1783169539891612700,2.57861279296875,-0.02736731487512588,-0.00120180897123646,0.021526612323173322
1783169539901681700,2.588681640625,-0.012255085939168929,0.004945438779238611,0.02702407494500512
1783169539911751000,2.5987509765625,-0.010159574964642525,0.0018726300380425527,0.011567859443544876
1783169539921820700,2.608820556640625,-0.017491233026981353,-0.001035288731334731,-0.0009102626957348547
1783169539931889700,2.6188896484375,-0.023626374781131745,0.004767876555514521,-0.008642135589418466
1783169539941958700,2.628958740234375,-0.01838847412765026,-0.006665289408364332,0.008433252353890565
1783169539952028700,2.639028564453125,-0.007764204260706901,0.0017314451687969266,0.02602025449759094
1783169539962097700,2.64909765625,-0.004471007934212685,-0.008744940660055727,0.011536719953187275
1783169539972166700,2.659166748046875,-0.008210778984427451,-0.00895373370568268,-0.005982071225933032
1783169539982236700,2.669236572265625,-0.011803835040330887,0.02018538118151482,0.0026373193837818686
1783169539992305700,2.6793056640625,-0.013300795599818229,-0.010046072686766274,0.015486519308178685
1783169540002374700,2.689374755859375,-0.007165653845667839,0.008343013362237252,0.011057746505428803
1783169540012444700,2.699444580078125,-0.011503975310921668,0.007544972019456327,0.0016667013780039268
1783169540022513700,2.709513671875,-0.01629237863123417,-0.0013583877724362536,-0.00025557991297682747
1783169540032582700,2.719582763671875,-0.022875264152884482,0.010635864406614563,0.007843227738601853
1783169540042653000,2.72965283203125,-0.011653028392791748,0.005001813175552525,0.0017036221551767084
1783169540052721700,2.7397216796875,-0.010007014751434326,0.004843887234060093,0.009855136099882656
1783169540062792000,2.7497919921875,-0.009109189128875731,0.014588524722261353,-0.009357120024936738
1783169540072860700,2.759860595703125,-0.02003273420333862,0.0008299891173141077,0.0019928771505365148
1783169540082930000,2.769929931640625,-0.004918751701712608,-0.0012267424830934032,0.010992973031883593
1783169540092999700,2.779999755859375,-0.013299042034149168,0.025527308465051465,-0.00346423747788649
1783169540103069000,2.79006884765625,-0.023324761486053464,0.01159252124405466,-0.00784103007329395
1783169540113137700,2.8001376953125,-0.018987024542689322,0.009424383424734697,0.010468266454478726
1783169540123207700,2.810207763671875,0.005702595555782318,-0.002622553356201388,0.004118127959489356
1783169540133276700,2.820276611328125,0.002409399229288101,-0.008764353180001488,0.0063566458675893955
1783169540143346000,2.830345947265625,-0.001931260323524475,0.0062150431565241885,0.010720150864805328
1783169540153415700,2.840415771484375,-0.021832477101683616,-0.0006389280912000685,0.005395011460932437
1783169540163485000,2.85048486328125,-0.005371756166219711,-0.0025178326064022255,-0.004617088174284436
1783169540173553700,2.8605537109375,-0.007018354329466819,0.009743879436375573,-0.005502409366652136
1783169540183623700,2.870623779296875,-0.009264087429642676,0.013962679874920286,0.0022468690362700727
1783169540193692700,2.880692626953125,-0.03036298955976963,0.01359681940432638,0.01918181874571601
1783169540203762000,2.890761962890625,-0.013752046498656273,-0.004994725847640075,0.0057880738906387705
1783169540213831700,2.900831787109375,-0.0107575408577919,-0.002181225629756227,0.002143909843650181
1783169540223900700,2.910900634765625,-0.02198036113977432,0.00755213697918225,0.012309705628169467
1783169540233969700,2.9209697265625,-0.01958615947961807,-0.0021546344503527506,0.0025789082940085787
1783169540244039700,2.931039794921875,-0.014198621222376823,0.016588452668092214,0.0024563356520433443
1783169540254108700,2.941108642578125,-0.007912672820687293,0.0007127605123911052,0.008084480015415466
1783169540264178000,2.951177978515625,-0.01988426564335823,0.006670262411003932,0.006732261688861763
1783169540274247700,2.96124755859375,-0.014347674304246901,-0.005723172552930191,0.013126025838090572
1783169540284316700,2.971316650390625,-0.011954057165980338,0.012124627959914504,0.00311297863809159
1783169540294385700,2.9813857421875,-0.015844634863734244,0.002933190207951702,-0.011132331270223948
1783169540304455700,2.99145556640625,-0.011803835040330887,-0.004022359984414652,-0.004887621344509535
1783169540314524700,3.001524658203125,-0.008061725902557373,-0.007412331216270104,0.007734909667563624
1783169540324593700,3.01159375,-0.007762450695037841,-0.01180256096527446,-0.007069720332167344
1783169540334663700,3.02166357421875,-0.0047702831417322155,-0.004845631666574627,-0.0067993469921464565
1783169540344732700,3.031732666015625,-0.0254191034168005,0.01507672836431302,-0.0005321923391835298
1783169540354803000,3.041802978515625,-0.021378888115286827,0.00605589793890249,0.002242431464814581
1783169540364871700,3.05187158203125,-0.015244330883026121,0.005559835217380896,0.015569549957622074
1783169540374940700,3.061940673828125,-0.011802081474661826,0.006896157288481481,-0.004358079903427278
1783169540385010700,3.0720107421875,-0.014345920738577841,-0.0028359951774822546,0.014366434945288347
1783169540395079700,3.08207958984375,-0.02377367429733276,-0.0006803926127497106,0.004367273565102368
1783169540405148700,3.092148681640625,-0.018237082958221434,-0.0036483116407878694,0.007132696857559494
1783169540415219000,3.102218994140625,-0.017788170146942138,-0.012294349370477721,0.010690147310541942
1783169540425287700,3.11228759765625,-0.007163315758109092,0.004558677084511146,0.006133385905192699
1783169540435356700,3.122356689453125,-0.007611644047498703,-0.0026650636239442973,0.009390836206515086
1783169540445426700,3.1324267578125,-0.001477086815237999,0.00021382998034823685,0.007470435203722445
1783169540455496000,3.142495849609375,-0.022427520385384557,0.002298545566224493,0.013999836972466437
1783169540465564700,3.152564697265625,0.001963409027457237,-0.0032493754510767754,-0.009447615886561107
1783169540475634700,3.162634765625,-0.013449264159798621,0.0063911486421013245,0.024856361817370633
1783169540485703700,3.17270361328125,-0.01360007080733776,0.010718729517632163,0.023370132714451756
1783169540495773000,3.18277294921875,-0.013300211077928543,-0.01524648630749434,0.016004202489752786
1783169540505842700,3.1928427734375,-0.023024901756644248,0.00786696594886016,0.01710711195555632
1783169540515912000,3.202911865234375,-0.014047230052947998,0.0002232371295103803,0.003756595462496625
1783169540525980700,3.212980712890625,-0.014197452178597449,-0.010144866019277833,0.013979221159411826
1783169540536050700,3.22305078125,-0.005667524242401123,-0.006846157834026962,0.002437871838524006
1783169540546119700,3.23311962890625,-0.016890344524383545,-0.01504711411076132,0.011701591658696997
1783169540556189000,3.24318896484375,-0.010157236877083777,0.0049932097439887,0.0064623290235467715
1783169540566258700,3.2532587890625,-0.01629062506556511,0.003949861003784462,-0.003455518740246771
1783169540576328000,3.263327880859375,-0.02033084036707878,-0.0028427171792136502,-0.009919016807572916
1783169540586397000,3.27339697265625,0.0015150807380676268,0.0014696935266489163,0.0139819154399971
1783169540596467000,3.283467041015625,-0.006267243701219559,-0.010682187766372225,0.009876901548763271
1783169540606536000,3.293535888671875,-0.005967968493700027,-0.0005255719437962398,0.007548770270094974
1783169540616605000,3.30360498046875,-0.001031096613407135,-0.006427000840194523,0.0013783185989013872
1783169540626675000,3.313675048828125,-0.014198036700487136,0.004774402194423601,0.020823930246802045
1783169540636744000,3.323743896484375,-0.023326515051722525,0.0106409196076449,-0.0019850135044893248
1783169540646813000,3.33381298828125,-0.010607318732142448,-0.009225782979559153,0.0008937636520829983
1783169540656883000,3.343883056640625,-0.004772036707401275,0.004945534677361138,0.014548988437961088
1783169540666952000,3.353951904296875,-0.013599486285448074,0.004737988307327032,0.005046348720311652
1783169540677022000,3.36402197265625,-0.029161797076463696,-0.000935983942169696,0.00814950465071015
1783169540687091000,3.374091064453125,-0.01883680241703987,0.008991165939508937,-0.0016833008863555731
1783169540697160000,3.384159912109375,0.013934417328238486,0.00395887086072471,-0.014265075196354882
1783169540707230200,3.394230224609375,0.004057750958204269,0.005564104967121966,0.002850709831068525
1783169540717299000,3.404298828125,-0.021081366473436353,0.000655349503038451,0.00433657589109498
1783169540727368000,3.414367919921875,-0.01300093587040901,0.013366125054145231,-0.00654165503718541
1783169540737438000,3.42443798828125,-0.023624621215462684,0.007180545454123057,0.006539868363831192
1783169540747507200,3.434507080078125,-0.011354337707161903,-0.0042803989992477,-0.0011333297202421816
1783169540757576000,3.444575927734375,-0.01973404351770878,0.005705130006163381,0.0012889552484382874
1783169540767646000,3.45464599609375,-0.010008768317103385,0.007226608518976718,0.007206813548185163
1783169540777715000,3.46471484375,-0.01300093587040901,0.006067181951319799,0.016444258424430154
1783169540787784200,3.4747841796875,-0.012401800933480263,0.008578128159209154,0.014401011926680803
1783169540797854000,3.48485400390625,-0.0017775310665369033,0.008115753078158013,0.009992043227877001
1783169540807923200,3.494923095703125,-0.026018822875618932,0.012416710808244533,0.0211899893635069
1783169540817992000,3.504991943359375,-0.011954057165980338,0.0039154929433017965,0.004777372752933297
1783169540828062000,3.51506201171875,-0.00507072739303112,-0.009876990597019903,-0.0014287416033970657
1783169540838131000,3.525130859375,-0.005519640204310417,-0.01212066873742733,0.02035342665822245
1783169540848200200,3.5352001953125,-0.026169629523158072,0.011790587399690411,-0.0004937588832923211
1783169540858270000,3.54527001953125,-0.003127192109823227,0.018585695466492323,-0.004624205184949096
1783169540868339000,3.5553388671875,-0.01165595100224018,-0.003013685265369713,-0.003128630581661127
1783169540878408000,3.565407958984375,-0.015545359656214713,0.003513013089634478,-0.008881181067769648
1783169540888478000,3.57547802734375,-0.017191373297572136,0.004780795402592047,-0.002671586979564745
1783169540898547000,3.585546875,-0.017790508234500884,-0.0026361023909412325,0.0032655982168042098
1783169540908616200,3.5956162109375,-0.010607318732142448,0.0023645417408319188,0.013633573501429054
1783169540918686000,3.60568603515625,-0.0067167410343885415,0.0020659423867473376,0.01962058690560516
1783169540928755000,3.6157548828125,-0.028414193579554554,0.0005416143297217786,0.007210952008829917
1783169540938825000,3.625824951171875,-0.021232173120975494,0.0006133872245671227,0.01200904218116193
1783169540948894000,3.63589404296875,-0.01809095248579979,0.014729768957011401,0.012319029437296557
1783169540958963000,3.645962890625,-0.01764203967452049,0.008963268719008191,0.004758634944778168
1783169540969033000,3.656032958984375,-0.019287468793988228,0.008732277541304938,0.009530389666033442
1783169540979102000,3.66610205078125,-0.006418050348758697,0.004007555140927434,0.004056474599859211
1783169540989171000,3.6761708984375,-0.013899930536746978,0.00460530640494544,0.017766066771344048
1783169540999241000,3.686240966796875,-0.01225333237349987,-0.008049857368250377,0.017274264666409
1783169541009310000,3.69631005859375,-0.0037239889591932293,0.00794914150671102,0.005695036728767445
1783169541019379000,3.70637890625,-0.013300795599818229,-0.007744462947198189,0.008394729849742724
1783169541029449000,3.716448974609375,-0.004173486292362213,0.007447420795960351,0.0032734595795627683
1783169541039518000,3.72651806640625,-0.0203343474984169,0.0007118608966702595,0.0003831198493600823
1783169541049587000,3.7365869140625,-0.01614507911503315,0.0038748549722367894,0.003657170800678432
1783169541059657200,3.7466572265625,-0.010758125379681587,0.01269565104721114,-0.004188970414217328
1783169541069726000,3.756725830078125,0.005252513700723648,-0.003334747613011859,0.013765551009267801
1783169541079795000,3.766794921875,-0.011508066964149475,-0.007529797283210791,0.0272897058945382
1783169541089865000,3.776864990234375,-0.016296470284461975,0.005970767805562354,-0.00016415132794645615
1783169541099934200,3.786934326171875,-0.004924596920609474,-0.00010446958804968744,0.004663478891056729
1783169541110003000,3.7970029296875,-0.023928572598099707,0.010518928062636405,-0.007314612171059707
1783169541120073000,3.807072998046875,-0.01076104798913002,0.011671746792993508,0.0017176506805291864
1783169541130142000,3.817141845703125,-0.0025309797823429105,0.011933507568296045,0.003537865544745
1783169541140211000,3.8272109375,-0.01390460671186447,0.004199447284103371,0.022635587345226665
1783169541150281000,3.837281005859375,-0.013006781089305877,0.009393618393712676,-0.001158224416192388
1783169541160350200,3.84735009765625,-0.004029109385609626,-0.005335890268394723,-0.007005859032430453
1783169541170420000,3.857419921875,-0.013008534654974936,0.00327758776540868,0.007951870036625768
1783169541180489000,3.867489013671875,-0.015702011522650716,0.003407141562364995,0.011262968487635952
1783169541190558000,3.877557861328125,-0.006274842485785484,-0.01410199244748801,-0.006757551393745234
1783169541200628000,3.8876279296875,-0.017646131327748296,0.00012938940017484128,-0.006219179333880311
1783169541210697000,3.897697021484375,-0.014504910692572592,0.001344340980774723,0.003922023148788139
1783169541220766000,3.907765869140625,-0.013158172258734703,-0.00244387232104782,-0.003303986006922787
1783169541230836000,3.9178359375,-0.011362521013617516,0.011029064975283108,0.008916076567926211
1783169541240905000,3.927905029296875,-0.02078793648481369,0.004627773965080268,0.0021431563584017564
1783169541250974000,3.937973876953125,-0.018990531674027443,-0.0027320964115904642,0.007979182735236828
1783169541261044000,3.9480439453125,-0.009713000240921973,0.007764026164193637,-0.004471079857804579
1783169541271113000,3.958113037109375,-0.01914133832156658,0.01563147160366643,0.0051970754527486855
1783169541281182000,3.968181884765625,-0.0034288054049015043,0.011221870433911681,-0.002065373847878072
1783169541291252000,3.978251953125,-0.00986263784468174,0.007812089389888569,-0.0025583107472630217
1783169541301321000,3.988321044921875,-0.007467851662635803,0.006279920519702136,0.012415211829257896
1783169541311390000,3.998389892578125,0.002257423537969589,0.003907551665441133,0.01746699363486841
1783169541321460000,4.0084599609375,-0.01584872651696205,-0.00016856606651563196,0.015294434227113378
1783169541331529000,4.018529052734375,-0.020336685585975647,-0.005433761152299121,0.004899366581230424
1783169541341598000,4.028597900390625,-0.015399229183793066,-0.0164556246352382,0.009721827434771693
1783169541351668000,4.03866796875,-0.002530395260453224,-0.01480735510471277,0.01795710496457177
1783169541361737000,4.048737060546875,-0.018989947152137754,-0.002989359108288772,0.0007231437674432527
1783169541371806000,4.058805908203125,-0.01674538309574127,0.0019392427005805073,-0.006422823563643033
1783169541381876000,4.0688759765625,0.0048012628018856045,-0.006467556612868793,0.009550597912067313
1783169541391945000,4.078945068359375,-0.008666706058382987,0.005084235328575596,0.007086226225685095
1783169541402015000,4.089014892578125,0.000761047500371933,0.006363872476108372,0.009803468703082761
1783169541412084000,4.099083984375,-0.008664952492713927,0.019961221603397278,0.013128319401521002
1783169541422153000,4.109153076171875,-0.018690671944618223,0.009056541059608571,0.008550683029857464
1783169541432223000,4.119222900390625,0.0016600421667098998,-0.002446046011825092,-0.008445312684442615
1783169541442292000,4.1292919921875,-0.013752631020545959,-0.0014961066095391287,-0.009216782255773432
1783169541452361000,4.13936083984375,0.000014613047242164611,-0.012227467279881239,0.000004662475385703146
1783169541462431000,4.149430908203125,-0.005821253499388695,-0.0005663286458700895,-0.003660207574558444
1783169541472500000,4.1595,-0.012106617379188537,-0.004047973916283808,0.0028264293397602157
1783169541482569000,4.16956884765625,-0.011506897920370102,-0.007214817616483196,-0.002648425299685914
1783169541492639000,4.179638916015625,-0.014499649995565413,0.00633132191337645,0.010396876010479172
1783169541502708000,4.1897080078125,0.004353519034385681,0.008289187116036191,-0.006982229278382147
1783169541512777200,4.199777099609375,-0.012704583272337913,0.010841803341452032,0.0033112023406429215
1783169541522847000,4.209846923828125,-0.010309797090291976,0.01662622739521321,-0.009796909956488525
1783169541532916000,4.219916015625,-0.012853051832318305,-0.003016813370794989,-0.007543931981484638
1783169541542985000,4.22998486328125,-0.01853869625329971,0.0015485400496749206,0.01340892301625572
1783169541553055000,4.240054931640625,-0.012402969977259636,-0.004846471916791052,0.0043715444564877545
1783169541563124000,4.2501240234375,0.008546879070997238,0.008109579065698199,0.006063096006313572
1783169541573193000,4.26019287109375,0.0034592005431652068,-0.000439108369895257,-0.007399173765530577
1783169541583263500,4.270263427734375,-0.015395137530565262,0.008538353271246888,-0.001364745589630911
1783169541593332500,4.28033251953125,-0.012851882788538932,0.00693469920058269,-0.0020992373015731574
1783169541603401500,4.2904013671875,-0.004023848688602448,0.003131991582526825,0.011102307166362879
1783169541613471500,4.300471435546875,-0.016742460486292837,-0.001427470953273587,0.012464521730545675
1783169541623540500,4.31054052734375,-0.02497252869307995,-0.002915764149115421,0.012581840525369625
1783169541633610500,4.320610595703125,-0.019585574957728384,0.009943699157680385,-0.007537381226400611
1783169541643679500,4.330679443359375,-0.006268412744998932,0.019985365097387693,0.015302729414711938
1783169541653748500,4.34074853515625,-0.011954641687870025,0.004250725380191579,0.004012144551076926
1783169541663818500,4.350818603515625,-0.02856441570520401,-0.009342710190382785,0.010708135058381594
1783169541673887500,4.360887451171875,-0.021980945661664007,0.006299579634820111,0.010953052013448905
1783169541683956500,4.37095654296875,-0.005073065480589866,-0.005336241894843988,-0.004925910953216953
1783169541694026500,4.381026611328125,-0.017792261800169944,-0.0017460490828845648,0.02162343289430719
1783169541704095500,4.391095458984375,-0.02347790622115135,0.0005659359202254563,0.01141362900470267
1783169541714164500,4.40116455078125,-0.017342179945111273,0.006224701467435806,-0.005281825418531661
1783169541724234500,4.411234375,-0.01659340740442276,0.0003972465561237186,0.002688712785945972
1783169541734303500,4.421303466796875,-0.00402326416671276,-0.002048059670184739,0.010790583469223928
1783169541744372500,4.43137255859375,-0.019436521875858304,0.013323199227871372,-0.011883027481584577
1783169541754442500,4.4414423828125,-0.01629413219690323,-0.002120846345182508,-0.008841136751748854
1783169541764511500,4.451511474609375,-0.0020773907959461212,0.0013531362085836007,0.012415050857409368
1783169541774580500,4.46158056640625,-0.012550269493460655,-0.005618721231189556,-0.000741456883912906
1783169541784650500,4.471650390625,-0.017488894939422607,-0.005049730270775035,0.00001258548693731427
1783169541794719500,4.481719482421875,-0.003872457519173622,0.013745986650628038,-0.005001251486549153
1783169541804788500,4.49178857421875,-0.005817746368050575,-0.006619532304187305,0.00202987555952277
1783169541814858500,4.5018583984375,-0.010905424895882606,-0.014903719018120317,-0.007441553885821486
1783169541824927500,4.511927490234375,-0.005668108764290809,-0.02132256851790007,0.010796377314126583
1783169541834996500,4.52199658203125,-0.01120411558151245,0.015391918093594721,0.01325607282539131
1783169541845066500,4.53206640625,-0.018237082958221434,0.0037309301566332575,0.011781197375193005
1783169541855135500,4.542135498046875,0.0013654431343078613,-0.010357166196242905,0.00722395876251976
1783169541865205500,4.55220556640625,-0.013897007927298545,0.00017615115134976802,0.0015380038142844567
1783169541875274500,4.5622744140625,-0.02377250525355339,0.017760496688727288,0.003299475370231084
1783169541885343500,4.572343505859375,-0.014195114091038703,-0.004751893535093404,0.0004991565776173956
1783169541895413500,4.58241357421875,-0.022275544694066046,-0.0012711889795958995,-0.0020267451708088626
1783169541905482500,4.592482421875,-0.014941548544168471,0.012124427030514926,0.007848824079037876
1783169541915551500,4.602551513671875,-0.00940378816127777,0.0007283234077040105,0.0223341338803526
1783169541925621500,4.61262158203125,-0.00910451295375824,0.008382925247517414,0.008410579297778895
1783169541935690500,4.6226904296875,-0.005512625941634178,0.021155550521076656,0.004128982713643927
1783169541945759500,4.632759521484375,0.008853753063082694,0.01364792853705585,0.017180445478181355
1783169541955829500,4.64282958984375,-0.009551672199368475,0.0070956756156869225,0.0010685733713617083
1783169541965898500,4.6528984375,-0.00042260932624340057,-0.0009812524225795642,0.007909609788988019
1783169541975967500,4.662967529296875,-0.004162964898347854,0.00505560288913548,0.007493602591822855
1783169541986037500,4.67303759765625,-0.01942716952562332,0.0037576948659727347,0.016390820337296462
1783169541996106500,4.6831064453125,-0.009102174866199493,0.012072568979114294,0.014071832487953361
1783169542006175500,4.693175537109375,-0.011197685840725898,0.010639102109894156,0.010205965681414818
1783169542016245200,4.703245361328125,-0.026311083820462225,0.008238849734864197,0.009018386164930416
1783169542026314500,4.713314453125,-0.01897884123623371,0.00608762651772704,0.02371298676879378
1783169542036383500,4.723383544921875,-0.008205518287420272,0.01078925573688466,0.008581546242290641
1783169542046453500,4.73345361328125,-0.0035667525708675384,0.022794641231303103,0.011805886575166367
1783169542056522500,4.7435224609375,-0.01778232492804527,-0.0010139308494748547,0.00518654264229117
1783169542066591500,4.753591552734375,-0.032894553864002224,-0.010566155604692175,-0.005978646292985649
1783169542076661500,4.76366162109375,-0.020773323437571524,0.004042813683976419,-0.010918554947158553
1783169542086730500,4.77373046875,-0.023914544072747228,0.011464218689268455,-0.0024603005827520973
1783169542096800500,4.783800537109375,-0.001619125634431839,0.007670169301703572,0.019698629711032842
1783169542106869500,4.793869384765625,-0.022268530431389807,-0.01229317119354382,0.001279325478634564
1783169542116938500,4.8039384765625,-0.02346387769579887,0.002143327605049126,0.006080645362735958
1783169542127008500,4.814008544921875,-0.02316343344449997,-0.006132109546847641,0.0033207853030296974
1783169542137077500,4.824077392578125,-0.013735679885745047,-0.006925246385647915,0.008587123174773295
1783169542147146500,4.834146484375,-0.009245382729172706,0.007135665132780559,0.001406688460148871
1783169542157216500,4.844216552734375,-0.0038572599500417705,0.013336460568243638,0.014549857229285408
1783169542167285500,4.854285400390625,-0.01433247673511505,-0.002366509935632348,0.007735890340030891
1783169542177354500,4.8643544921875,-0.016277765583992004,0.006890786993619985,0.0033448979726235844
1783169542187424500,4.874424560546875,-0.018521160596609115,0.007960868477122858,0.018217259446321986
1783169542197493500,4.884493408203125,-0.0005646481454372405,0.0021306096873711794,-0.00893383712854702
1783169542207562500,4.8945625,-0.020167174237966535,-0.011230218137148766,-0.0030513994853419717
1783169542217632500,4.904632568359375,-0.02435761166512966,0.010570585184637457,0.013830033363512484
1783169542227701500,4.914701416015625,-0.012685878571867941,-0.00130852531529963,0.00450451291159261
1783169542237770500,4.9247705078125,-0.011189502534270286,-0.007288522173510864,0.0102975974791334
1783169542247840500,4.934840576171875,-0.010291092389822006,0.014063286138605326,0.010990519638248951
1783169542257909500,4.944909423828125,-0.011487024176120757,0.0019190081967273725,0.009461037057137581
1783169542267978500,4.954978515625,0.0009334814578294754,0.005788579639070667,0.007812636237515835
1783169542278048500,4.965048583984375,0.001533200916647911,0.014295638156333007,0.009148845285829156
1783169542288117500,4.975117431640625,-0.003853752818703651,0.014929374049184842,-0.0012440555191424209
1783169542298187500,4.9851875,-0.006996727019548415,0.0021217413943260908,0.005863440681790234
1783169542308256500,4.995256591796875,-0.005349544334411621,0.009602895496529526,0.0076228116121958
1783169542318325500,5.005325439453125,-0.01567395447194576,-0.0005373856791760772,0.010411811001418391
1783169542328395300,5.015395263671875,-0.024801263779401776,0.005669277808070182,0.01610779986154521
1783169542338464500,5.025464599609375,-0.029590251621603964,0.0101136808631476,0.008303699698578566
1783169542348533500,5.035533447265625,-0.004900047001242637,-0.002886528921476565,0.008427283837407594
1783169542358603500,5.045603515625,-0.0043014965862035745,0.004736193642462604,0.005769596377387643
1783169542368672300,5.05567236328125,-0.004300912064313888,0.008894226637366227,0.002174428279499989
1783169542378741500,5.065741455078125,0.0051256724506616586,-0.00395274708061479,0.00916575760472333
1783169542388811500,5.0758115234375,-0.0194148945659399,-0.006485060303518548,0.02834332486700732
1783169542398880500,5.085880615234375,-0.00834112736582756,0.001648995616310276,0.00841996133076609
1783169542408949200,5.09594921875,-0.02255553067922592,0.012712588482280261,-0.0024983995368587785
1783169542419019500,5.10601953125,-0.012080898416042327,-0.0005217679849360137,-0.0083860179619689
1783169542429088500,5.116088623046875,-0.0029518355429172514,0.007693244216614403,0.010051361924881349
1783169542439157500,5.126157470703125,-0.008338204756379128,0.011409072702238336,0.010224089284928049
1783169542449227500,5.1362275390625,-0.015221534529328345,-0.008723372715641744,0.0016166653909313025
1783169542459296500,5.146296630859375,-0.008487257838249206,0.008401433585165067,0.023770961750438434
1783169542469365500,5.156365478515625,-0.018962474623322487,0.0011205649951472878,0.00023607834477443247
1783169542479435500,5.166435546875,-0.005794950014352798,0.009277353336592204,0.008878079220163636
1783169542489504500,5.17650439453125,-0.0020528408765792846,-0.0003684816859429702,0.01372728651673533
1783169542499574500,5.186574462890625,-0.008787117567658424,0.006445335647906177,-0.002160525335022248
1783169542509643500,5.1966435546875,-0.017915011397004126,-0.008454935604380443,-0.0005213821091572754
1783169542519712500,5.20671240234375,-0.009534721064567566,0.004784083338221535,-0.00026930247765267264
1783169542529782500,5.216782470703125,-0.015969722548127174,0.00520820876811631,0.00032840426223701793
1783169542539851500,5.2268515625,0.010815408524870871,0.01070861911557149,-0.004231541189108975
1783169542549920500,5.23692041015625,-0.0019043723165988922,-0.001084516434231773,-0.0040930311924952546
1783169542559990500,5.246990478515625,-0.015222703573107718,0.007941898915171624,0.005874415308597963
1783169542570059500,5.2570595703125,-0.00938859059214592,0.019894873802340587,0.01579811171622132
1783169542580127700,5.267127685546875,-0.002804536026716232,0.018052474505780264,0.006280664871796034
1783169542590197800,5.27719775390625,-0.009986556485295296,0.00192277105639223,0.0033542012321529906
1783169542600266800,5.287266845703125,-0.007592354825139046,0.0005856178682297468,-0.0004711531841952819
1783169542610335700,5.297335693359375,-0.018964812710881233,0.009926031070249154,0.0018537460994150024
1783169542620405800,5.30740576171875,-0.009238368466496467,0.011226149316807276,-0.00463721422192757
1783169542630474800,5.317474853515625,0.0024327801048755642,0.007985071336617694,0.009612558374018408
1783169542640543700,5.327543701171875,-0.02764496277272701,0.020087930422718635,0.01003174733389169
1783169542650613800,5.33761376953125,-0.0224082311630249,0.0008388391440501436,0.009107715266064041
1783169542660682800,5.347682861328125,-0.00355447761118412,0.00916782854751218,0.006943924828298622
1783169542670751700,5.357751708984375,-0.025851065093278884,0.0013124891043640673,0.013291635045828297
1783169542680821800,5.36782177734375,-0.015676292559504507,-0.0069579887446248895,0.012582516378804575
1783169542690890800,5.377890869140625,-0.009990063616633415,-0.0007016865625279024,0.0024657428012054877
1783169542700959700,5.387959716796875,-0.013282090899348259,0.011690985783003269,0.0035323845103848723
1783169542711029800,5.39802978515625,-0.008942600390315055,0.004944370200159028,0.007422474726015934
1783169542721098800,5.4080986328125,-0.008643325182795524,0.008129484775988384,0.0054698862033837935
1783169542731167700,5.418167724609375,0.0015314473509788513,0.007581111911917105,0.00564916203522589
1783169542741237800,5.42823779296875,0.004524199426174163,0.014714649019693023,0.004242617422260809
1783169542751306800,5.438306640625,-0.020615502527356146,-0.0038968658746453,0.006369924332626397
1783169542761376800,5.448376708984375,-0.01836976942718029,0.004268448266549967,-0.002477773449005326
1783169542771445800,5.45844580078125,-0.01298223116993904,0.005397634959570132,-0.01419432521481649
1783169542781515000,5.468514892578125,-0.002658405554294586,0.00031055008678231385,-0.006515025041875196
1783169542791584800,5.478584716796875,-0.002806289592385292,-0.004572057155892252,-0.001322598364780424
1783169542801653800,5.48865380859375,-0.012381927189230918,0.015074732770049013,0.001327982359373709
1783169542811722800,5.49872265625,-0.004002221378684044,0.00507335774153471,0.01984175994219258
1783169542821792800,5.508792724609375,-0.001309329032897949,0.00003130845371633768,0.002723613994324114
1783169542831861800,5.51886181640625,-0.003852583774924278,0.0013650915078585967,0.001321517227613367
1783169542841930800,5.5289306640625,-0.014925181931257248,0.008865128407045267,-0.006779675318941008
1783169542852000800,5.539000732421875,-0.01058452237844467,0.015499798914860002,0.0013649830516485962
1783169542862069800,5.54906982421875,-0.003999298769235611,0.0034998202479211613,-0.0021774125377414747
1783169542872138800,5.559138671875,-0.012228782454133034,0.024366201396961697,0.006249521956505486
1783169542882208800,5.569208740234375,-0.003848492121696472,0.029808287419611588,-0.008394012897112406
1783169542892277800,5.57927783203125,-0.0048965398699045174,0.001927355899964459,0.021708809622819535
1783169542902346800,5.5893466796875,-0.012827332869172096,-0.005147149063530377,0.00877224879208952
1783169542912416800,5.599416748046875,-0.004597849184274673,-0.001081931751500815,0.004881591179233509
1783169542922485800,5.60948583984375,-0.02016132901906967,0.005243965068086981,0.005307329752546502
1783169542932555800,5.6195556640625,-0.012828501912951469,0.0006678025592351331,0.002986824657907709
1783169542942624800,5.629624755859375,0.005278817185759544,0.008779532482824287,0.005781307364779059
1783169542952693800,5.63969384765625,-0.00788929194509983,0.013313773812400176,0.004956069771107286
1783169542962763800,5.649763671875,-0.006842413240671158,0.019551133832009508,0.004142980414599879
1783169542972832800,5.659832763671875,-0.005644727888703346,0.010493542459630406,0.0030187027921376283
1783169542982901800,5.66990185546875,-0.008338204756379128,0.0038184851425001397,-0.007297355075582163
1783169542992971800,5.6799716796875,-0.003251110750436783,0.00718966490891762,-0.0005421200781536754
1783169543003040800,5.690040771484375,0.0015367080479860304,-0.0065405122512253,0.007694173515087459
1783169543013109800,5.70010986328125,-0.0209095170378685,0.01794289035119582,0.005322859540174249
1783169543023179800,5.7101796875,-0.02285480588674545,0.020583773948531597,0.000339133435516851
1783169543033248800,5.720248779296875,-0.021060323685407636,0.006496581777953542,0.0039798656996921635
1783169543043317800,5.73031787109375,-0.020462357792258263,-0.0030665251308819278,0.007010393643652787
1783169543053387800,5.7403876953125,-0.023753216031193732,0.0008428120662691071,-0.008368991478643147
1783169543063456800,5.750456787109375,-0.02510053898692131,0.01233455808327999,0.014837493373005417
1783169543073525800,5.76052587890625,-0.011783376774191856,0.012527053014654666,0.003342029020457994
1783169543083595800,5.770595703125,0.007221183425188064,0.01426526585095562,-0.0023255363211384973
1783169543093664800,5.780664794921875,-0.011484101566672324,0.010906155548244714,0.020315724996337665
1783169543103733800,5.790733642578125,-0.00684533585011959,0.007612164637306705,0.026087449398729947
1783169543113803800,5.8008037109375,-0.014176993912458418,0.025453042219020425,0.009236298665351932
1783169543123872800,5.810872802734375,-0.02435118192434311,0.014706639243173412,-0.00884210372448433
1783169543133942800,5.82094287109375,-0.020908932515978813,0.013498555794777347,0.00871281478900928
1783169543144011800,5.83101171875,-0.00878770208954811,0.022370616266108118,-0.013456965692352968
1783169543154080800,5.841080810546875,-0.0038490766435861586,0.01720505019647535,0.01820298660908593
1783169543164150800,5.85115087890625,-0.010282909083366393,-0.003172538222046569,0.009076965076418128
1783169543174219800,5.8612197265625,-0.004895955348014831,-0.003014484416390769,0.004364040428400039
1783169543184288800,5.871288818359375,-0.01028349360525608,-0.004574600739427842,-0.0021297717204433863
1783169543194358800,5.88135888671875,-0.0060930561780929565,0.0068061957163969055,-0.005619987314735772
1783169543204427800,5.891427734375,-0.018963059145212173,0.017777950147027148,-0.004660778902249876
1783169543214496800,5.901496826171875,-0.008040683114528656,-0.003170318865496665,-0.006453117095562629
1783169543224566800,5.91156689453125,-0.013128361642360687,0.008179347233125009,0.006629406385874608
1783169543234635800,5.9216357421875,-0.000709025052189827,0.006602380239986814,0.008966900289576732
1783169543244704800,5.931704833984375,-0.0113327103972435,0.007293234881246462,0.012447013473318657
1783169543254774800,5.94177490234375,-0.01926291887462139,0.006579981178510934,-0.003184157877892721
1783169543264843800,5.95184375,-0.020160744497179982,-0.01030055890448857,0.0039005716520943675
1783169543274912800,5.961912841796875,-0.019711247164011,0.00206771421872545,0.007504589776718057
1783169543284982800,5.971982666015625,-0.014923428365588187,-0.0009439754523802548,0.007357010557659668
1783169543295051800,5.9820517578125,-0.0004085808008909225,0.008201161772711203,0.020106450176809447
1783169543305120800,5.992120849609375,-0.0060953942656517025,-0.0005474823815049603,-0.007524294557608663
1783169543315190800,6.002190673828125,-0.007291910573840141,0.011480964328092522,0.008570038467587438
1783169543325259800,6.012259765625,-0.011931260812282561,0.01285876462047454,0.015570570587640395
1783169543335328800,6.022328857421875,-0.01911386579275131,0.009441572021553293,-0.0021238648527534677
1783169543345398800,6.032398681640625,-0.0029535891085863113,0.013286881238897331,0.001628119508351665
1783169543355467800,6.0424677734375,-0.007292495095729827,0.000037185638654045756,-0.012338457940262742
1783169543365537800,6.052537841796875,-0.013276245680451392,0.014426895286608487,0.005882055192359257
1783169543375606800,6.062606689453125,-0.012078560328483581,0.011265453847311436,0.01894159394878661
1783169543385675800,6.07267578125,-0.007888707423210144,0.009604411600180902,-0.0009934006597439292
1783169543395745800,6.082745849609375,-0.019110943183302878,0.018210240617068482,-0.010594189822510815
1783169543405814800,6.092814697265625,-0.0273404268682003,0.006566838569147512,0.003386321394977858
1783169543415883800,6.1028837890625,-0.018213117560744285,-0.00334530097306706,0.01916554574763868
1783169543425953800,6.112953857421875,-0.022253917384147642,0.012863011537329293,-0.004381985935400007
1783169543436022800,6.123022705078125,-0.011478840869665146,0.013896825264208018,0.0032041012624453285
1783169543446091800,6.133091796875,-0.01177753155529499,0.011898070928733795,0.00144443236287334
1783169543456161800,6.143161865234375,-0.02060615017712116,0.015035757033107802,-0.012134274854382966
1783169543466230800,6.153230712890625,-0.019260580787062644,0.020978682417096568,0.0033139525617996695
1783169543476299800,6.1632998046875,-0.00699088180065155,0.013634306437079793,0.003947591414884664
1783169543486369800,6.173369873046875,-0.01357435184419155,0.019957230414869263,0.01687243098342442
1783169543496438800,6.183438720703125,-0.02928630023896694,0.0017581322463229299,-0.008273869674251182
1783169543506507800,6.1935078125,-0.019259996265172958,-0.0068721233923453836,0.019340253860573284
1783169543516577800,6.203577880859375,-0.01626782871186733,0.011309964275895618,0.015529910925333387
1783169543526646800,6.213646728515625,-0.00654079994559288,0.0063311072842450805,0.00280362727784086
1783169543536715800,6.2237158203125,-0.017913842353224754,0.005014503693766892,-0.014717505413771141
1783169543546785800,6.233785888671875,-0.015969138026237485,0.00974657828353811,0.0009373504904157016
1783169543556854800,6.243854736328125,-0.013874211573600768,0.011818945844494737,0.006463058534264564
1783169543566924800,6.2539248046875,-0.011331541353464127,-0.0036908858406124634,0.029847934443410485
1783169543576993800,6.263993896484375,-0.0019049568384885787,0.013233406619145535,-0.0013261226207832806
1783169543587063000,6.27406298828125,-0.008638649007678032,0.0026174250899348404,-0.0014475422019895631
1783169543597132800,6.2841328125,-0.01761690523326397,0.0022962622775929047,-0.00011043924617697485
1783169543607202000,6.2942021484375,-0.018663783937692642,0.012720100501878186,0.003361879931821022
1783169543617271000,6.30427099609375,-0.029586159968376158,0.0005800923097413033,-0.0007847777191200293
1783169543627341000,6.314341064453125,-0.022554361635446548,0.017504558299435303,0.01286459728128393
1783169543637410000,6.32441015625,-0.0005564648389816284,0.0007063125052955002,0.009761883167235646
1783169543647479000,6.33447900390625,-0.016416297271847725,0.007213881468144245,0.0031675047122582327
1783169543657548800,6.344548828125,-0.02674129193127155,-0.0004006806222256273,-0.0076544500011194025
1783169543667618000,6.3546181640625,-0.017612813580036163,-0.0017065755890216677,-0.010853308832866605
1783169543677687000,6.36468701171875,-0.022849545189738273,0.020368199535668825,-0.0025916456196398937
1783169543687757000,6.374757080078125,-0.013573182800412177,0.015155118229612708,-0.011077504943602252
1783169543697825800,6.38482568359375,-0.01641571274995804,-0.006205074318358674,-0.008184408142376923
1783169543707895000,6.39489501953125,0.006778115832805633,-0.0029358205564552916,-0.005781617892032955
1783169543717964800,6.40496484375,-0.026291210076212882,0.015036907810578122,0.021885463097668253
1783169543728034000,6.415033935546875,-0.012823825737833977,0.012932715772674418,0.008207495615375227
1783169543738103800,6.425103759765625,-0.0032476036190986633,0.0037777147406945003,-0.002614910047507146
1783169543748173000,6.435173095703125,-0.021803251007199285,0.010228813409106806,0.01172760288278805
1783169543758241800,6.44524169921875,-0.004894201782345771,0.004413080901629291,-0.01475923365515773
1783169543768312000,6.45531201171875,-0.015668693774938583,0.004447056236467324,-0.0007089325790002476
1783169543778380800,6.465380859375,-0.03018354133963585,0.0068920976012945175,0.008571411865699338
1783169543788450000,6.475449951171875,-0.009832827228307724,-0.00028620566339232023,0.009599959187349304
1783169543798520000,6.48552001953125,-0.0016027590215206145,-0.008109547099657357,0.005200197849952383
1783169543808589000,6.495589111328125,-0.01088087497651577,0.010077700800891034,0.00660166214571218
1783169543818657800,6.50565771484375,-0.018811667975783347,0.011606622834643348,0.002342493164160987
1783169543828728000,6.51572802734375,-0.014470423901081084,0.006259996543102897,-0.008612918628088663
1783169543838797000,6.525797119140625,-0.010130933392047882,0.017046658464102072,-0.010883524732972728
1783169543848866000,6.535865966796875,-0.006091302612423896,0.0030780922710895537,-0.009067599026451352
1783169543858936000,6.54593603515625,-0.026143910560011863,0.015359381230594589,-0.000429271962470375
1783169543869005000,6.556005126953125,-0.0182125330388546,0.00018216076702810824,0.007757242513669189
1783169543879074000,6.566073974609375,-0.0027998598515987395,-0.0062715408504242075,0.011422178778983652
1783169543889144000,6.57614404296875,-0.01851180824637413,0.0012319575143279508,0.0029895783039974046
1783169543899213000,6.586213134765625,-0.020458266139030457,0.008556857042317277,0.0072884525332076
1783169543909282000,6.596281982421875,0.0021364275068044662,0.000048465084494091565,0.015336691049818182
1783169543919352000,6.60635205078125,-0.018065818044543266,0.004892311219358817,0.0017600342257530427
1783169543929421000,6.616421142578125,-0.022703999239206313,0.00009906276057008653,-0.003305078560533002
1783169543939491000,6.626490966796875,-0.019561609560251235,0.0005911571264499799,-0.006178131512505933
1783169543949559800,6.636559814453125,-0.017615736189484595,-0.0017910481352359055,0.024450048322090877
1783169543959629000,6.646629150390625,-0.019113281270861624,0.019320562779414466,0.012930230412998935
1783169543969698800,6.65669873046875,-0.022405893075466154,-0.002034885094780475,0.0040470263515017
1783169543979768000,6.66676806640625,-0.029438275930285453,0.013165853241691365,-0.00289838946427335
1783169543989837000,6.676837158203125,-0.00025952771902084347,0.013569342308933845,0.004468108157650567
1783169543999907000,6.686906982421875,-0.0013075754672288893,0.007758760900609195,0.0046288847849995365
1783169544009975800,6.696975830078125,-0.004151858982443809,-0.006343249813187867,0.00027105376003310085
1783169544020045000,6.707045166015625,-0.008491934013366698,0.010768975567258894,-0.0032877883573703
1783169544030114800,6.71711474609375,-0.016871055302023888,-0.0015801590306451544,0.004956911162968026
1783169544040184000,6.72718408203125,-0.01926642600595951,-0.009924186173034831,0.01716543285542866
1783169544050252800,6.737252685546875,0.008567337337136268,0.004908399271056987,-0.008712173184903804
1783169544060323000,6.747322998046875,-0.011333294919133185,0.014140283197839743,-0.0096874068586505
1783169544070391800,6.757391845703125,-0.011333294919133185,0.009678686979366465,0.005905964649264933
1783169544080461000,6.7674609375,-0.01821545564830303,0.003060113656404428,0.0050201548331300725
1783169544090530800,6.77753076171875,-0.0011555997759103774,0.004959937662049196,0.008077872178115649
1783169544100600000,6.78760009765625,-0.013873627051711081,0.0010324574534315615,-0.001643466632888885
1783169544110670000,6.797670166015625,-0.011030512580275535,-0.0023909593902993946,0.017989464872702955
1783169544120739000,6.807739013671875,0.0013905775755643844,-0.012121056896494701,0.006623843153123744
1783169544130807800,6.817807861328125,-0.004894786304235458,0.008765974314929917,0.007525130241247825
1783169544140878000,6.827878173828125,-0.01282499478161335,0.0031048980796243996,-0.0013693076003168244
1783169544150947000,6.837947021484375,-0.009981880310177802,-0.004502001294097863,0.0002993996467499528
1783169544161016000,6.84801611328125,-0.014469839379191397,0.004821351175266318,-0.00517583401860902
1783169544171086000,6.858086181640625,-0.0140209265679121,0.009159284481452777,0.0006025655780977103
1783169544181155000,6.868155029296875,-0.015817162334918974,0.004975893283006735,0.0024658832234563306
1783169544191224000,6.87822412109375,-0.024497312396764753,0.012136263598781078,0.0005546724574058316
1783169544201293800,6.8882939453125,-0.006689268505573272,0.010565835944283753,0.008971434900799068
1783169544211363000,6.898363037109375,-0.0011515081226825714,0.000688607885246165,-0.012145048551791115
1783169544221432000,6.90843212890625,-0.015965630894899368,0.015661049324600024,0.001492822098842589
1783169544231502000,6.918502197265625,-0.014320201775431632,0.00598038045070134,0.01115725450728205
1783169544241571000,6.928571044921875,-0.0027969372421503065,0.01774919897657819,0.006293351965077454
1783169544251640000,6.93864013671875,-0.007286649876832961,0.007124618582380935,0.0050146772237028925
1783169544261709800,6.948709716796875,-0.023148820397257804,0.002972782432823442,0.011614128004375378
1783169544271779000,6.958779052734375,-0.021353169152140618,0.001646694061369635,0.002202203344058944
1783169544281848000,6.96884814453125,-0.01791091974377632,0.00466926588609349,-0.000687183113140054
1783169544291918000,6.97891796875,-0.006537877336144447,-0.01470700913593173,0.00042210586110013535
1783169544301986800,6.98898681640625,-0.009680267015099525,0.0030997195810079574,0.0035479257144557775
1783169544312057000,6.99905712890625,-0.024045476976037025,0.005617031597602181,0.0011303819946188013
1783169544322125800,7.009125732421875,-0.00609071809053421,0.0083740478213178,-0.012945716818142682
1783169544332195000,7.019195068359375,-0.0014531214177608488,0.005535869819903746,-0.005691689427633537
1783169544342264800,7.029264892578125,-0.020307459491491316,0.012195145046012476,-0.0028990972837491425
1783169544352334000,7.039333984375,-0.005193476989865302,0.004482570507843047,0.0010072351055627222
1783169544362402800,7.04940283203125,-0.018959552013874052,-0.001575108396192081,-0.009320580556965432
1783169544372473000,7.05947314453125,-0.020454759007692336,0.004678590836864896,-0.022223394381720572
1783169544382541800,7.069541748046875,-0.019856208592653274,-0.0024620746980188414,-0.014374137619487009
1783169544392611000,7.079611083984375,-0.017611060014367103,0.013809466641163453,0.001676188442268176
1783169544402680800,7.089680908203125,0.00019698387682437897,0.011551435748417861,0.018623623173951637
1783169544412750000,7.09975,-0.031525603598356246,-0.006630565154855139,0.01983701070183888
1783169544422818800,7.10981884765625,-0.017609890970587728,0.0027540342487627637,-0.001140736708563054
1783169544432889000,7.11988916015625,0.00019639935493469238,0.010325003792578355,-0.002220566692878492
1783169544442957800,7.129957763671875,-0.004592588487267494,0.003065410886029713,0.006818467251147376
1783169544453027000,7.140027099609375,-0.03107844435274601,0.019208352842903696,0.0004934118234203197
1783169544463097000,7.15009716796875,-0.015067220750451088,0.011811607354832812,0.00692664832486771
1783169544473166000,7.160166015625,-0.010579846203327178,0.008214103452675044,-0.002391753974743187
1783169544483234800,7.17023486328125,-0.011776947033405304,0.006705566619825549,0.016244994683907134
1783169544493305000,7.18030517578125,-0.013722235882282257,0.01984132155077532,0.007566748884780099
1783169544503374000,7.1903740234375,-0.014022095611691474,0.006617719373013824,-0.0029054904919175897
1783169544513443800,7.20044384765625,-0.0035480478703975677,0.019302954057487658,0.0042687964680662846
1783169544523513000,7.21051318359375,-0.00504325486421585,0.001975304961227812,0.0072408174241310914
1783169544533582000,7.22058203125,-0.011776362511515617,0.008499738293909468,0.004897623290360207
1783169544543652000,7.230652099609375,-0.013721066838502884,0.0072341753375018015,0.0007475270067399832
1783169544553720800,7.240720947265625,-0.011476502782106398,0.001551522024627775,0.009260724145488347
1783169544563790000,7.2507900390625,-0.008634557354450225,0.003808073346340097,-0.0038617534620687365
1783169544573859800,7.26085986328125,-0.0022007249146699906,0.012203611480258404,-0.0201243511596811
1783169544583928600,7.270928466796875,0.013510638958215714,0.0009297505642054602,-0.0011013967870851047
1783169544593997600,7.28099755859375,-0.003998129725456237,0.012175106904981657,0.0013109627259138504
1783169544604067600,7.291067626953125,-0.008636895442008971,0.0018640174733242018,0.00007239509099745191
1783169544614136600,7.301136474609375,0.010965046128630638,0.007290476668579503,0.00808307807619567
1783169544624205600,7.31120556640625,-0.007141688448190689,0.02059903088316787,-0.0013044884609989822
1783169544634275300,7.321275390625,-0.017018354818224907,0.011977497407072223,0.0032339929355657657
1783169544644344600,7.331344482421875,-0.0179161804407835,0.010470152450888417,0.017268342957342975
1783169544654413600,7.34141357421875,-0.02405132219493389,0.011278696921374648,0.009362615900672971
1783169544664483600,7.351483642578125,-0.02001052237153053,0.005186841753101907,0.015938463185116415
1783169544674552300,7.36155224609375,-0.01028349360525608,0.0007713222992140799,-0.004749306569073815
1783169544684621600,7.37162158203125,-0.019711831685900686,-0.005832363981870003,-0.008255101041699527
1783169544694691300,7.38169140625,-0.0041489363729953765,0.00236363755853381,0.003750028724392177
1783169544704760600,7.391760498046875,-0.009236614900827408,-0.011280875178729183,-0.0037128008448984473
1783169544714830300,7.401830322265625,-0.00878770208954811,0.005949702184647321,0.007130889634607592
1783169544724899600,7.411899658203125,-0.019860884767770766,-0.0006394075818127021,0.0025458028921391813
1783169544734968300,7.42196826171875,-0.006245031869411468,-0.007405636614002287,0.004365650146885309
1783169544745038600,7.43203857421875,-0.014924012887477875,0.022047188431443647,0.01092077087877551
1783169544755107300,7.442107421875,-0.006993219888210296,0.026716906408686188,0.011089300412673036
1783169544765176600,7.452176513671875,-0.0007084405303001403,0.0011846614736132322,-0.006121519654174335
1783169544775246300,7.462246337890625,-0.003251110750436783,0.01625763611141592,0.002536778193822829
1783169544785315600,7.472315673828125,-0.012228782454133034,0.012110046878713183,0.0011374293649801983
1783169544795384300,7.48238427734375,-0.022255670949816703,-0.00015005772886797784,0.017647375720052514
1783169544805454600,7.49245458984375,-0.002353285127878189,0.009309346776898018,0.007695524080313043
1783169544815523300,7.5025234375,-0.005345452681183815,-0.0004704624893842265,-0.010124889527040068
1783169544825592600,7.512592529296875,-0.011778700599074363,0.0107912102319533,0.0042481452640378845
1783169544835662300,7.522662353515625,-0.017165654334425927,0.009601338293682784,-0.010324721806432353
1783169544845731600,7.532731689453125,-0.015668109253048897,0.030959530680812895,0.003292579838563688
1783169544855800300,7.54280029296875,-0.029583821880817412,-0.0020272634773282334,0.009704976764670572
1783169544865870600,7.55287060546875,0.0006418050348758697,-0.004301692949025891,0.0008394944478874094
1783169544875939300,7.562939208984375,-0.011628478473424912,0.004122893182863481,-0.0015470581953530198
1783169544886009300,7.57300927734375,-0.012375497448444366,-0.00011649338598363101,-0.0013400015907303895
1783169544896078600,7.58307861328125,-0.019110358661413192,0.004705465144058689,0.00045074857533909375
1783169544906147600,7.593147705078125,-0.018960136535763738,0.005542505056667141,-0.0018760150134388821
1783169544916217600,7.603217529296875,-0.008635141876339911,-0.0022449796149274334,0.010945136993407503
1783169544926286300,7.613286376953125,-0.013872458007931708,0.005687338621146045,-0.0014275177606905343
1783169544936355600,7.62335546875,-0.01177753155529499,0.007447101135551929,0.012641881883225868
1783169544946425300,7.63342529296875,-0.023299042522907255,0.0007264282781397923,0.012568027770792831
1783169544956494600,7.64349462890625,-0.019109189617633818,0.01159628867029678,0.0015830793568049556
1783169544966563600,7.6535634765625,-0.002050502789020538,0.013399680263875051,0.015557014703034656
1783169544976633600,7.663633544921875,0.017552023303508756,0.00995523889842443,0.00445287405590061
1783169544986702300,7.673702392578125,-0.008035422417521476,0.0025989898175233974,-0.00157339592971839
1783169544996771600,7.683771484375,-0.011626140385866164,-0.0027360099683050067,0.019951026719657237
1783169545006841300,7.69384130859375,-0.023148235875368118,0.02011762230808381,-0.0029080980075348634
1783169545016910600,7.70391064453125,-0.012224690800905227,0.006996498690685257,0.007886251746286871
1783169545026979300,7.713979248046875,-0.004442950883507728,0.015502360764704643,0.006806487977341748
1783169545037049600,7.724049560546875,-0.013123100945353508,0.0005204710769932717,-0.001327671832119813
1783169545047118300,7.734118408203125,-0.020006430718302725,0.020068458537268453,-0.002450784977379953
1783169545057188600,7.744188720703125,-0.02045592805147171,0.0019099481074372306,-0.00910479493990424
1783169545067257300,7.75425732421875,0.010220949763059616,-0.003444761025859043,0.017106429252255473
1783169545077326600,7.76432666015625,-0.01701250959932804,0.0033902452264912425,0.00933417754076654
1783169545087396400,7.774396240234375,-0.02015431475639343,0.009545228758850135,0.002327907516382402
1783169545097465600,7.784465576171875,-0.007733809122443198,0.00444523873871658,-0.006861379377689445
1783169545107534300,7.794534423828125,-0.017011340555548666,0.0066453745649196205,0.016599451269430573
1783169545117604600,7.8046044921875,-0.02718669761121273,-0.0009857642009155824,0.0009977126503246836
1783169545127673300,7.81467333984375,-0.018058803781867028,0.014687359153968281,0.007950365349417551
1783169545137742600,7.82474267578125,-0.02778524802625179,0.017624809978506528,-0.0028975332310365045
1783169545147812400,7.834812255859375,-0.014766776499152182,0.02152861248401459,0.0008797648094827308
1783169545157881600,7.844881591796875,-0.007286065354943275,0.007348088607331738,-0.0058205650878662704
1783169545167950300,7.854950439453125,0.000346036958694458,0.0006187803523149342,0.010247676798136672
1783169545178020400,7.865020263671875,-0.0150666362285614,0.0012825734567129983,-0.009700173867034027
1783169545188089300,7.87508935546875,-0.012073884153366089,0.013542942925775422,0.011367988348245853
1783169545198158600,7.88515869140625,-0.017460253366827962,0.015797599117923528,0.00029912222718121484
1783169545208228600,7.895228515625,-0.0015986673682928084,-0.0007731763295829296,0.0008916459018772001
1783169545218297600,7.905297607421875,-0.0002530979782342911,-0.010473682415112852,0.012701165189256425
1783169545228366300,7.915366455078125,-0.013121347379684447,-0.00019480105289258062,0.0036214738662121815
1783169545238436400,7.925436279296875,-0.002645546072721481,0.001537936457269825,-0.002404153373657027
1783169545248505600,7.935505615234375,-0.02134907749891281,0.017257392305065875,0.010406393899139948
1783169545258574600,7.94557470703125,-0.025240239718556403,0.0046223854039097205,0.016795223861635896
1783169545268644600,7.95564453125,-0.015513795474171638,0.006741747611481696,-0.0003533548987586982
1783169545278713300,7.96571337890625,-0.01731003124117851,0.006027671924838796,0.006247181585658108
1783169545288783600,7.97578369140625,-0.01371814422905445,0.003574643616378307,0.00872485571160796
1783169545298852400,7.985852294921875,-0.015363573348522185,0.00651607192971278,-0.006834600968618178
1783169545308921600,7.995921630859375,-0.005486906978487968,0.002850466660829261,0.0056858704665559345
1783169545318991400,8.005991455078124,-0.012968787166476248,0.022663575897272675,0.0040592682034999595
1783169545329060600,8.016060546875,-0.02030044522881508,-0.0009298281960189342,0.010016066849214257
1783169545339129300,8.02612939453125,-0.0014466916769742964,0.002869650851911865,0.015362479653267655
1783169545349199600,8.03619970703125,0.002443301498889923,0.0027661950440146027,0.0018279129718372132
1783169545359268400,8.046268310546875,-0.026138065341114996,-0.012060641079302877,-0.001636048228124855
1783169545369337600,8.056337646484375,-0.02015314571261406,-0.0003193681474775076,0.0047471283117192795
1783169545379407400,8.066407470703124,-0.003243511965870857,0.006919268736010417,-0.004732104272523429
1783169545389476600,8.0764765625,-0.011923077505826949,-0.006519108703592792,0.0067902663532586295
1783169545399545300,8.08654541015625,-0.012072130587697029,0.000749014569283463,0.010839712990709812
1783169545409615600,8.09661572265625,-0.013417699977755547,0.009920985002373345,0.009902364783582742
1783169545419684400,8.106684326171875,-0.0009977788656949996,0.01246262317604851,-0.0017077126667601986
1783169545429753600,8.116753662109375,-0.02314414422214031,0.009747806692821905,-0.009227363015292213
1783169545439823400,8.1268232421875,-0.020600304958224295,0.0009182153900386765,0.010848258198413532
1783169545449892600,8.136892578125,-0.004140753066539764,0.003671509853284806,0.022234253702452404
1783169545459961300,8.14696142578125,-0.024491467177867886,0.007858595412736757,0.00362582809763262
1783169545470031600,8.157031494140625,-0.016710896304249764,-0.00442097194714006,-0.016079527040064566
1783169545480100400,8.167100341796875,-0.00623626404106617,-0.00042606165865436194,-0.0017453686628723516
1783169545490170400,8.17717041015625,-0.011923662027716636,0.010606364317494444,0.0025207403744745534
1783169545500239400,8.1872392578125,-0.0023468553870916366,0.002560333740990609,0.010562011435825842
1783169545510308600,8.19730859375,-0.022996844705939292,0.021721532107074743,-0.023357106552808544
1783169545520378600,8.207378662109376,-0.005488660544157028,0.013248371292836963,0.0034637659787840674
1783169545530447400,8.217447265625,-0.006835983499884605,0.012573431173339485,0.004649517722718883
1783169545540516400,8.227516357421875,-0.006835398977994918,0.0022606612412491814,-0.002223141100810608
1783169545550586400,8.23758642578125,-0.00010229133069515228,0.009858646656153724,0.0061667858512955715
1783169545560655600,8.247655517578124,-0.0005512041419744491,0.012103521239804103,-0.0016297748926095664
1783169545570724600,8.257724609375,-0.016264321580529213,0.0019526958371978251,0.01034148913649842
1783169545580795600,8.267795654296876,-0.005639467191696166,-0.002788219646154903,0.008009863284579477
1783169545590864400,8.277864501953125,-0.02194996600151062,0.0027373982077930122,-0.005998546295054257
1783169545600933600,8.28793359375,-0.01416822608411312,0.0059832391280680896,-0.022667589918687007
1783169545611003400,8.29800341796875,-0.0024970775127410886,0.006240186730935238,-0.015851678809162693
1783169545621072600,8.30807275390625,-0.012522212442755698,0.0082176927824039,0.011992520304623758
1783169545631141400,8.318141357421876,-0.027935470151901242,0.013907716550980694,-0.00008622611188329756
1783169545641211400,8.32821142578125,-0.014468085813522338,0.014220371829881333,0.012547153946122852
1783169545651280400,8.3382802734375,-0.0007002572238445281,-0.006593799641309306,-0.008702713520103133
1783169545661350400,8.348350341796875,-0.007733224600553512,-0.0016231168229598552,0.007832915265497285
1783169545671419400,8.35841943359375,0.008277999001741409,0.007648236031108535,-0.011520770040451316
1783169545681488600,8.368488525390624,-0.007732640078663825,0.000656847340380773,0.004841966988320928
1783169545691558700,8.37855859375,-0.015813655203580856,0.001698323783907108,-0.009023844366404228
1783169545701627400,8.38862744140625,-0.016261983492970467,-0.007091218636278063,-0.001044620531972032
1783169545711696400,8.3986962890625,-0.010128010782599449,0.0001019397042458877,0.011622188013244885
1783169545721766400,8.408766357421875,-0.011325111612677574,0.009997511704149656,0.010188637803989695
1783169545731835400,8.41883544921875,-0.005938157877326012,-0.005883865840244106,0.011730581432807956
1783169545741904400,8.428904296875,-0.004143091154098511,0.008539426416903733,0.005260913919599261
1783169545751974700,8.438974609375,-0.01372165136039257,-0.004073432584526017,0.021935638365347402
1783169545762043400,8.44904345703125,-0.015367665001749992,0.010266661201464012,-0.0017615708790021016
1783169545772112400,8.4591123046875,-0.006388824254274368,0.014683157902886159,-0.002378246039198711
1783169545782182400,8.469182373046875,-0.001600420933961868,0.010251801559049636,0.007293581941118463
1783169545792251600,8.479251708984375,-0.02688859144747257,0.001495156761468388,0.012657544101594248
1783169545802320400,8.4893203125,-0.016264321580529213,0.006372014683368616,0.009884482067020143
1783169545812390700,8.499390625,-0.005788520273566245,0.00583818180130329,0.008557492938201176
1783169545822459400,8.50945947265625,0.003488426637649536,0.012676517088478431,0.013465064517129212
1783169545832529700,8.51952978515625,-0.003245265531539917,0.00994281780826859,0.016018794987397268
1783169545842598400,8.529598388671875,-0.003096212449669838,-0.006595735870068892,0.004747072371147806
1783169545852667600,8.539667724609375,-0.010728314763307571,0.0018693421024130656,0.0034429789190820884
1783169545862737400,8.5497373046875,-0.012823825737833977,0.00909923855701927,0.017830776312807575
1783169545872806700,8.559806640625,-0.01836100159883499,0.008403191717411392,0.003498589555348735
1783169545882875400,8.56987548828125,-0.00609071809053421,0.010318085428024641,-0.00028385844267904756
1783169545892945400,8.5799453125,-0.019409049347043038,0.000295749809872359,-0.0043177867089456414
1783169545903014400,8.590014404296875,-0.011927169159054755,-0.014209147182968444,-0.0041716596614569425
1783169545913083600,8.600083740234375,-0.016267244189977645,-0.004284422153816558,-0.0013408429825911298
1783169545923153400,8.6101533203125,-0.011927753680944442,0.009444736659596673,-0.015040555364167084
1783169545933222700,8.62022265625,-0.016865794605016707,0.00040649387508165087,0.00918231829716824
1783169545943291400,8.63029150390625,-0.020757541346549988,-0.008847807379486039,0.0012833006841421592
1783169545953361400,8.640361328125,-0.024947394251823424,0.0022346363174263386,-0.0066681252528447655
1783169545963430400,8.650430419921875,-0.020908347994089124,0.013034701142692938,0.003695135040755849
1783169545973499600,8.660499755859375,-0.006093640699982643,0.00652198108069133,-0.008494478738546604
1783169545983569400,8.6705693359375,-0.018363924208283422,-0.0031844524221261964,-0.0013030602639599238
1783169545993638400,8.680638427734374,-0.011779869642853736,0.011790911626676098,-0.007769603096676291
1783169546003707400,8.690707275390626,-0.01520867504775524,0.026837464048434047,0.014337359547853703
1783169546013777400,8.70077734375,-0.19950258164703843,0.02634017291762866,-0.07279619174478576
1783169546023846400,8.710846435546875,-0.33864158774614334,0.06047301813862286,-0.08300864767413586
1783169546033916400,8.72091650390625,-0.052096682462096214,-0.009081803365028463,0.059848104873043484
1783169546043985400,8.7309853515625,0.7436848621606826,-0.08301288545783608,0.14476495622210203
1783169546054054400,8.741054443359374,0.6535416498988866,-0.06499424015642144,0.11058245403994806
1783169546064124700,8.751124755859376,-0.8301186985105276,0.06380379282941576,-0.16231911668376997
1783169546074193400,8.761193359375,-0.11172668303847312,0.03138102576220408,-0.08109728849432431
1783169546084262400,8.771262451171875,0.15716799926459787,0.010511616972438059,0.06490608694893307
1783169546094332400,8.78133251953125,-0.27767770821750165,0.0434948629000457,-0.053448471530387176
