time,seconds_elapsed,z,y,x
1783169537394414300,0.081414306640625,0.0010346187045797706,0.000436222180724144,0.00165678805205971
1783169537404484400,0.091484375,-0.0006231343140825629,-0.00043981894850730896,-0.0012607637327164412
1783169537414553300,0.10155322265625,0.003192642703652382,0.0009884345345199108,-0.0016866030637174845
1783169537424623400,0.111623291015625,-0.002658720361068845,-0.0000615282915532589,0.000552651472389698
1783169537434692400,0.1216923828125,-0.0003572165733203292,0.0011491449549794197,-0.0007035618182271719
1783169537444761300,0.13176123046875,0.00011909450404345989,-0.0010253079235553741,0.001534429844468832
1783169537454831400,0.141831298828125,-0.0014223431935533881,0.0001989472657442093,-0.00013936683535575867
1783169537464900400,0.151900390625,-0.001980030909180641,-0.000043808482587337494,-0.000777573324739933
1783169537474969300,0.16196923828125,0.0008144238963723183,0.0036776927299797535,-0.00182739133015275
1783169537485039400,0.172039306640625,-0.0011564497835934162,-0.0020626187324523926,-0.00016979360952973366
1783169537495108400,0.1821083984375,0.0008478452218696475,0.0004878905601799488,-0.0010443755891174078
1783169537505177300,0.19217724609375,-0.000039425562135875225,0.0004045325331389904,0.003782696556299925
1783169537515247400,0.202247314453125,-0.0014109534677118063,-0.0001677805557847023,0.0021893272642046213
1783169537525316400,0.21231640625,-0.0008936165831983089,-0.0007633958011865616,-0.0018011992797255516
1783169537535385300,0.22238525390625,0.001483787433244288,-0.0010020146146416664,-0.000880011823028326
1783169537545455400,0.232455322265625,-0.0009109689854085445,-0.001960613764822483,-0.0009977833833545446
1783169537555524400,0.2425244140625,-0.0007788762450218201,0.00027883797883987427,-0.0015077788848429918
1783169537565593300,0.25259326171875,-0.00020840344950556755,-0.0012293197214603424,0.00011384394019842148
1783169537575664000,0.2626640625,-0.0015495714033022523,0.0013321088626980782,0.00146619719453156
1783169537585732900,0.27273291015625,-0.0006814853986725211,-0.0010506147518754005,-0.002070317743346095
1783169537595802000,0.282802001953125,-0.0009781616972759366,-0.0012881690636277199,0.0023132453206926584
1783169537605871900,0.292871826171875,0.0005895603680983186,-0.00010706065222620964,-0.0001681030262261629
1783169537615941000,0.302941162109375,-0.0008690530667081475,0.002413621172308922,0.0009664036333560944
1783169537626009900,0.313009765625,-0.00040644139517098665,-0.000023569446057081223,-0.00112954992800951
1783169537636080000,0.323080078125,0.0028817635029554367,0.002274472266435623,-0.0017782961949706078
1783169537646148900,0.33314892578125,0.001482433988712728,0.0001253080554306507,-0.002620760118588805
1783169537656219000,0.343218994140625,0.0017831048462539911,-0.00027736183255910873,0.000043466221541166306
1783169537666287900,0.353287841796875,0.001918046735227108,0.0008183792233467102,-0.0005111901555210352
1783169537676357000,0.363357177734375,0.00039258808828890324,-0.002029605209827423,0.0013977636117488146
1783169537686427000,0.373427001953125,-0.002208503894507885,0.0008402294479310513,-0.0007168992888182402
1783169537696496000,0.38349609375,-0.0012444397434592247,0.0022077630273997784,-0.0012687065172940493
1783169537706564900,0.39356494140625,0.00015673355665057898,0.0008022710680961609,0.0008894032798707485
1783169537716635000,0.403634765625,0.0012161389458924532,0.00008934270590543747,-0.0013255479279905558
1783169537726703900,0.413703857421875,-0.000021742191165685654,-0.00010066432878375053,-0.0016746651381254196
1783169537736773000,0.423773193359375,0.0006847945041954517,-0.001273786649107933,-0.00446326145902276
1783169537746843100,0.433843017578125,0.0013697192771360278,0.000017312821000814438,0.0009129552636295557
1783169537756911900,0.443911865234375,0.002610486000776291,-0.0008615301921963692,-0.0019627262372523546
1783169537766980900,0.45398095703125,0.0003005849430337548,-0.0004331674426794052,0.0015210127457976341
1783169537777051000,0.46405078125,0.0005202956963330507,0.001867004670202732,0.0006642739754170179
1783169537787119900,0.474119873046875,-0.00022379530128091574,0.002633873373270035,0.00022052018903195858
1783169537797189000,0.484189208984375,0.001486486755311489,-0.0004814928397536278,0.00034861802123486996
1783169537807259100,0.494259033203125,-0.001021311734803021,0.0023176269605755806,-0.0012902594171464443
1783169537817327900,0.504327880859375,-0.0012727141147479415,-0.0006251661106944084,0.00041043502278625965
1783169537827396900,0.51439697265625,0.0001297718845307827,-0.0008046720176935196,-0.0018213593866676092
1783169537837467000,0.524466796875,0.0023159608244895935,-0.001942906528711319,-0.0008716757874935865
1783169537847536000,0.5345361328125,-0.0007332779932767153,0.00346198258921504,-0.0014974388759583235
1783169537857604900,0.54460498046875,0.0012662233784794807,0.0004542083479464054,0.0026677451096475124
1783169537867675100,0.554675048828125,-0.0003527929075062275,-0.0017911065369844437,-0.0019057814497500658
1783169537877743900,0.564743896484375,-0.0007373533444479108,0.002011620905250311,0.0006676311604678631
1783169537887814100,0.574814208984375,0.0005155785474926233,0.0010807206854224205,-0.00045051821507513523
1783169537897883000,0.5848828125,0.0012839005794376135,0.0018692826852202415,-0.0011200367007404566
1783169537907952000,0.5949521484375,-0.0009304932318627834,-0.0012029502540826797,0.0007726992480456829
1783169537918022000,0.60502197265625,-0.0011962768621742725,-0.00021651573479175568,0.0001937279012054205
1783169537928091100,0.615091064453125,0.0017174065578728914,-0.0005147922784090042,-0.0023739063180983067
1783169537938159900,0.625159912109375,-0.00025066942907869816,-0.0002468787133693695,-0.001725959125906229
1783169537948230100,0.635230224609375,-0.0002123437589034438,-0.0000684359110891819,0.00007031788118183613
1783169537958299000,0.645298828125,-0.000673603150062263,-0.00005964748561382294,-0.0006998684257268906
1783169537968368000,0.6553681640625,-0.0008142380975186825,-0.001814538612961769,-0.00012324773706495762
1783169537978438000,0.66543798828125,-0.0010118447244167328,0.000304272398352623,-0.0004327071364969015
1783169537988507100,0.675507080078125,0.0014975130325183272,0.00024673063308000565,-0.005268082022666931
1783169537998575900,0.685575927734375,0.0006985647487454116,-0.0004901662468910217,-0.001227800501510501
1783169538008646000,0.69564599609375,-0.0019674478098750114,-0.003127080388367176,-0.002346048131585121
1783169538018715000,0.70571484375,0.0013809447409585118,-0.0002764323726296425,0.000537090003490448
1783169538028784000,0.7157841796875,-0.0009516974678263068,-0.0004041306674480438,0.0003010875079780817
1783169538038854000,0.72585400390625,-0.0008859174558892846,0.0010326448827981949,-0.0011854888871312141
1783169538048923100,0.735923095703125,0.0008532947977073491,-0.0007067015394568443,-0.0007554837502539158
1783169538058991900,0.745991943359375,0.0032136545050889254,0.0003148871473968029,-0.0012108846567571163
1783169538069062000,0.756061767578125,-0.0010119627695530653,0.00002977205440402031,0.0003123353235423565
1783169538079131000,0.766130859375,-0.0017959973774850368,-0.0007824921049177647,-0.0020903688855469227
1783169538089200000,0.7762001953125,-0.00012341293040663004,-0.0019208448939025402,0.002835869323462248
1783169538099270000,0.786269775390625,0.000468607759103179,-0.000576747115701437,0.0008390313014388084
1783169538109339000,0.7963388671875,0.0023791624698787928,-0.001106328796595335,-0.000758796464651823
1783169538119407900,0.806407958984375,0.0012747495202347636,0.00003536883741617203,0.0001765056513249874
1783169538129478000,0.816477783203125,0.00013778242282569408,-0.000004303641617298126,-0.00047430023550987244
1783169538139547000,0.826546875,0.001223553204908967,-0.0007494562305510044,-0.0015568751841783524
1783169538149617000,0.836616943359375,-0.000884173670783639,0.00040755001828074455,0.0017579266568645835
1783169538159686100,0.84668603515625,-0.0006996165029704571,0.00020621530711650848,0.00028253556229174137
1783169538169755000,0.8567548828125,0.000020950217731297016,-0.0002684858627617359,0.0014429900329560041
1783169538179825200,0.8668251953125,-0.0010674837976694107,-0.000996327493339777,0.0007372521795332432
1783169538189894000,0.876893798828125,-0.0003239894285798073,-0.00231339642778039,0.001907052006572485
1783169538199963100,0.886963134765625,0.00011623103637248278,0.0010911882854998112,-0.0002674190327525139
1783169538210033000,0.897032958984375,0.0004903606604784727,0.00033792294561862946,0.0006938949227333069
1783169538220102100,0.90710205078125,-0.0006854248931631446,0.0017480668611824512,-0.0009985438082367182
1783169538230171000,0.9171708984375,-0.0016611824976280332,0.0007731430232524872,-0.001638180809095502
1783169538240241200,0.9272412109375,0.0013306126929819584,-0.0011299517937004566,0.0010082023218274117
1783169538250310000,0.937309814453125,0.004099591635167599,0.0002103620208799839,-0.001820211997255683
1783169538260379100,0.947379150390625,0.00005851127207279205,0.0026807100512087345,0.0009848957415670156
1783169538270449000,0.957448974609375,0.001464103814214468,-0.0011056154035031796,-0.0011808299459517002
1783169538280518100,0.96751806640625,0.001743735745549202,-0.0018781987018883228,-0.00031210691668093204
1783169538290587000,0.9775869140625,-0.0002676715375855565,-0.0021064728498458862,0.0006153082940727472
1783169538300657200,0.9876572265625,0.0023568738251924515,0.000731657724827528,-0.0017588997725397348
1783169538310726000,0.997725830078125,0.0016091519501060247,-0.0010975399054586887,0.0020216028206050396
1783169538320795100,1.007795166015625,-0.00042630196548998356,-0.0005449340678751469,-0.00004474399611353874
1783169538330865000,1.017864990234375,0.0023597634863108397,-0.000874948687851429,0.00234596966765821
1783169538340934100,1.02793408203125,0.00044015696039423347,-0.0003601592034101486,0.0004436736926436424
1783169538351003000,1.0380029296875,-0.00048060715198516846,0.0004079435020685196,0.0004776483401656151
1783169538361073000,1.048072998046875,-0.00006542028859257698,-0.00213031517341733,0.0010779248550534248
1783169538371142000,1.058141845703125,0.000035698991268873215,0.00004883855581283569,-0.0004846635274589062
1783169538381211100,1.068211181640625,0.0002740519121289253,0.0002770712599158287,-0.0001554966438561678
1783169538391281000,1.078281005859375,-0.0024242522194981575,-0.002207346260547638,-0.0029605519957840443
1783169538401350100,1.08835009765625,-0.0008074472425505519,-0.0015420885756611824,0.00124670984223485
1783169538411419000,1.0984189453125,0.00018124387133866549,0.0013114605098962784,-0.0007408580277115107
1783169538421489000,1.108489013671875,-0.0010978723876178265,-0.0002888329327106476,0.0009920608717948198
1783169538431558000,1.118557861328125,0.001377965323626995,-0.00047548767179250717,0.0004503023810684681
1783169538441627100,1.128627197265625,0.0011302913771942258,-0.0018558036535978317,0.0012244833633303642
1783169538451697000,1.13869677734375,0.00003403832670301199,-0.0005425703711807728,-0.0006894364487379789
1783169538461766000,1.148765869140625,0.0021033145021647215,0.0019269785843789577,-0.001692116493359208
1783169538471836200,1.158836181640625,0.0007166831055656075,-0.0019460120238363743,-0.000787312863394618
1783169538481905000,1.16890478515625,0.0001539571676403284,-0.003302625846117735,-0.003166580805554986
1783169538491974000,1.178973876953125,0.000012526055797934532,-0.0003387914039194584,-0.0021964663174003363
1783169538502044000,1.1890439453125,0.0005848393775522709,-0.0005920580588281155,-0.0002142756711691618
1783169538512113200,1.199113037109375,-0.00026652554515749216,-0.0012919921427965164,0.0016149061266332865
1783169538522182000,1.209181884765625,0.00220861635170877,0.0008390694856643677,0.0007709504570811987
1783169538532252200,1.219252197265625,-0.0007944491226226091,0.00008558016270399094,0.000738067552447319
1783169538542321000,1.22932080078125,-0.0002884484129026532,-0.0019701137207448483,0.0010722943115979433
1783169538552390100,1.23939013671875,-0.0012684494722634554,-0.00005859276279807091,-0.0012113116681575775
1783169538562460000,1.2494599609375,-0.0021555484272539616,-0.0002814987674355507,-0.0011713644489645958
1783169538572529000,1.25952880859375,0.00226710201241076,0.0022428478114306927,-0.0032073003239929676
1783169538582597600,1.26959765625,-0.0017614616081118584,-0.00030819373205304146,0.0017070305766537786
1783169538592668000,1.27966796875,0.00003945850767195225,-0.001142643392086029,-0.00020540831610560417
1783169538602736600,1.289736572265625,-0.0023640445433557034,-0.0018507782369852066,-0.00008210400119423866
1783169538612806000,1.299805908203125,-0.0024564845953136683,-0.0006257561035454273,-0.00005819741636514664
1783169538622875600,1.309875732421875,0.00034036708530038595,-0.000978891272097826,0.0012741819955408573
1783169538632945000,1.31994482421875,-0.001275523449294269,-0.0004680217243731022,0.0008650938980281353
1783169538643013600,1.330013671875,0.002467815764248371,-0.0006358013488352299,-0.00014211353845894337
1783169538653084000,1.340083984375,0.00019968126434832811,0.0016815322451293468,0.0014189309440553188
1783169538663152600,1.350152587890625,0.0003695909399539232,0.0002791113220155239,-0.0004359607119113207
1783169538673222000,1.360221923828125,-0.002766997553408146,-0.0013316101394593716,0.002597627229988575
1783169538683291600,1.370291748046875,0.0006042979657649994,0.0004692189395427704,-0.001183795277029276
1783169538693361000,1.38036083984375,0.0013867850648239255,-0.0006118714809417725,-0.00013008667156100273
1783169538703429600,1.3904296875,-0.0013914244482293725,-0.0002904282882809639,0.0006906995549798012
1783169538713500000,1.4005,-0.0010795315029099584,-0.0010212422348558903,-0.0012257432099431753
1783169538723568600,1.410568603515625,-0.0018683596281334758,0.0008512265048921108,0.0002754807937890291
1783169538733638000,1.420637939453125,-0.0007992284372448921,-0.002361106686294079,-0.0010956998448818922
1783169538743707600,1.430707763671875,-0.000057005323469638824,-0.0007522907108068466,0.0017695953138172626
1783169538753777000,1.44077685546875,0.0007570030866190791,-0.0016403524205088615,-0.0005015889182686806
1783169538763845600,1.450845703125,0.0005141227738931775,0.0009082923643290997,-0.0010608527809381485
1783169538773915600,1.46091552734375,-0.0016471296548843384,-0.0006292159669101238,-0.0014633184764534235
1783169538783984600,1.470984619140625,-0.00010915426537394524,-0.0012822230346500874,-0.0011863496620208025
1783169538794054000,1.481053955078125,-0.0015782519476488233,-0.0009659426286816597,-0.002661244012415409
1783169538804124000,1.4911240234375,0.00033602816984057426,0.0029182774014770985,-0.0013072933070361614
1783169538814193000,1.50119287109375,0.0001807330409064889,0.0007905387319624424,-0.002070604357868433
1783169538824261600,1.51126171875,-0.0014254192356020212,-0.003104067873209715,-0.0010010791011154652
1783169538834331600,1.52133154296875,0.0002516722306609154,-0.0004052366130053997,0.0010356900747865438
1783169538844401000,1.53140087890625,0.0010844427160918713,-0.0007615680806338787,0.001036489149555564
1783169538854470700,1.541470703125,0.0013490478741005063,-0.0006956877186894417,-0.0008891457691788673
1783169538864540000,1.551539794921875,-0.000022480147890746593,0.0007663881406188011,-0.001757069956511259
1783169538874608600,1.561608642578125,-0.001223512808792293,-0.0002218475565314293,0.00017538340762257576
1783169538884679000,1.571678955078125,0.000005802256055176258,-0.0008807135745882988,-0.00007548648864030838
1783169538894747600,1.58174755859375,-0.00022902083583176136,-0.00018388964235782623,-0.0010420221369713545
1783169538904817000,1.59181689453125,-0.0012167872628197074,-0.001886715181171894,0.0003476154524832964
1783169538914886700,1.60188671875,-0.00022631848696619272,-0.0009377975948154926,-0.001177043654024601
1783169538924956000,1.611955810546875,-0.0012058292049914598,-0.00029544392600655556,0.00004135235212743282
1783169538935024600,1.622024658203125,-0.0007908439729362726,-0.0006294134072959423,-0.0013555411715060472
1783169538945095000,1.632094970703125,0.0006621767533943057,0.002489680889993906,-0.003004038007929921
1783169538955163600,1.64216357421875,0.00018403783906251192,0.00005141971632838249,-0.00032147043384611607
1783169538965233000,1.65223291015625,0.0008221312891691923,0.0005720676854252815,-0.001870098290964961
1783169538975302700,1.662302734375,-0.001485811430029571,0.0015267180278897285,-0.004412948619574308
1783169538985372000,1.672371826171875,-0.0007044399389997125,0.0006529348902404308,0.001902471762150526
1783169538995440600,1.682440673828125,-0.0010378678562119603,0.002756832167506218,-0.000788120087236166
1783169539005511000,1.692510986328125,0.001230080146342516,0.0013554766774177551,0.0008294840808957815
1783169539015579600,1.70257958984375,-0.00006458372808992863,0.0003915410488843918,0.0013873812276870012
1783169539025649000,1.71264892578125,0.00044088432332500815,0.0010163183324038982,0.00029468629509210587
1783169539035718700,1.72271875,0.0016893509309738874,-0.002144044265151024,0.0011615217663347721
1783169539045788000,1.732787841796875,0.0008706951630301774,-0.0003501391038298607,-0.0007884446531534195
1783169539055856600,1.742856689453125,-0.0022411649115383625,-0.0018208781257271767,0.0003902469761669636
1783169539065927000,1.752927001953125,0.000855292659252882,-0.00022591091692447662,0.0016094422899186611
1783169539075995600,1.76299560546875,-0.000884348526597023,0.0014111418277025223,0.0005559653509408236
1783169539086065000,1.77306494140625,-0.00030883937142789364,-0.0008389633148908615,0.001087266020476818
1783169539096134700,1.783134765625,-0.0018011496867984533,-0.00044229067862033844,0.00014589703641831875
1783169539106204000,1.793203857421875,-0.000004048575647175312,0.000739620067179203,-0.0032238007988780737
1783169539116272600,1.803272705078125,0.002718948060646653,0.0014714440330863,-0.0017557498067617416
1783169539126342700,1.8133427734375,-0.001449431641958654,-0.0003634733147919178,-0.002243374940007925
1783169539136411600,1.82341162109375,-0.0022545428946614265,-0.0005672266706824303,-0.001789940521121025
1783169539146481000,1.83348095703125,0.0002008918672800064,0.0003875168040394783,0.0005017095245420933
1783169539156551000,1.843551025390625,0.00031196046620607376,-0.0023655290715396404,-0.0012435100506991148
1783169539166620000,1.853619873046875,-0.001487803878262639,-0.0010419380851089954,-0.00005281064659357071
1783169539176688600,1.863688720703125,0.00005619984585791826,0.001124439761042595,-0.0007172322366386652
1783169539186758700,1.873758544921875,0.0004101339727640152,-0.0017432523891329765,-0.0011449360754340887
1783169539196828000,1.883827880859375,-0.0011162235168740153,-0.0006369226612150669,-0.0007272243965417147
1783169539206897000,1.89389697265625,-0.0018137054285034537,-0.000051559414714574814,-0.00023507210426032543
1783169539216967000,1.903966796875,-0.00021415448281913996,0.0004080822691321373,0.0013837195001542568
1783169539227035600,1.91403564453125,-0.000059158424846827984,0.0006107487715780735,0.0005027458537369967
1783169539237105000,1.92410498046875,-0.002459337003529072,0.0016894051805138588,-0.0003333995118737221
1783169539247174700,1.934174560546875,0.00017692602705210447,0.002442014403641224,-0.0019320952706038952
1783169539257244000,1.944243896484375,0.00012637546751648188,-0.0014846725389361382,0.0002838354557752609
1783169539267312600,1.954312744140625,-0.0007255697855725884,-0.00021567661315202713,0.0005157969426363707
1783169539277383000,1.9643828125,-0.0001871190033853054,0.0008657136932015419,-0.0010528301354497671
1783169539287451600,1.97445166015625,0.0020680457819253206,0.00023507699370384216,-0.002480284543707967
1783169539297522000,1.98452197265625,0.001361250877380371,0.0003573778085410595,0.0018877912079915404
1783169539307590700,1.994590576171875,-0.0007003020728006959,-0.0008314573206007481,0.0029144398868083954
1783169539317660000,2.004659912109375,-0.00041199917905032635,0.00009379442781209946,-0.00188462994992733
1783169539327729700,2.014729736328125,-0.0009560829494148493,0.0005606464110314846,-0.0018558679148554802
1783169539337799000,2.024798828125,0.0008075227378867567,0.0006028572097420692,0.0002157776616513729
1783169539347867600,2.03486767578125,-0.0005229925736784935,-0.0004312479868531227,-0.00013123219832777977
1783169539357938000,2.04493798828125,-0.0016040598275139928,-0.0007817251607775688,0.0011136685498058796
1783169539368006700,2.055006591796875,0.0025336933322250843,0.0018167211674153805,-0.0022837261203676462
1783169539378076000,2.065075927734375,-0.0011537153040990233,-0.0000062622129917144775,-0.0007608344312757254
1783169539388145700,2.075145751953125,-0.003503155894577503,-0.0012717959471046925,-0.0006881302688270807
1783169539398215000,2.08521484375,-0.001776629826053977,0.00003892369568347931,-0.0014778624754399061
1783169539408283600,2.09528369140625,-0.0006221495568752289,0.0018283016979694366,-0.0011486958246678114
1783169539418354000,2.10535400390625,-0.00007234513759613037,0.000876967329531908,0.00007624807767570019
1783169539428422700,2.115422607421875,0.00015562144108116627,0.0007752343080937862,0.0017311363480985165
1783169539438492000,2.125491943359375,-0.0005763202207162976,-0.0002155788242816925,0.0014033771585673094
1783169539448561700,2.135561767578125,0.0007398138986900449,-0.0010206522420048714,0.0013061717618256807
1783169539458631000,2.145630859375,-0.0020639770664274693,0.00025832653045654297,-0.0007113551255315542
1783169539468699600,2.15569970703125,-0.0008961808634921908,-0.000017577316612005234,0.0005440590903162956
1783169539478769700,2.165769775390625,-0.0008215749403461814,0.0013704737648367882,-0.000044135842472314835
1783169539488838700,2.175838623046875,-0.000016501289792358875,-0.0006633824668824673,-0.0010931550059467554
1783169539498908000,2.185907958984375,-0.000021442421711981297,0.00016692886129021645,0.00043299561366438866
1783169539508978000,2.19597802734375,0.0017245259368792176,-0.0007987329736351967,-0.00042321067303419113
1783169539519046700,2.206046630859375,-0.0002431379398331046,0.0018299263902008533,-0.0006373235955834389
1783169539529115600,2.21611572265625,0.0028477266896516085,0.0020413813181221485,0.0014825528487563133
1783169539539185700,2.226185546875,0.00013637065421789885,0.0018273629248142242,-0.00008623139001429081
1783169539549254700,2.236254638671875,0.0006152070709504187,-0.0032017501071095467,0.00011244043707847595
1783169539559324000,2.246323974609375,-0.00003323436249047518,-0.0014775358140468597,0.002065538428723812
1783169539569394000,2.256393798828125,0.0001132393954321742,-0.0006940336897969246,-0.001793115632608533
1783169539579462700,2.266462646484375,-0.00022654864005744457,0.0002025761641561985,0.0019134475151076913
1783169539589531600,2.27653173828125,0.000747635611332953,-0.00010981271043419838,-0.0018149781972169876
1783169539599601700,2.2866015625,0.00016169517766684294,0.0004939963109791279,0.0000527678057551384
1783169539609670700,2.296670654296875,-0.0011491127079352736,-0.00017419038340449333,0.00017420807853341103
1783169539619739600,2.30673974609375,0.00006044539622962475,-0.0004990613088011742,0.00036442303098738194
1783169539629809700,2.3168095703125,-0.00015766755677759647,0.0007853815332055092,-0.0008033732883632183
1783169539639878700,2.326878662109375,-0.0007328139618039131,-0.0011848518624901772,0.0010114156175404787
1783169539649947600,2.33694775390625,0.0005899780080653727,0.000581089872866869,0.0006220615468919277
1783169539660017700,2.347017578125,0.00033666600938886404,-0.0013486575335264206,-0.0009007139597088099
1783169539670086700,2.357086669921875,0.0009987278608605266,0.00022074300795793533,0.0018972031539306045
1783169539680155600,2.36715576171875,-0.00009517138823866844,-0.0001690261997282505,-0.00002332450821995735
1783169539690226000,2.377225830078125,0.0017559918342158198,-0.00002095429226756096,0.0012464707251638174
1783169539700294700,2.387294677734375,-0.0005536547396332026,-0.0010080430656671524,0.001645876094698906
1783169539710365000,2.397364990234375,0.0020160293206572533,-0.0009939279407262802,-0.0003293904010206461
1783169539720433700,2.40743359375,-0.00040307699237018824,-0.0006096302531659603,-0.0010317612905055285
1783169539730503000,2.4175029296875,-0.002386599313467741,-0.0019276286475360394,0.0007586816791445017
1783169539740572700,2.42757275390625,-0.0007593127666041255,-0.0005425787530839443,0.0015038843266665936
1783169539750642000,2.437641845703125,0.0016255478840321302,0.0014593196101486683,0.0019342511659488082
1783169539760710700,2.447710693359375,0.00038801279151812196,0.0002647056244313717,0.00088312360458076
1783169539770781000,2.457781005859375,0.00041917175985872746,-0.0009038890711963177,-0.0006900057196617126
1783169539780849700,2.467849609375,0.001937761204317212,0.0018975911661982536,0.002428957726806402
1783169539790919000,2.4779189453125,0.0012804929865524173,-0.00014372169971466064,-0.0010416735894978046
1783169539800988700,2.48798876953125,0.0009685347322374582,0.0013925135135650635,-0.0014174843672662973
1783169539811058000,2.498057861328125,-0.000054385396651923656,0.00040847528725862503,0.0017301057232543826
1783169539821126700,2.508126708984375,0.000006740330718457699,-0.0011706124059855938,0.001316998852416873
1783169539831196700,2.51819677734375,-0.001352004474028945,-0.0007029608823359013,0.0007196518126875162
1783169539841265700,2.528265625,0.0006058954168111086,0.0012471727095544338,0.00009308755397796631
1783169539851335000,2.5383349609375,0.0013262805296108127,-0.0007400782778859138,-0.0013791078235954046
1783169539861404700,2.54840478515625,-0.00015509070362895727,-0.0006277607753872871,0.0014642388559877872
1783169539871473700,2.5584736328125,-0.001808381057344377,0.0018625613301992416,-0.0018489996436983347
1783169539881542700,2.568542724609375,0.0004908310365863144,0.0004624519497156143,-0.004039251711219549
1783169539891612700,2.57861279296875,-0.0006716388743370771,0.000547939445823431,-0.0020804968662559986
1783169539901681700,2.588681640625,0.00012509955558925867,0.0009469212964177132,0.0004334915429353714
1783169539911751000,2.5987509765625,-0.00039501581341028214,0.0017392118461430073,0.001851891167461872
1783169539921820700,2.608820556640625,-0.00017451809253543615,-0.0008687591180205345,0.0007662323769181967
1783169539931889700,2.6188896484375,0.00035811413545161486,0.0015901378355920315,-0.0006348565220832825
1783169539941958700,2.628958740234375,0.000643598148599267,-0.0006191344000399113,-0.001768705202266574
1783169539952028700,2.639028564453125,-0.0023031895980238914,-0.0008162087760865688,0.0025706496089696884
1783169539962097700,2.64909765625,0.0005495432997122407,0.0015346305444836617,-0.0011440643575042486
1783169539972166700,2.659166748046875,-0.0001774997217580676,-0.002867308910936117,-0.0013752265367656946
1783169539982236700,2.669236572265625,-0.0010218744864687324,-0.0018165046349167824,-0.0015718145295977592
1783169539992305700,2.6793056640625,0.002350219991058111,0.0014048554003238678,-0.0033609261736273766
1783169540002374700,2.689374755859375,-0.0017069323221221566,0.0009303102269768715,-0.0020958338864147663
1783169540012444700,2.699444580078125,-0.0011572559596970677,-0.0015645385719835758,0.0006783811841160059
1783169540022513700,2.709513671875,-0.001235528732649982,0.0004893448203802109,0.0006730221211910248
1783169540032582700,2.719582763671875,0.0017834305763244629,0.0017876354977488518,-0.0035225218161940575
1783169540042653000,2.72965283203125,-0.00024017412215471268,0.0015089074149727821,-0.00033419253304600716
1783169540052721700,2.7397216796875,0.0006298806401900947,0.0009951833635568619,0.0008349353447556496
1783169540062792000,2.7497919921875,0.0005230625392869115,-0.0021625584922730923,-0.0009091172832995653
1783169540072860700,2.759860595703125,-0.002727059181779623,0.000033750664442777634,-0.0006374747026711702
1783169540082930000,2.769929931640625,-0.00036274525336921215,0.0002608480863273144,0.0019560616929084063
1783169540092999700,2.779999755859375,0.001122499699704349,-0.00032584648579359055,-0.0008498446550220251
1783169540103069000,2.79006884765625,-0.0005806813715025783,-0.0005826773121953011,-0.0018853447400033474
1783169540113137700,2.8001376953125,0.0014390599681064487,-0.0009358124807476997,-0.002470973879098892
1783169540123207700,2.810207763671875,-0.0011281691258773208,-0.0014854660257697105,-0.0011027692817151546
1783169540133276700,2.820276611328125,0.0006550835678353906,-0.001964036375284195,-0.0011067641898989677
1783169540143346000,2.830345947265625,-0.0001313097309321165,0.0006334171630442142,-0.0009100728202611208
1783169540153415700,2.840415771484375,-0.001341183902695775,0.00014872197061777115,0.0014153996016830206
1783169540163485000,2.85048486328125,-0.002288843970745802,0.0012481003068387508,-0.00034194765612483025
1783169540173553700,2.8605537109375,-0.0007588579319417477,0.0018603610806167126,-0.00005778833292424679
1783169540183623700,2.870623779296875,-0.0010692906798794866,0.0008661686442792416,-0.0019782402087002993
1783169540193692700,2.880692626953125,0.00036375626223161817,0.0023554079234600067,0.0007736040279269218
1783169540203762000,2.890761962890625,-0.001697344589047134,-0.001254275906831026,0.0017863842658698559
1783169540213831700,2.900831787109375,0.0009458427084609866,-0.0000673043541610241,-0.00009806849993765354
1783169540223900700,2.910900634765625,0.0008682440384291112,-0.0012544356286525726,-0.00005739252083003521
1783169540233969700,2.9209697265625,0.0008173776441253722,0.000046518631279468536,-0.0010736545082181692
1783169540244039700,2.931039794921875,-0.002437486546114087,-0.00010998174548149109,0.0028605186380445957
1783169540254108700,2.941108642578125,-0.0032103362027555704,-0.00018588174134492874,0.002216299995779991
1783169540264178000,2.951177978515625,0.00028293393552303314,-0.0015847645699977875,0.00028278864920139313
1783169540274247700,2.96124755859375,0.00018626113887876272,0.00047865230590105057,0.00004416937008500099
1783169540284316700,2.971316650390625,0.000461815157905221,0.0018573319539427757,-0.0007606726139783859
1783169540294385700,2.9813857421875,-0.0008838801877573133,-0.0006212722510099411,0.0003112496342509985
1783169540304455700,2.99145556640625,-0.0013932359870523214,-0.0020158328115940094,0.0005934378132224083
1783169540314524700,3.001524658203125,-0.0011524860747158527,0.001536291092634201,0.0018544445047155023
1783169540324593700,3.01159375,0.0004685390158556402,0.00022689811885356903,0.0007422196213155985
1783169540334663700,3.02166357421875,0.0003162062494084239,-0.0008828411810100079,0.0011683253105729818
1783169540344732700,3.031732666015625,-0.0005605621263384819,-0.0020160702988505363,-0.00047564413398504257
1783169540354803000,3.041802978515625,-0.00006920890882611275,0.0017286008223891258,-0.0007890979759395123
1783169540364871700,3.05187158203125,0.000005448935553431511,-0.0002285563386976719,0.0012818824034184217
1783169540374940700,3.061940673828125,-0.00030827149748802185,0.00008543068543076515,0.001601195428520441
1783169540385010700,3.0720107421875,0.00007564318366348743,-0.0020879795774817467,-0.0018107567448168993
1783169540395079700,3.08207958984375,0.0006490217056125402,-0.0002663778141140938,0.0006015347316861153
1783169540405148700,3.092148681640625,0.00023738446179777384,-0.000003849156200885773,0.00057198666036129
1783169540415219000,3.102218994140625,-0.0003857952542603016,0.00016259821131825447,-0.0014363029040396214
1783169540425287700,3.11228759765625,0.00033496436662971973,-0.00300600565969944,0.0025164703838527203
1783169540435356700,3.122356689453125,0.0006183247314766049,0.0007117670029401779,0.002140964847058058
1783169540445426700,3.1324267578125,-0.0005907561862841249,-0.00018003862351179123,-0.003237183904275298
1783169540455496000,3.142495849609375,-0.0021846583113074303,0.0007456759922206402,0.0002534210216253996
1783169540465564700,3.152564697265625,0.0006952247931621969,-0.0006684656254947186,0.0008620694279670715
1783169540475634700,3.162634765625,0.001394570921547711,-0.0019190856255590916,-0.000457260524854064
1783169540485703700,3.17270361328125,-0.00006426684558391571,0.001166624017059803,-0.004372870549559593
1783169540495773000,3.18277294921875,0.0008792910957708955,0.0001421058550477028,-0.00013551488518714905
1783169540505842700,3.1928427734375,0.000335283693857491,-0.002235379070043564,0.0020397095941007137
1783169540515912000,3.202911865234375,0.00028734677471220493,-0.0030574966222047806,0.0017470280872657895
1783169540525980700,3.212980712890625,-0.00008062855340540409,0.0011563114821910858,-0.0015068219508975744
1783169540536050700,3.22305078125,-0.0009525475325062871,-0.00026981160044670105,-0.0011515559162944555
1783169540546119700,3.23311962890625,-0.00008577865082770586,-0.00286461366340518,0.001759969862177968
1783169540556189000,3.24318896484375,0.0005746853421442211,-0.0010707085020840168,0.001616425346583128
1783169540566258700,3.2532587890625,-2.3550819605588913e-7,-0.00008611567318439484,0.004116106312721968
1783169540576328000,3.263327880859375,0.001683414913713932,-0.0031388970091938972,-0.0013814570847898722
1783169540586397000,3.27339697265625,-0.0010334027465432882,-0.0012809652835130692,-0.001915312372148037
1783169540596467000,3.283467041015625,0.0001868575345724821,0.0006650062277913094,-0.0019382159225642681
1783169540606536000,3.293535888671875,-0.0018621227936819196,-0.000789969228208065,0.0004751589149236679
1783169540616605000,3.30360498046875,-0.00005729857366532087,0.0006721061654388905,0.0005947346799075603
1783169540626675000,3.313675048828125,0.0004589271266013384,-0.0004592151381075382,-0.0002781942021101713
1783169540636744000,3.323743896484375,0.00010153092443943024,-0.00011699879541993141,0.00021449080668389797
1783169540646813000,3.33381298828125,0.0021437203977257013,-0.0007113348692655563,0.00014707050286233425
1783169540656883000,3.343883056640625,-0.0008014693157747388,0.0008407551795244217,-0.002930212300270796
1783169540666952000,3.353951904296875,0.0008899910608306527,0.001033548265695572,-0.0009706683922559023
1783169540677022000,3.36402197265625,-0.00126557145267725,-0.0002037561498582363,-0.0020303402561694384
1783169540687091000,3.374091064453125,0.000007561873644590378,0.00031882617622613907,0.0021808496676385403
1783169540697160000,3.384159912109375,0.0007553774630650878,-0.0007203398272395134,-0.0007350451778620481
1783169540707230200,3.394230224609375,0.000847789749968797,-0.00034240586683154106,-0.0016385342460125685
1783169540717299000,3.404298828125,0.0005854683695361018,-0.0011038039810955524,0.0010099795181304216
1783169540727368000,3.414367919921875,-0.0001978166401386261,0.00035273702815175056,0.001799635123461485
1783169540737438000,3.42443798828125,-0.00046972534619271755,-0.0006667207926511765,-0.0012590053956955671
1783169540747507200,3.434507080078125,-0.0010892852442339063,-0.0030495868995785713,0.00003760959953069687
1783169540757576000,3.444575927734375,-0.0013441498158499599,0.0011835074983537197,-0.0011136748362332582
1783169540767646000,3.45464599609375,-0.0007330904481932521,0.0006925100460648537,0.0009457299020141363
1783169540777715000,3.46471484375,-0.0013370952801778913,-0.0027512237429618835,0.00015849946066737175
1783169540787784200,3.4747841796875,-0.0019201894756406546,0.001737604383379221,-0.0005251902621239424
1783169540797854000,3.48485400390625,0.0002715920563787222,0.00114425178617239,-0.0001502172090113163
1783169540807923200,3.494923095703125,-0.0008199127623811364,0.0009211068972945213,-0.0019140010699629784
1783169540817992000,3.504991943359375,-0.0013674584915861487,-0.0006711967289447784,-0.0007523302920162678
1783169540828062000,3.51506201171875,0.0005919730174355209,-0.0004982706159353256,0.0006407196633517742
1783169540838131000,3.525130859375,0.0008138143457472324,0.00018056901171803474,0.0014569784980267286
1783169540848200200,3.5352001953125,-0.0017333065625280142,0.0018261335790157318,-0.0032700414303690195
1783169540858270000,3.54527001953125,0.0003503505140542984,-0.0001504640094935894,-0.0017602958250790834
1783169540868339000,3.5553388671875,0.0011192039819434285,0.0005934718064963818,0.003992397338151932
1783169540878408000,3.565407958984375,-0.000810522586107254,-0.00008616689592599869,0.0013944839593023062
1783169540888478000,3.57547802734375,0.0002012068871408701,-0.0016960878856480122,-0.002809753641486168
1783169540898547000,3.585546875,0.0011687333462759852,0.0002432260662317276,-0.0006371466442942619
1783169540908616200,3.5956162109375,-0.0004185024881735444,0.0007206974551081657,-0.0001278226263821125
1783169540918686000,3.60568603515625,0.0006430334760807455,0.0018663890659809113,-0.0019222605042159557
1783169540928755000,3.6157548828125,-0.00012938608415424824,-0.00038245460018515587,-0.0001015861053019762
1783169540938825000,3.625824951171875,-0.002178422175347805,-0.0016077742911875248,-0.0009838915430009365
1783169540948894000,3.63589404296875,-0.0002326869871467352,-0.0020404034294188023,-0.00004925532266497612
1783169540958963000,3.645962890625,0.001258150557987392,-0.0009735408239066601,-0.0001387377269566059
1783169540969033000,3.656032958984375,-0.0012864201562479138,-0.0012680920772254467,0.00194487813860178
1783169540979102000,3.66610205078125,-0.001402800320647657,-0.00045183347538113594,-0.0030458855908364058
1783169540989171000,3.6761708984375,-0.00027744052931666374,0.00037099653854966164,0.0011816523037850857
1783169540999241000,3.686240966796875,0.0010876958258450031,-0.0000010472722351551056,-0.0019225282594561577
1783169541009310000,3.69631005859375,-0.0009228640701621771,0.0006544208154082298,0.0007549342699348927
1783169541019379000,3.70637890625,0.0005192376556806266,-0.002796503249555826,-0.001052020350471139
1783169541029449000,3.716448974609375,0.0007520178332924843,0.0014584916643798351,0.0001869171392172575
1783169541039518000,3.72651806640625,-0.0019817170687019825,0.0026843450032174587,0.0008809368591755629
1783169541049587000,3.7365869140625,0.0005684118950739503,-0.00016161706298589706,-0.0020627975463867188
1783169541059657200,3.7466572265625,0.0007010372937656939,0.00024238461628556252,-0.001755202654749155
1783169541069726000,3.756725830078125,-0.0003041316522285342,-0.0011100736446678638,-0.0010285968892276287
1783169541079795000,3.766794921875,-0.0009832378709688783,-0.0015545557253062725,-0.000498628243803978
1783169541089865000,3.776864990234375,0.001518320175819099,0.001923256553709507,-0.0005146628245711327
1783169541099934200,3.786934326171875,-0.000716072041541338,-0.0012379158288240433,-0.0018654181621968746
1783169541110003000,3.7970029296875,0.001868759747594595,-0.0010394752025604248,-0.0024097778368741274
1783169541120073000,3.807072998046875,-0.000968838226981461,0.0001978292129933834,-0.0010747353080660105
1783169541130142000,3.817141845703125,0.00013169646263122559,0.0005290238186717033,0.0015995833091437817
1783169541140211000,3.8272109375,-0.00007789430674165487,0.0006960039027035236,-0.0007072470616549253
1783169541150281000,3.837281005859375,0.0007249435293488204,-0.001898706890642643,-0.0011892113834619522
1783169541160350200,3.84735009765625,0.0008770099957473576,-0.00018070172518491745,-0.0017498070374131203
1783169541170420000,3.857419921875,-0.0004966827109456062,0.0009157191962003708,-0.0006328236777335405
1783169541180489000,3.867489013671875,-0.00011691602412611246,0.00036364607512950897,0.0015568274538964033
1783169541190558000,3.877557861328125,0.0018691082950681448,0.0007148552685976028,0.004147718660533428
1783169541200628000,3.8876279296875,0.0011425979901105165,0.0005822298116981983,-0.0026342871133238077
1783169541210697000,3.897697021484375,-0.0012626860989257693,0.0004186886362731457,-0.000004270346835255623
1783169541220766000,3.907765869140625,0.0007756974082440138,0.0001012398861348629,-0.00014435290358960629
1783169541230836000,3.9178359375,-0.0010667459573596716,0.0017962339334189892,-0.0002633801195770502
1783169541240905000,3.927905029296875,-0.00029948935844004154,-0.0012150020338594913,0.0015086873900145292
1783169541250974000,3.937973876953125,-0.0004542748210951686,-0.0023831180296838284,0.0027647526003420353
1783169541261044000,3.9480439453125,0.0009345636935904622,-0.001190022099763155,-0.0017250706441700459
1783169541271113000,3.958113037109375,-0.0011588211636990309,0.000138032715767622,0.000519823981449008
1783169541281182000,3.968181884765625,-0.0007492268923670053,0.0008331178687512875,0.0008005211129784584
1783169541291252000,3.978251953125,-0.0017684048507362604,-0.00046029873192310333,-0.000870879041031003
1783169541301321000,3.988321044921875,0.0011919649550691247,-0.0002616271376609802,-0.0007776680868119001
1783169541311390000,3.998389892578125,0.0005263684433884919,-0.0006298329681158066,0.0009627800900489092
1783169541321460000,4.0084599609375,0.0006211770232766867,0.0003329003229737282,-0.00036746892146766186
1783169541331529000,4.018529052734375,0.0011530544143170118,0.0023980014957487583,0.0009497581049799919
1783169541341598000,4.028597900390625,0.00029977760277688503,-0.00010936520993709564,-0.00038421922363340855
1783169541351668000,4.03866796875,-0.0022024395875632763,-0.0018337853252887726,0.002184842713177204
1783169541361737000,4.048737060546875,-0.00044981343671679497,-0.00199970044195652,0.002538244007155299
1783169541371806000,4.058805908203125,0.002867358038201928,0.0029770974069833755,0.0008636449929326773
1783169541381876000,4.0688759765625,0.001584246987476945,-0.00015824194997549057,-0.00025301845744252205
1783169541391945000,4.078945068359375,-0.002375784097239375,-0.0006715022027492523,0.00008526397868990898
1783169541402015000,4.089014892578125,-0.00136724510230124,0.0009295903146266937,-0.00039570312947034836
1783169541412084000,4.099083984375,-0.0003804042935371399,0.0019671814516186714,0.0012668026611208916
1783169541422153000,4.109153076171875,-0.00012047984637320042,0.00004464574158191681,-0.0037647075951099396
1783169541432223000,4.119222900390625,-0.0007004572544246912,-0.00029742438346147537,0.0004946254193782806
1783169541442292000,4.1292919921875,0.0007307255291379988,-0.001474807970225811,-0.0007139169611036777
1783169541452361000,4.13936083984375,-0.0005122729344293475,0.0007201926782727242,0.0027111247181892395
1783169541462431000,4.149430908203125,-0.00010747252963483334,-0.0004209717735648155,-0.0020117247477173805
1783169541472500000,4.1595,-0.0004864218644797802,0.00026147207245230675,0.0020128204487264156
1783169541482569000,4.16956884765625,0.0009338419185951352,0.0018108990043401718,-0.0010844357311725616
1783169541492639000,4.179638916015625,0.00023734942078590393,0.00015950528904795647,-0.0009195981547236443
1783169541502708000,4.1897080078125,0.0002181746531277895,0.0024442309513688087,0.0003595182206481695
1783169541512777200,4.199777099609375,-0.0020677773281931877,-0.0015529310330748558,0.0032420295756310225
1783169541522847000,4.209846923828125,0.00010749255307018757,-0.00037235114723443985,0.0003391839563846588
1783169541532916000,4.219916015625,0.0005313199944794178,0.0024516722187399864,0.0002738486509770155
1783169541542985000,4.22998486328125,-0.0016681847628206015,0.0015515238046646118,0.003158851061016321
1783169541553055000,4.240054931640625,0.002742551267147064,-0.0014728419482707977,0.00004672864452004433
1783169541563124000,4.2501240234375,0.0012439906131476164,-0.00016869232058525085,0.0016353041864931583
1783169541573193000,4.26019287109375,-0.0010643333662301302,-0.00023443251848220825,0.0013217185623943806
1783169541583263500,4.270263427734375,0.0012680632062256336,0.0016343072056770325,-0.001257020514458418
1783169541593332500,4.28033251953125,-0.0012908054050058126,-0.002061392180621624,-0.00017804419621825218
1783169541603401500,4.2904013671875,-0.00012247671838849783,0.0014840741641819477,0.001706675160676241
1783169541613471500,4.300471435546875,0.001802030485123396,0.00003158301115036011,-0.000493563711643219
1783169541623540500,4.31054052734375,-0.0012281141243875027,-0.000996929593384266,0.0007655790541321039
1783169541633610500,4.320610595703125,0.0004708130145445466,-0.0000020544975996017456,-0.003069035243242979
1783169541643679500,4.330679443359375,0.00007506727706640959,0.0015252688899636269,0.0014604688622057438
1783169541653748500,4.34074853515625,-0.00023594661615788937,-0.00004088226705789566,-0.0015331706963479519
1783169541663818500,4.350818603515625,0.0014210721710696816,-0.000500011257827282,0.0024008506443351507
1783169541673887500,4.360887451171875,0.0018570482498034835,-0.000993293710052967,0.0004485473036766052
1783169541683956500,4.37095654296875,0.0008218775037676096,-0.0017855837941169739,-0.0017163362354040146
1783169541694026500,4.381026611328125,-0.000009111710824072361,-0.0014619072899222374,0.0007052605506032705
1783169541704095500,4.391095458984375,-0.0008341590873897076,0.0012470604851841927,-0.00008223624899983406
1783169541714164500,4.40116455078125,0.0013110170839354396,0.0003834981471300125,0.0021252830047160387
1783169541724234500,4.411234375,-0.002222465118393302,-0.0003475397825241089,0.0013441778719425201
1783169541734303500,4.421303466796875,-0.0006690380396321416,-0.0002696206793189049,-0.0013452465645968914
1783169541744372500,4.43137255859375,0.000022851163521409035,-0.0008288845419883728,-0.0005052858032286167
1783169541754442500,4.4414423828125,0.002937672194093466,0.0018423628062009811,0.0013318825513124466
1783169541764511500,4.451511474609375,-0.000257322215475142,-0.001059683971107006,0.001336143584921956
1783169541774580500,4.46158056640625,0.0005186249036341906,-0.0014687413349747658,0.0026610982604324818
1783169541784650500,4.471650390625,-0.00238129124045372,-0.00089296605437994,0.000718854833394289
1783169541794719500,4.481719482421875,-0.0005044706631451845,-0.0016964618116617203,-0.0027584065683186054
1783169541804788500,4.49178857421875,-0.00031165778636932373,0.00026575569063425064,0.0017916043289005756
1783169541814858500,4.5018583984375,-0.0004854964790865779,-0.000007012858986854553,-0.00027194246649742126
1783169541824927500,4.511927490234375,0.0004644530708901584,0.000701388344168663,0.0008034419734030962
1783169541834996500,4.52199658203125,0.00004399241879582405,0.00044189300388097763,-0.0007125344127416611
1783169541845066500,4.53206640625,-0.0014628241769969463,0.0003348337486386299,-0.0014028260484337807
1783169541855135500,4.542135498046875,0.000251363730058074,-0.000007662922143936157,-0.0006848210468888283
1783169541865205500,4.55220556640625,-0.00002800184302031994,0.0006655841134488583,0.0005237215664237738
1783169541875274500,4.5622744140625,0.0004476750618778169,0.0029900572262704372,0.0017156589310616255
1783169541885343500,4.572343505859375,0.001396825653500855,-0.0000874912366271019,0.00030471617355942726
1783169541895413500,4.58241357421875,0.0006310914177447557,0.0009185816161334515,0.00039642537012696266
1783169541905482500,4.592482421875,0.0025317894760519266,-0.00017491262406110764,0.0025293510407209396
1783169541915551500,4.602551513671875,0.0012787566520273685,0.0015407283790409565,0.001094446750357747
1783169541925621500,4.61262158203125,0.0011123091680929065,-0.0011333515867590904,-0.0003029140643775463
1783169541935690500,4.6226904296875,-0.0015927300555631518,0.0011611124500632286,0.0010963059030473232
1783169541945759500,4.632759521484375,-0.00199140515178442,-0.000913756899535656,0.0017839341890066862
1783169541955829500,4.64282958984375,0.0007444115472026169,0.0004835324361920357,0.0009902354795485735
1783169541965898500,4.6528984375,0.00013454770669341087,-0.00005389377474784851,-0.001692100428044796
1783169541975967500,4.662967529296875,0.001523821265436709,-0.0011358316987752914,0.0021299642976373434
1783169541986037500,4.67303759765625,-0.0010748913045972586,-0.0009230459108948708,-0.00038698920980095863
1783169541996106500,4.6831064453125,-0.0003200169885531068,0.0012811794877052307,-0.0009773247875273228
1783169542006175500,4.693175537109375,-0.00023026845883578062,0.0010641319677233696,-0.0007749246433377266
1783169542016245200,4.703245361328125,-0.0008127856999635696,-0.0005255583673715591,-0.00009964033961296082
1783169542026314500,4.713314453125,-0.0021116093266755342,0.0009450390934944153,-0.0009057791903614998
1783169542036383500,4.723383544921875,0.00134411477483809,-0.0011150417849421501,0.0012670301366597414
1783169542046453500,4.73345361328125,-0.00001010263804346323,0.0005936422385275364,0.000201499555259943
1783169542056522500,4.7435224609375,0.0018039790447801352,-0.0015259888023138046,-0.00012515904381871223
1783169542066591500,4.753591552734375,0.000369334127753973,-0.00039920490235090256,0.0013326550833880901
1783169542076661500,4.76366162109375,-0.0032529663294553757,-0.000651518814265728,0.002815449610352516
1783169542086730500,4.77373046875,0.0006336509250104427,-0.00015590433031320572,0.0010540350340306759
1783169542096800500,4.783800537109375,0.0007703551091253757,0.0004966459237039089,0.0007031108252704144
1783169542106869500,4.793869384765625,-0.000047501642256975174,-0.001653057523071766,0.0035817218013107777
1783169542116938500,4.8039384765625,-0.00017394917085766792,0.0016832966357469559,0.0010276404209434986
1783169542127008500,4.814008544921875,0.0013957179617136717,0.00037674978375434875,0.0007610579486936331
1783169542137077500,4.824077392578125,-0.0012885216856375337,0.00018323957920074463,0.0016179783269762993
1783169542147146500,4.834146484375,-0.0004277880070731044,-0.0011784350499510765,0.00029412098228931427
1783169542157216500,4.844216552734375,-0.0009440872818231583,-0.0011593131348490715,0.002873827237635851
1783169542167285500,4.854285400390625,-0.0005701793124899268,-0.0019505377858877182,-0.0003126447554677725
1783169542177354500,4.8643544921875,-0.0001411584671586752,0.000083213672041893,-0.000778144458308816
1783169542187424500,4.874424560546875,0.0011656546266749501,0.0016187923029065132,0.0012386676389724016
1783169542197493500,4.884493408203125,0.0010344815673306584,0.0007463810034096241,-0.00037428736686706543
1783169542207562500,4.8945625,0.0004784135380759835,-0.0007756156846880913,-0.001265380997210741
1783169542217632500,4.904632568359375,-0.00027183571364730597,0.0011272798292338848,-0.0011866968125104904
1783169542227701500,4.914701416015625,0.0004144608974456787,0.00044524436816573143,0.002628813963383436
1783169542237770500,4.9247705078125,-0.0002501686103641987,-0.0019035004079341888,-0.0020217648707330227
1783169542247840500,4.934840576171875,-0.00011408107820898294,-0.0007538134232163429,0.00010343780741095543
1783169542257909500,4.944909423828125,-0.0016498775221407413,-0.0019531985744833946,0.0017483592964708805
1783169542267978500,4.954978515625,-0.0018906272016465664,0.0014814804308116436,0.000255657359957695
1783169542278048500,4.965048583984375,-0.001071001635864377,-0.0013598650693893433,0.0030669530387967825
1783169542288117500,4.975117431640625,-0.0010395762510597706,-0.001148410141468048,-0.00041459756903350353
1783169542298187500,4.9851875,0.0004415804287418723,-0.0013164673000574112,0.0011157917324453592
1783169542308256500,4.995256591796875,0.0006157511961646378,0.003904926124960184,0.0012596023734658957
1783169542318325500,5.005325439453125,0.002233295002952218,-0.00028087105602025986,-0.002164415782317519
1783169542328395300,5.015395263671875,0.0007613659836351871,0.0008094273507595062,-0.0004195126239210367
1783169542338464500,5.025464599609375,0.00014631461817771196,-0.0011420389637351036,-0.0014402687083929777
1783169542348533500,5.035533447265625,-0.0011602322338148952,-0.0010941019281744957,0.0016729666385799646
1783169542358603500,5.045603515625,-0.0026791542768478394,-0.0006291233003139496,0.0022903240751475096
1783169542368672300,5.05567236328125,-0.00033397460356354713,0.000499257817864418,0.0008415644988417625
1783169542378741500,5.065741455078125,-0.0006167571991682053,0.001207075547426939,-0.0008734322618693113
1783169542388811500,5.0758115234375,0.00032866501715034246,-0.0018014973029494286,0.00010527926497161388
1783169542398880500,5.085880615234375,-0.0000730208121240139,-0.000026135705411434174,0.002689593704417348
1783169542408949200,5.09594921875,0.0001698595006018877,0.0007741446606814861,0.0010666633024811745
1783169542419019500,5.10601953125,-0.003098362823948264,-0.0017926478758454323,0.001819385914131999
1783169542429088500,5.116088623046875,-0.0002687540836632252,-0.0011287219822406769,-0.001013951376080513
1783169542439157500,5.126157470703125,-0.0011915802024304867,-0.001703685149550438,0.0012918245047330856
1783169542449227500,5.1362275390625,-0.0008893115445971489,-0.00048528891056776047,0.0005029961466789246
1783169542459296500,5.146296630859375,0.0016826620558276772,-0.0006779516115784645,-0.00012238090857863426
1783169542469365500,5.156365478515625,0.00011805491521954536,-0.0010491963475942612,-0.0006749872118234634
1783169542479435500,5.166435546875,-0.0007582399994134903,0.0007403078489005566,-0.003012411529198289
1783169542489504500,5.17650439453125,-0.00032307941000908613,0.001943523995578289,0.0017482552211731672
1783169542499574500,5.186574462890625,0.0004432659479789436,0.0007508671842515469,-0.003149961354210973
1783169542509643500,5.1966435546875,0.0022739227861166,0.000746606383472681,-0.0006772160995751619
1783169542519712500,5.20671240234375,-0.0004797957371920347,0.0005361568182706833,0.0010097173508256674
1783169542529782500,5.216782470703125,-0.00019643537234514952,0.0004397504962980747,-0.003084892872720957
1783169542539851500,5.2268515625,-0.0006302733672782779,0.0005526398308575153,-0.00022499123588204384
1783169542549920500,5.23692041015625,-0.0011200286680832505,-0.00043379515409469604,-0.0016905288212001324
1783169542559990500,5.246990478515625,0.0001812702976167202,0.0005911309272050858,0.00019559846259653568
1783169542570059500,5.2570595703125,0.002900624182075262,0.0000795372761785984,-0.002804718678817153
1783169542580127700,5.267127685546875,0.002625115215778351,0.0019723819568753242,-0.0020978215616196394
1783169542590197800,5.27719775390625,0.0006969866226427257,-0.0015126308426260948,-0.0018219181802123785
1783169542600266800,5.287266845703125,0.0016680131666362286,0.0014458070509135723,-0.0015280907973647118
1783169542610335700,5.297335693359375,0.001311948522925377,0.00046283425763249397,0.0017571847420185804
1783169542620405800,5.30740576171875,-0.001337181543931365,0.0016269497573375702,-0.0009247944690287113
1783169542630474800,5.317474853515625,-0.0013923088554292917,0.0007728738710284233,0.0000997236929833889
1783169542640543700,5.327543701171875,-0.00011517712846398354,-0.0020072758197784424,-0.0018803388811647892
1783169542650613800,5.33761376953125,0.001213207608088851,-0.00044186972081661224,-0.0014499719254672527
1783169542660682800,5.347682861328125,-0.000474583706818521,-0.0016025081276893616,0.001345582539215684
1783169542670751700,5.357751708984375,0.00017283076886087656,-0.002363639883697033,-0.0006975943688303232
1783169542680821800,5.36782177734375,0.0003712427569553256,0.0010547037236392498,-0.00029480690136551857
1783169542690890800,5.377890869140625,-0.00023942010011523962,-0.0005125664174556732,0.0008253187406808138
1783169542700959700,5.387959716796875,0.00027993833646178246,0.0010031964629888535,-0.0001770488452166319
1783169542711029800,5.39802978515625,-0.0038010897114872932,0.000044724904000759125,0.0007183060515671968
1783169542721098800,5.4080986328125,-0.0020302520133554935,-0.0016059419140219688,0.0014890141319483519
1783169542731167700,5.418167724609375,-0.00005285465158522129,-0.00008953828364610672,0.0003680896479636431
1783169542741237800,5.42823779296875,-0.0003521381877362728,0.0008709141984581947,-0.0019525294192135334
1783169542751306800,5.438306640625,0.0012875701067969203,0.0017201961018145084,0.00045337039045989513
1783169542761376800,5.448376708984375,0.0009476043051108718,0.001390902791172266,0.00016757939010858536
1783169542771445800,5.45844580078125,-0.0010556255001574755,-0.0008711861446499825,0.0025042369961738586
1783169542781515000,5.468514892578125,-0.0012417498510330915,-0.001001640222966671,0.00023775245063006878
1783169542791584800,5.478584716796875,0.0005281870253384113,-0.00020082760602235794,0.001758950063958764
1783169542801653800,5.48865380859375,0.0006529133534058928,0.0007633394561707973,0.0025381711311638355
1783169542811722800,5.49872265625,0.000029201037250459194,-0.00001377146691083908,0.00038580456748604774
1783169542821792800,5.508792724609375,0.0005001220270060003,0.00028046639636158943,0.00017071934416890144
1783169542831861800,5.51886181640625,-0.0002937662648037076,-0.0009081028401851654,0.0015568947419524193
1783169542841930800,5.5289306640625,-0.0018476159311830997,-0.00008794944733381271,-0.0019167577847838402
1783169542852000800,5.539000732421875,-0.0007655734661966562,-0.0004911525174975395,0.004304120317101479
1783169542862069800,5.54906982421875,-0.00005536398384720087,0.0011998936533927917,-0.0007006267551332712
1783169542872138800,5.559138671875,-0.0007411278784275055,-0.000736757181584835,-0.001523809740319848
1783169542882208800,5.569208740234375,0.0016492423601448536,0.00026555079966783524,-0.0015271492302417755
1783169542892277800,5.57927783203125,-0.0006477340357378125,0.0004442487843334675,-0.00006906851194798946
1783169542902346800,5.5893466796875,0.0001000245101749897,0.00030103884637355804,0.0000031222589313983917
1783169542912416800,5.599416748046875,0.000104285660199821,0.001978830434381962,-0.00026638968847692013
1783169542922485800,5.60948583984375,-0.0005376789486035705,-0.0024588732048869133,-0.0009001661092042923
1783169542932555800,5.6195556640625,-0.0007054582238197327,0.0019782190211117268,0.001330497907474637
1783169542942624800,5.629624755859375,-0.0006703876424580812,-0.0024389997124671936,0.0012070739176124334
1783169542952693800,5.63969384765625,-0.0011777197942137718,-0.0002948883920907974,0.0007916206959635019
1783169542962763800,5.649763671875,0.001416176208294928,-0.002961421385407448,-0.000218978151679039
1783169542972832800,5.659832763671875,0.0003330685431137681,-0.0018889671191573143,0.0007117968052625656
1783169542982901800,5.66990185546875,0.0004863245994783938,-0.00207477156072855,-0.000252049183472991
1783169542992971800,5.6799716796875,-0.0012977269943803549,0.0009849346242845058,-0.0005607095081359148
1783169543003040800,5.690040771484375,0.0005682740011252463,-0.0015528425574302673,0.00009445426985621452
1783169543013109800,5.70010986328125,0.0012769411550834775,-0.0004652077332139015,-0.0015338023658841848
1783169543023179800,5.7101796875,0.0010803500190377235,0.0015113027766346931,-0.0019930179696530104
1783169543033248800,5.720248779296875,-0.0016728258924558759,0.0012564384378492832,0.0009412528015673161
1783169543043317800,5.73031787109375,-0.00037932710256427526,-0.000985296443104744,0.00046912720426917076
1783169543053387800,5.7403876953125,0.0029373737052083015,-0.00016237981617450714,0.0005133356899023056
1783169543063456800,5.750456787109375,-0.00022658694069832563,0.00027799326926469803,-0.0019641367252916098
1783169543073525800,5.76052587890625,0.00048021599650382996,0.0009424518793821335,0.0003112682607024908
1783169543083595800,5.770595703125,0.00028327107429504395,-0.00007257144898176193,0.0021781660616397858
1783169543093664800,5.780664794921875,-0.0008427134016528726,-0.000042477622628211975,-0.00043865572661161423
1783169543103733800,5.790733642578125,-0.0020391116850078106,0.0004242616705596447,-0.0012138034217059612
1783169543113803800,5.8008037109375,-0.00008701463229954243,0.0009331917390227318,0.0009918264113366604
1783169543123872800,5.810872802734375,-0.0010662799468263984,0.0006471485830843449,0.001853634137660265
1783169543133942800,5.82094287109375,0.000990479253232479,-0.0019558249041438103,0.0011889091692864895
1783169543144011800,5.83101171875,-0.002220533089712262,0.0013615270145237446,0.00005827820859849453
1783169543154080800,5.841080810546875,-0.0023041563108563423,-0.0032342905178666115,0.0024383452255278826
1783169543164150800,5.85115087890625,0.0003754994831979275,-0.001033581793308258,0.002382840495556593
1783169543174219800,5.8612197265625,-0.00033796136267483234,0.00036031706258654594,-0.0017631684895604849
1783169543184288800,5.871288818359375,0.00015933450777083635,0.0005232822149991989,0.0004585261922329664
1783169543194358800,5.88135888671875,0.0006661340594291687,-0.0010604998096823692,-0.0004932878073304892
1783169543204427800,5.891427734375,0.0009087494108825922,-0.0008460171520709991,-0.0020163520239293575
1783169543214496800,5.901496826171875,-0.00024573097471147776,-0.0002934113144874573,-0.003236878663301468
1783169543224566800,5.91156689453125,-0.0005546029424294829,-0.0013129319995641708,0.0010451902635395527
1783169543234635800,5.9216357421875,0.00040280341636389494,0.0008434299379587173,0.0002275998704135418
1783169543244704800,5.931704833984375,0.001566621707752347,-0.002825506031513214,0.0013167283032089472
1783169543254774800,5.94177490234375,0.0004723288002423942,0.002812406048178673,0.00015985127538442612
1783169543264843800,5.95184375,-0.0017255737911909819,-0.0010445965453982353,0.002982422709465027
1783169543274912800,5.961912841796875,-0.0011436729691922665,-0.0020747072994709015,0.0018516444833949208
1783169543284982800,5.971982666015625,0.001433120807632804,-0.0008992105722427368,-0.0011683264747262
1783169543295051800,5.9820517578125,0.0005068733589723706,0.000428641214966774,0.0007531445007771254
1783169543305120800,5.992120849609375,0.00013244966976344585,0.0007288083434104919,-0.0011066452134400606
1783169543315190800,6.002190673828125,-0.0006137681193649769,0.00017966469749808311,0.000015877187252044678
1783169543325259800,6.012259765625,-0.00038141768891364336,-0.00047313328832387924,0.003004650352522731
1783169543335328800,6.022328857421875,-0.0011593271046876907,-0.003378641791641712,0.000683971680700779
1783169543345398800,6.032398681640625,0.0001706357579678297,0.0008740024641156197,0.0007715029641985893
1783169543355467800,6.0424677734375,0.002929138019680977,0.001935805194079876,0.0012231750879436731
1783169543365537800,6.052537841796875,0.0004424616927281022,-0.0012088669463992119,0.002019596518948674
1783169543375606800,6.062606689453125,0.00029039522632956505,0.003398668486624956,0.00007575517520308495
1783169543385675800,6.07267578125,-0.0010638919193297625,-0.0012313127517700195,0.0007716049440205097
1783169543395745800,6.082745849609375,-0.001163760432973504,-0.0012155994772911072,-0.0007280211430042982
1783169543405814800,6.092814697265625,-0.0016015797154977918,-0.0009058434516191483,0.001736099598929286
1783169543415883800,6.1028837890625,-0.0003586825914680958,-0.00024591200053691864,-0.000731585780158639
1783169543425953800,6.112953857421875,0.0006797786918468773,0.0007861335761845112,0.0029247598722577095
1783169543436022800,6.123022705078125,-0.00003714428748935461,0.0018434086814522743,0.0024009160697460175
1783169543446091800,6.133091796875,-0.0012085248017683625,-0.00041234586387872696,0.0004898924380540848
1783169543456161800,6.143161865234375,-0.00036030798219144344,-0.0010565649718046188,-0.0012544780038297176
1783169543466230800,6.153230712890625,-0.00022002053447067738,-0.0003821970894932747,0.000022385036572813988
1783169543476299800,6.1632998046875,0.0021115769632160664,-0.0005976473912596703,0.00001812400296330452
1783169543486369800,6.173369873046875,-0.00033730058930814266,-0.0010599466040730476,0.003100217320024967
1783169543496438800,6.183438720703125,0.000012372387573122978,0.001966203562915325,0.0014993911609053612
1783169543506507800,6.1935078125,-0.00010298239067196846,0.0007968074642121792,-0.0020659544970840216
1783169543516577800,6.203577880859375,0.0015548354713246226,-0.0005904333665966988,0.0017812480218708515
1783169543526646800,6.213646728515625,-0.0009746780851855874,-0.00034105777740478516,0.00048722955398261547
1783169543536715800,6.2237158203125,-0.0008606946794316173,0.0005140826106071472,-0.0007213128264993429
1783169543546785800,6.233785888671875,0.0010193591006100178,0.0002674926072359085,-0.003151751821860671
1783169543556854800,6.243854736328125,-0.0012259518261998892,-0.00035914964973926544,0.0022041313350200653
1783169543566924800,6.2539248046875,0.00035751471295952797,-0.000019188039004802704,-0.0029237789567559958
1783169543576993800,6.263993896484375,0.002693373244255781,0.0012647220864892006,-0.0018819503020495176
1783169543587063000,6.27406298828125,0.00031546829268336296,0.00033767521381378174,-0.003881544340401888
1783169543597132800,6.2841328125,-0.001492551644332707,0.0019438276067376137,-0.00003407546319067478
1783169543607202000,6.2942021484375,0.0028812126256525517,0.0012395856902003288,0.0019493445288389921
1783169543617271000,6.30427099609375,-0.0006823631701990962,0.0000076070427894592285,-0.001100773923099041
1783169543627341000,6.314341064453125,-0.000003868015483021736,0.0011580944992601871,0.00014434452168643475
1783169543637410000,6.32441015625,0.0007231750059872866,0.000046224333345890045,0.0012503552716225386
1783169543647479000,6.33447900390625,-0.0005905742291361094,-0.001126742921769619,-0.0009297437500208616
1783169543657548800,6.344548828125,0.0017040054081007838,0.00201179226860404,0.0017086497973650694
1783169543667618000,6.3546181640625,-0.0011574155651032925,-0.000023486092686653137,-0.00020865630358457565
1783169543677687000,6.36468701171875,0.000706797291059047,0.0001112702302634716,0.0008928272873163223
1783169543687757000,6.374757080078125,-0.0001777135767042637,0.0003746040165424347,-0.00169828487560153
1783169543697825800,6.38482568359375,0.0016590686282142997,0.0011823410168290138,-0.0005051884800195694
1783169543707895000,6.39489501953125,-0.0020969840697944164,0.0018002735450863838,0.001408513868227601
1783169543717964800,6.40496484375,-0.0007696646498516202,0.0008101100102066994,-0.00014677224680781364
1783169543728034000,6.415033935546875,-0.0006297421641647816,-0.00016628112643957138,0.0021255197934806347
1783169543738103800,6.425103759765625,0.00020888715516775846,0.0001666136085987091,-0.0027909420896321535
1783169543748173000,6.435173095703125,-0.0002130391076207161,-0.00045334361493587494,0.001182743115350604
1783169543758241800,6.44524169921875,0.0002681941259652376,0.000401264987885952,-0.0019739018753170967
1783169543768312000,6.45531201171875,-0.000021636602468788624,-0.0009964508935809135,0.0003826618194580078
1783169543778380800,6.465380859375,0.0005687861703336239,-0.0017434675246477127,-0.000583799323067069
1783169543788450000,6.475449951171875,0.0008078573155216873,0.00042342348024249077,-0.00025238189846277237
1783169543798520000,6.48552001953125,0.00032955361530184746,-0.0009331908077001572,0.0007529612630605698
1783169543808589000,6.495589111328125,-0.0021542473696172237,-0.0007028728723526001,-0.0013317628763616085
1783169543818657800,6.50565771484375,-0.0009824566077440977,-0.001483711414039135,0.0010235365480184555
1783169543828728000,6.51572802734375,-0.001148659735918045,0.00021430058404803276,-0.0009401696734130383
1783169543838797000,6.525797119140625,-0.0006652961019426584,0.00013680290430784225,0.0010990127921104431
1783169543848866000,6.535865966796875,0.00018197589088231325,-0.0031574154272675514,-0.0014146529138088226
1783169543858936000,6.54593603515625,0.0007718660053797066,-0.00042687635868787766,0.00045515247620642185
1783169543869005000,6.556005126953125,0.0018245493993163109,-0.0011382997035980225,0.0003889326471835375
1783169543879074000,6.566073974609375,0.0024368101730942726,-0.0019769296050071716,0.0003324737772345543
1783169543889144000,6.57614404296875,-0.0012358492240309715,0.0005839499644935131,0.0004148031584918499
1783169543899213000,6.586213134765625,-0.002290727337822318,0.0009951419197022915,0.00011759437620639801
1783169543909282000,6.596281982421875,0.0014858933864161372,-0.00021708477288484573,-0.0005544845480471849
1783169543919352000,6.60635205078125,0.000670167151838541,-0.0010810140520334244,-0.00018989783711731434
1783169543929421000,6.616421142578125,-0.00001557590439915657,0.0021669166162610054,0.0013678008690476418
1783169543939491000,6.626490966796875,0.0019804632756859064,0.002245746087282896,0.0008719202596694231
1783169543949559800,6.636559814453125,0.0016604976262897253,0.00026644160971045494,0.0007193039637058973
1783169543959629000,6.646629150390625,0.0018991169054061174,0.00024327170103788376,-0.0025646400172263384
1783169543969698800,6.65669873046875,-0.0002046278677880764,-0.000718243420124054,0.0028175199404358864
1783169543979768000,6.66676806640625,0.0012646380346268415,0.00013636518269777298,0.0004686117172241211
1783169543989837000,6.676837158203125,-0.0002662042388692498,0.001470229122787714,-0.0009763548150658607
1783169543999907000,6.686906982421875,-0.002203121315687895,0.00004730233922600746,-0.0020565330050885677
1783169544009975800,6.696975830078125,-0.001731100957840681,-0.0008829208090901375,-0.00042490079067647457
1783169544020045000,6.707045166015625,0.000014601042494177818,0.0004539857618510723,0.0008789827115833759
1783169544030114800,6.71711474609375,0.00036748661659657955,-0.0005641253665089607,0.0012122129555791616
1783169544040184000,6.72718408203125,-0.0007848631357774138,-0.0014642737805843353,-0.0005582564044743776
1783169544050252800,6.737252685546875,0.0013665463775396347,0.001790874172002077,0.000249253585934639
1783169544060323000,6.747322998046875,0.0015079602599143982,0.00039857393130660057,0.0020029451698064804
1783169544070391800,6.757391845703125,0.0009439529967494309,0.00007980223745107651,0.00041813356801867485
1783169544080461000,6.7674609375,0.0016065475065261126,0.00038073956966400146,0.0023718285374343395
1783169544090530800,6.77753076171875,-0.002436400856822729,-0.0016401661559939384,0.0015243212692439556
1783169544100600000,6.78760009765625,0.0004145132261328399,0.0017811967991292477,-0.001097826985642314
1783169544110670000,6.797670166015625,-0.001055314322002232,-0.0005799331702291965,-0.0003367955796420574
1783169544120739000,6.807739013671875,-0.0015693044988438487,-0.0021386812441051006,0.0008368594571948051
1783169544130807800,6.817807861328125,-0.0000438041752204299,0.001661753747612238,-0.0005038578528910875
1783169544140878000,6.827878173828125,-0.0003090549726039171,0.001348565798252821,0.0006964290514588356
1783169544150947000,6.837947021484375,0.00011213740799576044,-0.0014929133467376232,-0.0001361232716590166
1783169544161016000,6.84801611328125,-0.00037042738404124975,0.0007673110812902451,0.002237019594758749
1783169544171086000,6.858086181640625,0.0013248758623376489,0.0004789801314473152,-0.002081845421344042
1783169544181155000,6.868155029296875,0.0015192866558209062,0.00029415683820843697,-0.0002618413418531418
1783169544191224000,6.87822412109375,-0.0000025284243747591972,-0.0019484967924654484,-0.00025119190104305744
1783169544201293800,6.8882939453125,0.0025234799832105637,0.00174397649243474,0.0014186101034283638
1783169544211363000,6.898363037109375,-0.001150717493146658,0.000604693777859211,-0.00019151042215526104
1783169544221432000,6.90843212890625,0.0007188216550275683,0.00030508823692798615,-0.003509809263050556
1783169544231502000,6.918502197265625,0.000015511177480220795,0.0009401170536875725,-0.0008568651974201202
1783169544241571000,6.928571044921875,0.0002882188418880105,-0.0011323555372655392,-0.0005069258622825146
1783169544251640000,6.93864013671875,0.0011778967455029488,-0.000691557303071022,-0.0012843059375882149
1783169544261709800,6.948709716796875,-0.0015236138133332133,-0.0012737242504954338,-0.0006579305045306683
1783169544271779000,6.958779052734375,0.00016548437997698784,-0.00090080127120018,0.0003151507116854191
1783169544281848000,6.96884814453125,-0.0016254914226010442,0.00046859635040163994,0.0023026675917208195
1783169544291918000,6.97891796875,0.0013735482934862375,0.00015987781807780266,-0.000621764687821269
1783169544301986800,6.98898681640625,0.0011359943309798837,-0.0018223128281533718,0.0015918544959276915
1783169544312057000,6.99905712890625,-0.0004080623621121049,0.0015602433122694492,-0.0018824448343366385
1783169544322125800,7.009125732421875,-0.0021923803724348545,-0.0013836151920258999,-0.0027165471110492945
1783169544332195000,7.019195068359375,-0.00010493746958673,-0.00021943822503089905,0.0010116982739418745
1783169544342264800,7.029264892578125,-0.0004135977942496538,-0.000611988827586174,0.0024673822335898876
1783169544352334000,7.039333984375,0.002046943875029683,-0.0018814369104802608,0.000024058157578110695
1783169544362402800,7.04940283203125,0.0016701065469533205,0.00038731005042791367,0.0010712130460888147
1783169544372473000,7.05947314453125,-0.0014304271899163723,-0.0021635028533637524,0.0013703464064747095
1783169544382541800,7.069541748046875,-0.0005675631109625101,-0.0009600208140909672,-0.00016150367446243763
1783169544392611000,7.079611083984375,0.0007571796886622906,0.0006831730715930462,0.002545227063819766
1783169544402680800,7.089680908203125,-0.00080343266017735,-0.0006148521788418293,0.0033971723169088364
1783169544412750000,7.09975,-0.0014118937542662024,-0.0005271928384900093,0.0007002705242484808
1783169544422818800,7.10981884765625,0.0010190397733822465,0.0001591038890182972,0.0004416776355355978
1783169544432889000,7.11988916015625,0.00048197974683716893,0.0001647775061428547,0.0014574085362255573
1783169544442957800,7.129957763671875,-0.0014924878487363458,-0.0001526717096567154,-0.0007444932125508785
1783169544453027000,7.140027099609375,0.0005935812368988991,0.0004874630831182003,-0.0009955987334251404
1783169544463097000,7.15009716796875,-0.0013670379994437099,0.0005351337604224682,-0.003530662041157484
1783169544473166000,7.160166015625,0.00039814034244045615,-0.001976034604012966,-0.0003175025340169668
1783169544483234800,7.17023486328125,0.0017108124447986484,-0.00010676216334104538,-0.001844292739406228
1783169544493305000,7.18030517578125,-0.0006970793474465609,-0.0029179761186242104,-0.00013028527610003948
1783169544503374000,7.1903740234375,0.00025793013628572226,0.0009579886682331562,-0.0019921010825783014
1783169544513443800,7.20044384765625,-0.0013754733372479677,0.0010132337920367718,0.0007170652970671654
1783169544523513000,7.21051318359375,0.0002650337992236018,-0.0004784027114510536,0.002718697302043438
1783169544533582000,7.22058203125,0.00009405112359672785,-0.0032786764204502106,0.004150285851210356
1783169544543652000,7.230652099609375,0.0011433365289121866,0.0002236468717455864,-0.00007242243736982346
1783169544553720800,7.240720947265625,-0.0012904285686090589,-0.0009980080649256706,0.0000736108049750328
1783169544563790000,7.2507900390625,-0.0011910925386473536,0.002248118631541729,-0.0017586438916623592
1783169544573859800,7.26085986328125,0.0018080826848745346,0.0001858784817159176,-0.003549275454133749
1783169544583928600,7.270928466796875,0.0002927440218627453,-0.0006253207102417946,-0.001989462412893772
1783169544593997600,7.28099755859375,-0.00006283214315772057,-0.00020954478532075882,-0.00170343485660851
1783169544604067600,7.291067626953125,0.0004050852730870247,-0.00032699014991521835,0.00119941052980721
1783169544614136600,7.301136474609375,0.0006701603415422142,0.00026257941499352455,-0.0008170322980731726
1783169544624205600,7.31120556640625,0.0027295828331261873,0.0009286361746490002,-0.00016242708079516888
1783169544634275300,7.321275390625,-0.00008164439350366592,0.0012888126075267792,0.0006132062990218401
1783169544644344600,7.331344482421875,0.0014411511365324259,-0.00002332683652639389,0.0014395853504538536
1783169544654413600,7.34141357421875,-0.0025152023881673813,0.00015231315046548843,-0.0007107420824468136
1783169544664483600,7.351483642578125,-0.00008719833567738533,0.0007656393572688103,0.003069348866119981
1783169544674552300,7.36155224609375,0.0008766836253926158,-0.0019766828045248985,-0.0000779004767537117
1783169544684621600,7.37162158203125,-0.0006905867485329509,0.001409260556101799,0.000024897512048482895
1783169544694691300,7.38169140625,-0.002416850533336401,0.0005798717029392719,0.0017373409355059266
1783169544704760600,7.391760498046875,-0.0007971158483996987,0.00013006385415792465,0.0014308111276477575
1783169544714830300,7.401830322265625,0.0005048771854490042,-0.000811554491519928,0.0002955901436507702
1783169544724899600,7.411899658203125,-0.0012996806763112545,-0.00047093629837036133,-0.00289514334872365
1783169544734968300,7.42196826171875,0.0020091754850000143,0.0007146704010665417,-0.0007666933815926313
1783169544745038600,7.43203857421875,0.0013593642506748438,0.002255043014883995,0.00017420155927538872
1783169544755107300,7.442107421875,-0.0021668258123099804,-0.003911842592060566,-0.00022952677682042122
1783169544765176600,7.452176513671875,0.0008462748373858631,0.00038197217509150505,0.0030693309381604195
1783169544775246300,7.462246337890625,0.00030355219496414065,0.002840955276042223,0.0012039148714393377
1783169544785315600,7.472315673828125,-0.000947600812651217,-0.0007761502638459206,-0.0007266106549650431
1783169544795384300,7.48238427734375,0.000013684737496078014,-0.00040004123002290726,-0.00007715937681496143
1783169544805454600,7.49245458984375,0.0004416547599248588,0.002163517754524946,0.0000738420058041811
1783169544815523300,7.5025234375,-0.00018518371507525444,0.00018007401376962662,0.0010021370835602283
1783169544825592600,7.512592529296875,0.00009764393325895071,-0.0032095969654619694,0.0018410327611491084
1783169544835662300,7.522662353515625,-0.0013172546168789268,0.0014455458149313927,-0.00017290981486439705
1783169544845731600,7.532731689453125,-0.000004049856215715408,-0.000684716273099184,0.0034077102318406105
1783169544855800300,7.54280029296875,0.00041504326509311795,0.0019336752593517303,-0.003132277401164174
1783169544865870600,7.55287060546875,0.0009814975783228874,-0.002421391662210226,-0.00211548269726336
1783169544875939300,7.562939208984375,0.0004063172382302582,0.00043727876618504524,0.0010687517933547497
1783169544886009300,7.57300927734375,0.0013661205302923918,-0.0008599474094808102,-0.0009717619977891445
1783169544896078600,7.58307861328125,-0.0006950232200324535,-0.0001608799211680889,-0.0014363417867571115
1783169544906147600,7.593147705078125,-0.0013227302115410566,-0.0021475977264344692,0.000014282064512372017
1783169544916217600,7.603217529296875,0.000440893170889467,-0.002150364685803652,-0.00018768198788166046
1783169544926286300,7.613286376953125,-0.0032585039734840393,0.0009242547675967216,-0.0005373549647629261
1783169544936355600,7.62335546875,-0.0010711016366258264,0.0005831727758049965,-0.0011528381146490574
1783169544946425300,7.63342529296875,-0.0005259524332359433,-0.00018807826563715935,0.001586223253980279
1783169544956494600,7.64349462890625,-0.0004849539836868644,0.0006158379837870598,-0.0019226374570280313
1783169544966563600,7.6535634765625,0.0014572893269360065,-0.001525343395769596,0.0005655537825077772
1783169544976633600,7.663633544921875,-0.00032222107984125614,0.0006361422128975391,0.0013244214933365583
1783169544986702300,7.673702392578125,0.00014756061136722565,-0.0012357933446764946,0.0006277384236454964
1783169544996771600,7.683771484375,0.0001710355281829834,0.0007553943432867527,0.0001252510119229555
1783169545006841300,7.69384130859375,0.002100761979818344,-0.00029815174639225006,-0.00008087768219411373
1783169545016910600,7.70391064453125,-0.001605530851520598,-0.00028998591005802155,-0.00042817858047783375
1783169545026979300,7.713979248046875,-0.00033333885949105024,-0.0011427300050854683,0.0006512003019452095
1783169545037049600,7.724049560546875,-0.0006430757930502295,0.000037093646824359894,-0.002412464004009962
1783169545047118300,7.734118408203125,0.001679467037320137,0.0015713409520685673,0.0004906479734927416
1783169545057188600,7.744188720703125,0.0016901867929846048,-0.0006679478101432323,-0.0011750301346182823
1783169545067257300,7.75425732421875,0.0019216155633330345,-0.0005497033707797527,0.0011126254685223103
1783169545077326600,7.76432666015625,0.002458262722939253,-0.0003867875784635544,-0.0011153037194162607
1783169545087396400,7.774396240234375,-0.000379335368052125,-0.0004602903500199318,-0.0010657689999789
1783169545097465600,7.784465576171875,-0.001763464417308569,0.0014176801778376102,-0.0009921037126332521
1783169545107534300,7.794534423828125,0.000842172303237021,0.0028949351981282234,-0.0015798632521182299
1783169545117604600,7.8046044921875,0.0012586142402142286,0.0010023647919297218,-0.0008624112233519554
1783169545127673300,7.81467333984375,0.000771788414567709,-0.0004408024251461029,0.0009043298196047544
1783169545137742600,7.82474267578125,-0.0006120261969044805,-0.0006431806832551956,-0.00022434815764427185
1783169545147812400,7.834812255859375,-0.0005989766214042902,-0.002239212393760681,-0.001685624709352851
1783169545157881600,7.844881591796875,0.0013206275179982185,0.0019480828195810318,-0.0018652346916496754
1783169545167950300,7.854950439453125,-0.0013385388301685452,0.0001816079020500183,0.0015955432318150997
1783169545178020400,7.865020263671875,-0.00015273678582161665,-0.00020237546414136887,0.0012281353119760752
1783169545188089300,7.87508935546875,0.00020039838273078203,-0.0005709575489163399,0.0003056165296584368
1783169545198158600,7.88515869140625,-0.0024478184059262276,0.0008229771628975868,0.0015981090255081654
1783169545208228600,7.895228515625,-0.001142336637713015,-0.000916333869099617,-0.000023756176233291626
1783169545218297600,7.905297607421875,-0.0005120957503095269,-0.0003937995061278343,-0.0017453529872000217
1783169545228366300,7.915366455078125,0.0008759438060224056,0.0007899757474660873,0.002525558229535818
1783169545238436400,7.925436279296875,0.000019669998437166214,0.000033756252378225327,0.0007156194187700748
1783169545248505600,7.935505615234375,0.0006047665374353528,-0.0000927438959479332,0.0005262687336653471
1783169545258574600,7.94557470703125,-0.0005587849300354719,0.00030594319105148315,-0.0017351519782096148
1783169545268644600,7.95564453125,-0.0005177722778171301,0.0025073117576539516,0.002132024150341749
1783169545278713300,7.96571337890625,-0.0005960467969998717,-0.0011742981150746346,-0.0029660884756594896
1783169545288783600,7.97578369140625,-0.00029297906439751387,0.00021374132484197617,0.0008249212987720966
1783169545298852400,7.985852294921875,-0.0017475711647421122,-0.002527446486055851,0.001328066224232316
1783169545308921600,7.995921630859375,-0.0008234542328864336,-0.0009599104523658752,0.00020740809850394726
1783169545318991400,8.005991455078124,-0.000022436724975705147,-0.0005136914551258087,0.00008378690108656883
1783169545329060600,8.016060546875,0.0018915771506726742,0.00047593889757990837,0.00014104507863521576
1783169545339129300,8.02612939453125,-0.0003173776203766465,-0.00012899469584226608,-0.000033124350011348724
1783169545349199600,8.03619970703125,0.0006525456556119025,0.000012152828276157379,-0.0013388721272349358
1783169545359268400,8.046268310546875,0.0005628221551887691,0.0006644208915531635,0.00028991815634071827
1783169545369337600,8.056337646484375,-0.0010571788297966123,-0.0007004495710134506,-0.00019770674407482147
1783169545379407400,8.066407470703124,-0.0014445084379985929,-0.00007190927863121033,-0.0010883971117436886
1783169545389476600,8.0764765625,-0.0001747132046148181,-0.0010503549128770828,0.0008162958547472954
1783169545399545300,8.08654541015625,-0.00048470264300704,0.0007443591021001339,0.00037723383866250515
1783169545409615600,8.09661572265625,0.0006444776081480086,-0.0012695230543613434,0.001957021187990904
1783169545419684400,8.106684326171875,0.0010264768498018384,-0.00023870356380939484,-0.0014714067801833153
1783169545429753600,8.116753662109375,-0.0030284521635621786,0.00028753653168678284,-0.00031958986073732376
1783169545439823400,8.1268232421875,-0.0025103879161179066,0.0014789928682148457,-0.002484730212017894
1783169545449892600,8.136892578125,-0.0014488518936559558,-0.0013282457366585732,-0.0017230657394975424
1783169545459961300,8.14696142578125,-0.001039819442667067,-0.0012224828824400902,0.0010100938379764557
1783169545470031600,8.157031494140625,-0.0022949674166738987,0.00066010607406497,0.0011232781689614058
1783169545480100400,8.167100341796875,-0.0005849229637533426,-0.0007104845717549324,-0.0012353723868727684
1783169545490170400,8.17717041015625,0.0003732824116013944,0.00020644161850214005,-0.0013187290169298649
1783169545500239400,8.1872392578125,-0.00019776844419538975,-0.00031678564846515656,0.0018886419711634517
1783169545510308600,8.19730859375,0.0014960019616410136,-0.001017197035253048,0.0002675759606063366
1783169545520378600,8.207378662109376,0.0018788200104609132,-0.0009767916053533554,0.0008971891365945339
1783169545530447400,8.217447265625,-0.0002841993700712919,0.0003683711402118206,-0.0003848564811050892
1783169545540516400,8.227516357421875,0.0002692417474463582,-0.0010109590366482735,-0.0005362445954233408
1783169545550586400,8.23758642578125,-0.0024391929619014263,-0.0005555581301450729,-0.0013288010377436876
1783169545560655600,8.247655517578124,-0.00019566458649933338,-0.0004971306771039963,0.0004385893698781729
1783169545570724600,8.257724609375,0.000012860982678830624,-0.0007125800475478172,-0.002144144382327795
1783169545580795600,8.267795654296876,0.00026788306422531605,-0.00020832568407058716,0.0028162815142422915
1783169545590864400,8.277864501953125,0.0026460858061909676,-0.0009196558967232704,-0.001200830563902855
1783169545600933600,8.28793359375,-0.0023264321498572826,0.0003730752505362034,0.00246330164372921
1783169545611003400,8.29800341796875,0.0005950554623268545,0.0029587382450699806,-0.0014928241726011038
1783169545621072600,8.30807275390625,0.00038929429138079286,-0.00006615370512008667,-0.0007377774454653263
1783169545631141400,8.318141357421876,-0.0026933145709335804,-0.00044352374970912933,-0.0004839780740439892
1783169545641211400,8.32821142578125,-0.0025260073598474264,-0.00028248317539691925,-0.00011727889068424702
1783169545651280400,8.3382802734375,-0.000024766428396105766,-0.0006145788356661797,0.0004803345073014498
1783169545661350400,8.348350341796875,0.00026592647191137075,0.0029165497981011868,-0.004063941538333893
1783169545671419400,8.35841943359375,-0.0004909439012408257,0.0007788306102156639,0.0003284101840108633
1783169545681488600,8.368488525390624,0.0016234430950134993,-0.0020209290087223053,0.0006313351914286613
1783169545691558700,8.37855859375,-0.0012935171835124493,-0.0016728537157177925,0.0020265651401132345
1783169545701627400,8.38862744140625,-0.0017049708403646946,-0.0010178415104746819,-0.0006871605291962624
1783169545711696400,8.3986962890625,-0.0011395816691219807,-0.0007912060245871544,-0.0005084625445306301
1783169545721766400,8.408766357421875,-0.0003077950095757842,-0.0019515696913003922,0.003933661617338657
1783169545731835400,8.41883544921875,0.00038009946001693606,0.0006412840448319912,0.0009075119160115719
1783169545741904400,8.428904296875,-0.000011503114365041256,0.00014254217967391014,-0.000653689494356513
1783169545751974700,8.438974609375,-0.0005036552902311087,-0.0014835838228464127,0.0000318081583827734
1783169545762043400,8.44904345703125,0.0018692677840590477,0.0007911245338618755,0.0017417481867596507
1783169545772112400,8.4591123046875,-0.0016064238734543324,0.0006747446022927761,-0.0008692150004208088
1783169545782182400,8.469182373046875,0.0006263427785597742,-0.0012186458334326744,-0.00031827623024582863
1783169545792251600,8.479251708984375,-0.002236288972198963,-0.00024872273206710815,-0.0005576941184699535
1783169545802320400,8.4893203125,-0.0011909519089385867,-0.0016510849818587303,0.002844007918611169
1783169545812390700,8.499390625,0.0005590112414211035,0.0000014062970876693726,-0.0007448678370565176
1783169545822459400,8.50945947265625,0.000056612538173794746,-0.0008377190679311752,-0.0022171044256538153
1783169545832529700,8.51952978515625,-0.00013114034663885832,0.00042382068932056427,-0.00045755389146506786
1783169545842598400,8.529598388671875,-0.000945023843087256,0.0017519877292215824,0.00019086431711912155
1783169545852667600,8.539667724609375,-0.0002744400408118963,-0.0020765727385878563,-0.000023253727704286575
1783169545862737400,8.5497373046875,0.0006237466004677117,0.001478445716202259,-0.0008933153003454208
1783169545872806700,8.559806640625,-0.0006617612671107054,0.002304558176547289,-0.0010515074245631695
1783169545882875400,8.56987548828125,-0.0002653527772054076,0.00227649649605155,-0.0014999858103692532
1783169545892945400,8.5799453125,0.0012348057935014367,0.002751604188233614,-0.00024110963568091393
1783169545903014400,8.590014404296875,0.0003179563209414482,-0.0020501716062426567,-0.001080052461475134
1783169545913083600,8.600083740234375,0.0013035922311246395,0.001252148300409317,-0.0011546211317181587
1783169545923153400,8.6101533203125,0.00027708057314157486,0.0009547513909637928,-0.0010453551076352596
1783169545933222700,8.62022265625,0.00023287208750844002,-0.0010660551488399506,-0.002617419231683016
1783169545943291400,8.63029150390625,-0.0016412294935435057,-0.001605624333024025,0.0004978515207767487
1783169545953361400,8.640361328125,0.0009622767101973295,-0.00005566515028476715,-0.001074745086953044
1783169545963430400,8.650430419921875,-0.0019395891577005386,-0.0008097374811768532,0.000024874228984117508
1783169545973499600,8.660499755859375,0.00046897376887500286,-0.0021706121042370796,0.002836905885487795
1783169545983569400,8.6705693359375,-0.0006831696955487132,0.00034115370362997055,-0.0010858799796551466
1783169545993638400,8.680638427734374,-0.001524994964711368,-0.00158777367323637,0.0014289428945630789
1783169546003707400,8.690707275390626,0.0013231546618044376,0.09939373284578323,0.043466467410326004
1783169546013777400,8.70077734375,-0.004646054469048977,0.2297370880842209,0.11141221970319748
1783169546023846400,8.710846435546875,-0.0024251630529761314,0.21392323076725006,0.10449069738388062
1783169546033916400,8.72091650390625,-0.0034307725727558136,-0.03149905055761337,-0.020737525075674057
1783169546043985400,8.7309853515625,0.00005699228495359421,-0.31643640995025635,-0.15403781831264496
1783169546054054400,8.741054443359374,0.002046640031039715,-0.13576088845729828,-0.06295610964298248
1783169546064124700,8.751124755859376,0.0017880634404718876,0.025256777182221413,0.014180372469127178
1783169546074193400,8.761193359375,0.002578223356977105,-0.0753912702202797,-0.029126355424523354
1783169546084262400,8.771262451171875,0.0005048943567089736,0.03753327950835228,0.01543858926743269
1783169546094332400,8.78133251953125,0.0020343477372080088,-0.027642792090773582,-0.016276197507977486
