time,seconds_elapsed,z,y,x
1783170014085176600,0.074176513671875,0.5064098914802074,0.07395692435353994,0.03198390529248863
1783170014095246300,0.084246337890625,0.5190507618665695,0.055444823846220966,0.10494224706273525
1783170014105315300,0.0943154296875,0.482167430627346,0.06411021473035217,0.17545403593108058
1783170014115385300,0.10438525390625,0.4002642234444618,0.108196463085711,0.2685042582133785
1783170014125455400,0.114455322265625,0.38630642524063585,0.1558699222780764,0.30435788107868283
1783170014135525400,0.124525390625,0.49619537145793435,0.20418650167956948,0.33497345716003324
1783170014145595400,0.134595458984375,0.5217606053471565,0.1389675950549543,0.35253914366271344
1783170014155665400,0.14466552734375,0.24729893656671045,0.015257628756016491,0.2624450312396511
1783170014165734400,0.154734375,-0.029340076252818106,-0.08491787882894276,0.07525200566537678
1783170014175804400,0.164804443359375,-0.16427461639940738,-0.16891528181210158,-0.14544409759268165
1783170014185874400,0.17487451171875,-0.13926175569593904,-0.245065478426218,-0.3312069807659834
1783170014195944200,0.184944091796875,-0.04413783241212368,-0.2913414919108152,-0.4581127474315464
1783170014206014500,0.195014404296875,0.08752338515222072,-0.31744594724327324,-0.5196199400566518
1783170014216084200,0.205084228515625,0.18021861998438835,-0.31838951170369983,-0.46125122812036423
1783170014226153500,0.215153564453125,0.16696633970141408,-0.3072165219128132,-0.33556342240981757
1783170014236223500,0.225223388671875,0.21319734500050544,-0.1980434688799083,-0.1992495019351132
1783170014246293200,0.235293212890625,0.2753478039652109,-0.13276084936931729,-0.05959746827995404
1783170014256363300,0.24536328125,0.2703063026666641,-0.1180406884908676,0.06041693143667653
1783170014266433300,0.255433349609375,0.19838731388151645,-0.09343523954451084,0.08183036114238203
1783170014276503300,0.26550341796875,-0.05560848997533321,-0.10517653074264526,0.05821551240226253
1783170014286572500,0.275572509765625,-0.31204817985296246,-0.1393180159278214,-0.03484444582276046
1783170014296642300,0.285642333984375,-0.3669984981805086,-0.20593802152201532,-0.09515853793947025
1783170014306712300,0.29571240234375,-0.34551439612507817,-0.24361308766081927,-0.09298979733195155
1783170014316782600,0.305782470703125,-0.27346681252419947,-0.20917992605268954,-0.041086354153323915
1783170014326852400,0.315852294921875,-0.19017361228764057,-0.1700947008550167,0.0329180078048259
1783170014336922400,0.32592236328125,-0.11709668563902377,-0.16481237653791903,0.09402542399000376
1783170014346991400,0.335991455078125,0.028334114080667494,-0.19141908230409024,0.10638183314548805
1783170014357061400,0.346061279296875,0.17419278382360934,-0.2014437788426876,0.08309386000586673
1783170014367131400,0.35613134765625,0.26397008538246153,-0.24919863270819187,0.07412497439682483
1783170014377201400,0.366201416015625,0.30800854907333847,-0.3038736412256956,0.008708152313623577
1783170014387271400,0.376271484375,0.36603812871575353,-0.3278910611510277,-0.02719325521616265
1783170014397341200,0.386341064453125,0.4275444445580244,-0.3436912723511457,-0.01381312903612852
1783170014407410400,0.396410400390625,0.45295068849325176,-0.3266527515277266,0.012150602651387453
1783170014417480400,0.40648046875,0.4306611152738333,-0.2905328058764338,0.05899944758787751
1783170014427550200,0.41655029296875,0.41167701334059237,-0.2518972241424024,0.11094035496637225
1783170014437620500,0.426620361328125,0.19164660744965076,-0.2736471375271678,0.1743301099350676
1783170014447690200,0.436690185546875,-0.09674363344013691,-0.2613604874059558,0.17214001601226628
1783170014457759500,0.446759521484375,-0.21104455088078974,-0.1765774870030582,0.24348460244294254
1783170014467829500,0.45682958984375,-0.2136567792057991,-0.08399784137457608,0.31204459965638814
1783170014477899300,0.466899169921875,-0.09187924227416515,-0.05217515452578664,0.33791926482096313
1783170014487969300,0.47696923828125,0.07097966210842133,-0.08806348337829112,0.347534503775835
1783170014498039300,0.487039306640625,0.17797054879665375,-0.07381415488198399,0.3128734516959637
1783170014508109300,0.497109375,0.311672332277894,-0.07683817887827754,0.27594701196737587
1783170014518178600,0.507178466796875,0.2245353160947561,-0.204452166878432,0.2523872361490503
1783170014528248300,0.517248291015625,0.023120178824663162,-0.20709654390737414,0.15534860181771218
1783170014538318300,0.527318359375,-0.06988952878415584,-0.10161270078122615,0.05417144290953874
1783170014548388400,0.537388427734375,-0.08222060256898403,-0.06352437766641378,0.04012907169479876
1783170014558458400,0.547458251953125,-0.0948398456454277,-0.06999152785390615,0.07492017989512532
1783170014568528400,0.5575283203125,-0.21725626500248907,-0.08702887963354587,0.05442249506115913
1783170014578597400,0.567597412109375,-0.12854805397987365,-0.1076800379961729,-0.05496653880998492
1783170014588667400,0.57766748046875,0.1097235265225172,-0.14995529140681027,0.006947846376523375
1783170014598737200,0.587737060546875,0.1516208865314722,-0.17858911908641456,0.08744524188209324
1783170014608807400,0.597807373046875,0.10434300252795219,-0.06875073401257395,0.08235467727743088
1783170014618877400,0.60787744140625,0.014603694891929626,0.09106324971616267,0.10227989598568528
1783170014628947200,0.617947265625,-0.0810936443656683,0.12875877412110567,0.11263481085933744
1783170014639016400,0.628016357421875,-0.24942133554816245,0.13607918013706802,0.009896613179519773
1783170014649086200,0.638086181640625,-0.34376492210924625,0.12681129331514238,-0.10544533774666487
1783170014659156200,0.64815625,-0.42160277954936026,0.08565028475672005,-0.20550076261591166
1783170014669226500,0.6582265625,-0.5245014284878969,0.03076338705420494,-0.2125179844342172
1783170014679296300,0.668296142578125,-0.6397714832216501,0.06408230381011963,-0.1478532776262611
1783170014689366300,0.6783662109375,-0.7070850240379571,0.11167349154651164,-0.08263272703383118
1783170014699435500,0.688435546875,-0.5776449896544218,0.21047858756110072,-0.06107307552415877
1783170014709505300,0.69850537109375,-0.3520288925856352,0.27228534765467044,-0.087603537716344
1783170014719575300,0.7085751953125,-0.06584639087319373,0.24057708096578717,-0.016035663923807442
1783170014729645300,0.718645263671875,0.12175649414360523,0.1888674981251359,-0.03475227402728051
1783170014739715300,0.72871533203125,0.14084814810454846,0.14646642637774349,-0.05969546702802181
1783170014749784600,0.73878466796875,0.06799333977401256,0.13249737612754106,-0.1284295056341216
1783170014759854300,0.748854248046875,-0.09056406802237034,0.12629603726938365,-0.21392244440466165
1783170014769924400,0.75892431640625,-0.23140052568912506,0.1615818701840937,-0.30500414309296753
1783170014779994400,0.768994384765625,-0.23925649988651274,0.19344751939177512,-0.39523196489829565
1783170014790064400,0.779064453125,-0.07003332116901874,0.09593436288386582,-0.5008513440376148
1783170014800134400,0.789134521484375,0.17852350650429724,-0.06558116406574845,-0.5005635766047984
1783170014810203400,0.799203369140625,0.23822306518554687,-0.18185177414417267,-0.5078419701099396
1783170014820273400,0.8092734375,0.2084317380338907,-0.2045971283070743,-0.5104828034749255
1783170014830343200,0.81934326171875,0.09920037894248962,-0.15119593911767004,-0.4718864212401211
1783170014840413400,0.829413330078125,0.05292027380466461,-0.022278028912097216,-0.4121752817189321
1783170014850483500,0.8394833984375,0.0557744941920042,0.0717139677323401,-0.31209928898569195
1783170014860553200,0.84955322265625,0.12124386844635009,0.10791370062157511,-0.22911197636052966
1783170014870622500,0.85962255859375,0.22664368655085562,0.1556025035135448,-0.18442297633904964
1783170014880692200,0.869692138671875,0.30895605905652046,0.2245920147180557,-0.16220752780176698
1783170014890762200,0.87976220703125,0.3351917395532131,0.1659475180476904,-0.12933131331205366
1783170014900832500,0.88983251953125,0.3287251738876104,0.11289514229595661,-0.1651738667940721
1783170014910902300,0.89990234375,0.29570553233921526,0.0677512015812099,-0.27606377021484074
1783170014920972300,0.90997216796875,0.3273790199756622,0.05659633196890354,-0.36098720200173556
1783170014931041300,0.920041259765625,0.3540606906741857,0.011381810235977173,-0.3806913983704522
1783170014941111300,0.930111328125,0.3144388743817806,-0.059854530047252774,-0.44055465971343216
1783170014951181300,0.940181396484375,-0.02319908927977085,-0.15560995616763829,-0.48088988497219975
1783170014961251300,0.950251220703125,-0.40717268765866754,-0.2463723232410848,-0.49585795619711276
1783170014971321300,0.9603212890625,-0.5630114841461181,-0.22239691582657395,-0.3610799948517233
1783170014981391400,0.970391357421875,-0.3590291267365217,0.044253713876754044,-0.08030519740171731
1783170014991460400,0.98046044921875,-0.22086568767130374,0.21615685239322482,0.18721812348291278
1783170015001530400,0.9905302734375,-0.12654255937635897,0.2256147088292986,0.04741575810424983
1783170015011600100,1.00060009765625,0.007385434076189994,0.1378181327588856,-0.025688568007946014
1783170015021670400,1.01067041015625,0.07642506803274154,0.026371581836044787,0.06419131714254617
1783170015031740400,1.020740478515625,0.09742518596351146,-0.005514671768248081,0.09727036072798073
1783170015041809700,1.0308095703125,0.18132862705290317,-0.00809343621507287,-0.09529116960950196
1783170015051879400,1.04087939453125,0.38926059887111186,0.0054010553259402514,-0.24880700304210185
1783170015061949400,1.050949462890625,0.2578758601605892,-0.08228986841291189,-0.27183687323480843
1783170015072019500,1.06101953125,-0.0665144993931055,-0.21571232349611819,-0.21780228151269257
1783170015082089500,1.07108935546875,-0.17437632369697093,-0.1809365589953959,-0.08582220725752412
1783170015092159500,1.081159423828125,-0.0585410362958908,-0.08273308213576674,0.051823418478667733
1783170015102228700,1.091228759765625,0.21833353884518145,0.05038812497854232,0.16619915472120045
1783170015112298500,1.101298583984375,0.7382622525900602,0.35360922057963906,0.275914132611081
1783170015122368500,1.111368408203125,0.6527344251692294,-0.08917710717599839,0.36860410674624144
1783170015132438500,1.1214384765625,0.6380418829500675,-0.38423396634813395,0.11336005639396607
1783170015142508500,1.131508544921875,0.8694336408108473,-0.21916703052725642,-0.035350934040173886
1783170015152578600,1.14157861328125,0.9267729001015425,-0.11446973466891795,0.01866027680635452
1783170015162647600,1.1516474609375,0.8209539798021316,-0.17884682017453013,0.09082549543753266
1783170015172717600,1.161717529296875,0.8506511989295482,-0.1658854856621474,0.03216689717657864
1783170015182787300,1.171787353515625,1.1128817471683026,-0.07753774198237806,-0.06829078835062682
1783170015192857600,1.181857666015625,1.3407628665596245,-0.1807441782284528,-0.1250345659662038
1783170015202927600,1.191927734375,1.6335300073593855,-0.3443338445710018,-0.15732238610871135
1783170015212996600,1.20199658203125,1.5019389324218033,-0.06686097474321723,-0.1333590344581753
1783170015223066600,1.212066650390625,1.1876315754652023,0.4941693820556625,-0.17431502196379006
1783170015233136400,1.222136474609375,1.1928753213375807,0.688770418864116,-0.21325126714482903
1783170015243206400,1.232206298828125,1.232851357895136,0.5385304652970284,-0.2583254305589944
1783170015253276700,1.242276611328125,1.6057406676799058,0.3424793392781168,-0.46431496307253833
1783170015263346400,1.252346435546875,2.1376415587693454,0.11295016041882336,-0.7447863205965608
1783170015273415700,1.262415771484375,2.4442718052268027,-0.1823677608422935,-0.9978096261594444
1783170015283485400,1.2724853515625,2.6626474296480414,-0.299822027747333,-1.2222564602531492
1783170015293555500,1.282555419921875,2.756437473979592,-0.22473792599476872,-1.268164955599606
1783170015303625500,1.29262548828125,3.0155870073378086,-0.26802001836039124,-0.8017858996041118
1783170015313695500,1.302695556640625,3.0957524309426545,-0.012257131765782832,-0.7041293160375207
1783170015323765500,1.312765625,2.9716672015905377,0.5194164533738047,-0.7923202982529998
1783170015333834500,1.32283447265625,3.102058253088593,1.2097625971220434,-1.126417958959192
1783170015343904500,1.332904541015625,1.9707722497016191,0.8370227788105606,0.13799071284681558
1783170015353974500,1.342974609375,1.8392349507778882,0.4325562813706696,0.32109460594393313
1783170015364044500,1.35304443359375,2.2235393885463477,0.45662966926693915,-0.5331926844656467
1783170015374114600,1.363114501953125,2.700364873623848,0.027378128530085085,-1.383271344204247
1783170015384183300,1.373183349609375,3.1975814048230644,-0.9063014822199941,-0.9611859687697142
1783170015394253600,1.383253662109375,3.3236522550344465,-1.7886223693937062,0.01282609076015651
1783170015404323600,1.393323486328125,2.0677456002444026,-1.7829386246688663,0.7676417840704322
1783170015414393300,1.403393310546875,-1.0181377631127835,-1.1994513387270271,0.5944749822936952
1783170015424463600,1.413463623046875,-4.131764288920164,-0.4277523882202804,0.297861468264088
1783170015434533600,1.42353369140625,-6.2987903476059435,0.06524974015429616,0.6424483012154698
1783170015444602400,1.433602294921875,-7.371126733896136,0.3718951841808855,1.555521177266538
1783170015454672600,1.443672607421875,-8.097199366998671,-0.0038202889405190943,1.825013679332286
1783170015464742400,1.453742431640625,-8.696731778812408,-1.3013698905870317,1.1209731375567615
1783170015474812400,1.4638125,-10.213846653056144,-2.78400644890666,0.020475326871685684
1783170015484882700,1.473882568359375,-11.461550712168217,-2.8674159689992664,-1.0295875240184367
1783170015494951400,1.483951416015625,-13.470485811525583,-2.2301006467580793,-0.8202399863138794
1783170015505021700,1.494021728515625,-15.616575465166568,-1.1435041183166206,0.7151819673843681
1783170015515091500,1.504091552734375,-17.116618793100116,0.29088877970725296,1.8941902375414967
1783170015525161500,1.514161376953125,-17.96504413267374,1.3620168131209909,1.0294207891494036
1783170015535231500,1.5242314453125,-17.594327490752935,1.2691082277990877,0.027780535318516195
1783170015545301500,1.534301513671875,-15.140664756846427,0.29430034171640873,-1.08240755231902
1783170015555370500,1.54437060546875,-11.633164000892638,-0.5895091765798628,-1.8598188891232013
1783170015565440500,1.5544404296875,-11.013734463953972,-0.7761717120066285,-1.5750686121709643
1783170015575510500,1.564510498046875,-12.801910843145846,0.601825345056504,-0.9929568523660302
1783170015585580500,1.57458056640625,-11.457978114378452,1.8938738650687037,0.5120903482694179
1783170015595650600,1.584650634765625,-9.354644483402371,2.2090227874159813,1.6098917960099874
1783170015605719600,1.594719482421875,-6.364423387989402,2.5232068102538583,1.779124473208189
1783170015615789300,1.604789306640625,-3.2811727112233635,2.2074667901456353,1.3694294274650514
1783170015625859600,1.614859619140625,-1.2495721910715103,1.484700358981639,0.35425391169134524
1783170015635929600,1.6249296875,0.8048229292124509,0.1635585770845413,-0.43658816723525523
1783170015645999400,1.634999267578125,3.763904789996147,-1.049317987339571,0.009764728144870605
1783170015656069600,1.645069580078125,7.168378302195668,-0.9199623433038592,0.25009525275435296
1783170015666138400,1.655138427734375,10.226190586322545,-1.0547787369634956,0.5149532634198666
1783170015676208400,1.66520849609375,11.60514903576374,-1.3053843869253992,0.11412004444841295
1783170015686278700,1.675278564453125,11.653615252768994,-0.8320439674846828,-0.04592142789326608
1783170015696348400,1.685348388671875,10.844192720806598,-0.21533742576912043,0.13562891561891882
1783170015706418400,1.69541845703125,10.141031592214107,0.20360928631350397,0.08382927987463772
1783170015716487400,1.7054873046875,10.386780961251258,0.4474781023010611,0.14793945807237177
1783170015726557400,1.715557373046875,11.718700596141815,0.7362523740723729,-0.8850031119950115
1783170015736627500,1.72562744140625,13.240013506597279,0.024259558118134735,-1.662287315288186
1783170015746697500,1.735697509765625,14.273112691998481,-1.1302288955494761,-0.7921639386475086
1783170015756767500,1.745767578125,14.627384395074843,-1.1449879271335899,-1.4292013207301497
1783170015766837500,1.75583740234375,14.801483070874212,-1.0805869127631187,-1.9294620419308541
1783170015776906500,1.765906494140625,14.554894328403472,-1.2047742873154579,-1.7086919235885143
1783170015786976500,1.7759765625,13.617403050410747,-0.9624427638977765,-1.4961241086632013
1783170015797046500,1.786046630859375,11.995785014641283,-0.44472178933024403,-1.2812876181535422
1783170015807116500,1.796116455078125,10.3160187412858,-0.08021335439980029,-1.1200080919168889
1783170015817186600,1.8061865234375,8.715773748412728,0.29108970910683274,-1.0837735069099812
1783170015827255600,1.816255615234375,7.786614829957485,0.4687779338307678,-1.074218400644511
1783170015837325600,1.82632568359375,7.945529380628466,0.6277144040726125,-1.04993524245508
1783170015847395300,1.836395263671875,8.151527169513702,0.22409823985174296,-1.2889885479196905
1783170015857465600,1.846465576171875,8.257392851564287,-0.14509791450351475,-1.8289074719004332
1783170015867535600,1.85653564453125,8.714654973515868,0.20447876262441275,-2.0261212119579315
1783170015877604600,1.8666044921875,7.911512544736266,0.055262891408056014,-2.2947098970517517
1783170015887674600,1.876674560546875,6.166505445185304,0.322771964571625,-2.5058213756889103
1783170015897744400,1.886744384765625,5.476201460078358,0.9902962548546492,-1.9177993689268826
1783170015907814400,1.896814453125,4.6919940333932635,0.881899739152193,-1.5345399101667105
1783170015917884700,1.906884765625,3.1262247260957956,0.5207438295200467,-1.4330616494201123
1783170015927954400,1.916954345703125,1.0547136358380318,0.3019268910720944,-1.1264734885387122
1783170015938023700,1.927023681640625,-1.0618956562966109,0.30531624124944207,-0.22390052532255647
1783170015948093400,1.937093505859375,-3.6209067703813314,0.24854352980032562,1.1134997329361735
1783170015958163500,1.94716357421875,-7.195396657502651,0.21871567003056405,1.6132608340516685
1783170015968233500,1.9572333984375,-11.158569635868071,0.1845896746754646,0.4672505416003987
1783170015978303500,1.967303466796875,-15.194363613808154,-0.19342223882004617,-2.5709268850669265
1783170015988372500,1.97737255859375,-18.49082624862194,-0.837142459667474,-5.084692790019512
1783170015998442500,1.9874423828125,-19.42243606736064,-0.9094782125599682,-5.436729281389713
1783170016008512500,1.997512451171875,-20.536082369160653,-0.35476007111519575,-3.9848496803835034
1783170016018582500,2.00758251953125,-20.507330906450747,0.4293936526212841,-1.84409028185457
1783170016028652500,2.017652587890625,-18.547218582451343,0.8512948305953294,0.05603555628098547
1783170016038722000,2.02772216796875,-17.160495344227552,0.8935402733895927,1.613189960772544
1783170016048791300,2.037791259765625,-17.795002038788795,0.7783372194774448,2.6567650936111806
1783170016058861300,2.047861328125,-18.566736937391756,1.1379345014907418,3.006792875507474
1783170016068931000,2.05793115234375,-16.18260308226347,1.4190211413688958,3.1066333059191704
1783170016079001000,2.0680009765625,-12.81367259261012,1.3742090629570185,3.043303281781077
1783170016089071000,2.078071044921875,-10.670028578555584,1.2511794801376759,2.6303733457699416
1783170016099140000,2.08814013671875,-8.153297101795673,0.8344371462315321,2.4525901362389324
1783170016109210400,2.09821044921875,-5.6726206887573,-0.13830129489963874,2.2847803314507007
1783170016119280000,2.108280029296875,-4.143625407105684,-0.9687992933176457,2.1941657022848724
1783170016129350100,2.11835009765625,-2.0139514662146567,-0.8995247546266764,1.830133944955468
1783170016139420200,2.128420166015625,1.008647465711832,-0.6012527328003198,1.6131304856702684
1783170016149490200,2.138490234375,4.320829647704959,-0.6365883231408894,1.2973523255087434
1783170016159559200,2.14855908203125,7.518049233478307,-1.1108781522609292,0.21449560465011744
1783170016169629200,2.158629150390625,10.135336010921002,-1.64648783474043,-1.0255912939891219
1783170016179699200,2.16869921875,11.551729580265283,-2.0641712488889694,-1.8418287666633724
1783170016189769000,2.17876904296875,12.279294497752188,-2.449476388132572,-1.8149777307473123
1783170016199839200,2.188839111328125,13.097888178163766,-2.658282804697752,-1.4534480193667112
1783170016209908200,2.198908203125,13.232380819761753,-2.4127140529245135,-0.9399090797241777
1783170016219978000,2.20897802734375,12.553366290432214,-1.9147262450918554,-0.22720227028168735
1783170016230048300,2.21904833984375,11.576032831394672,-1.2445154922038315,0.21043277565799653
1783170016240118300,2.2291181640625,10.641679266905784,-0.6734673435311764,0.16023820049017667
1783170016250188000,2.23918798828125,10.120112722826004,-0.36058797355107963,-0.16565299208052456
1783170016260257300,2.24925732421875,9.721182378333806,-0.14330094808414578,-0.7498290640041232
1783170016270327000,2.2593271484375,9.10854089410007,0.12801065916754303,-1.4674886735484003
1783170016280397000,2.26939697265625,8.673170285961032,0.2053114140562713,-2.1650956751450896
1783170016290467300,2.27946728515625,8.495020873466133,0.19127777413725852,-2.7976018435388803
1783170016300537000,2.289537109375,8.75388925179541,0.4455046102710068,-2.5346897427767514
1783170016310606300,2.2996064453125,9.323100759625435,1.0096189410924912,-1.639240640091151
1783170016320676000,2.309676025390625,9.497287113708257,1.5595736675277352,-0.5008955119729042
1783170016330746000,2.31974609375,9.150667971211671,2.098108151412755,0.3829986158668995
1783170016340816400,2.32981640625,8.242811953026056,2.3594817905612286,0.9673615886647253
1783170016350886100,2.33988623046875,7.314322896656393,2.5034523084700107,1.2166125360820441
1783170016360956200,2.3499560546875,7.570512995687126,2.638381003397703,1.1013275029748677
1783170016371025200,2.360025146484375,8.31137753973007,2.5046406414717435,0.7588105351001024
1783170016381095200,2.37009521484375,8.810949109622836,2.0327442833594978,-0.057435120880603784
1783170016391165200,2.380165283203125,9.174041248014568,1.4089511443838476,-1.2604708939656615
1783170016401235200,2.390235107421875,8.696666312360763,0.8023794815830886,-1.6934867556720972
1783170016411305200,2.40030517578125,6.827922943025827,0.6209009246654809,-1.1365559796791522
1783170016421374200,2.410374267578125,4.008012821567059,0.6003649171151221,-0.18259009835608303
1783170016431444200,2.4204443359375,1.3203612990438938,0.37013884203284975,0.7630909888982772
1783170016441514200,2.43051416015625,-0.5137082317948342,-0.2346317626953125,1.0034838724035768
1783170016451584000,2.440583984375,-2.769672218605876,-1.6195875528551638,0.3218041424527764
1783170016461654300,2.450654296875,-6.469329285097122,-3.726671622405946,-0.9130955262742936
1783170016471723000,2.460722900390625,-12.11708967336416,-5.599948251256347,-2.554392222112417
1783170016481793300,2.470793212890625,-18.187656956273315,-5.925419976305961,-2.8208254827380177
1783170016491863300,2.48086328125,-22.711429681468008,-4.661039215420186,-0.8747304320447147
1783170016501933000,2.49093310546875,-25.73005035741329,-2.9533626063540575,1.3192201661847531
1783170016512003000,2.501003173828125,-27.713419638359547,-1.3140258124120532,1.6210526569716632
1783170016522073000,2.511072998046875,-29.082040233659743,-0.680965955658257,0.0022906316878274083
1783170016532142000,2.52114208984375,-29.526543411803242,-0.9504247015848756,-2.029478997953236
1783170016542212400,2.53121240234375,-28.031628678929803,-0.8805553388059139,-2.954524928131699
1783170016552282000,2.5412822265625,-23.70619709038734,-0.5294841853365302,-2.451317047563195
1783170016562352000,2.55135205078125,-17.42007099404335,-0.23603286166489124,-1.5084027216084301
1783170016572422100,2.561422119140625,-11.798095035374164,-0.13103139522820711,-0.3972127999845892
1783170016582491100,2.5714912109375,-9.09065452427566,-0.4908142629414797,0.21597323945462701
1783170016592561200,2.58156103515625,-7.242267714270949,-1.1323029984097928,0.29092450860776004
1783170016602631200,2.591631103515625,-4.0354198839306825,-2.2989751532807943,-0.18242721767826003
1783170016612701200,2.601701171875,0.24296529127657412,-2.7617759123981,-0.4105305101865902
1783170016622771200,2.611771240234375,3.466149339389801,-2.408345336320996,0.2803298666941002
1783170016632840200,2.621840087890625,4.369973325580358,-2.0699854881256816,1.6007606873102485
1783170016642910200,2.63191015625,4.811705869966745,-0.8600066179044544,2.939904574365914
1783170016652980000,2.64197998046875,5.650120103135705,0.7285965986222028,3.3550849196523425
1783170016663050200,2.65205029296875,6.686902360963821,0.9967350557304918,2.8217370446249843
1783170016673120300,2.662120361328125,7.641426606822013,0.2217430550277233,0.9118939684648066
1783170016683189200,2.672189208984375,8.69657980312109,-0.9228209476053714,-0.6863008869454265
1783170016693259300,2.68225927734375,9.603211832469702,-1.5952653047643601,-1.4070049787521361
1783170016703329000,2.6923291015625,10.260484485590457,-1.646583842460811,-1.5008387160949408
1783170016713399300,2.7023994140625,10.201122780561446,-1.686138730996847,-2.189132384292781
1783170016723469300,2.71246923828125,9.400480936425923,-1.7371404578290879,-2.164007587647438
1783170016733539000,2.7225390625,8.939685379651188,-1.1503265116825698,-1.8720847887173293
1783170016743608300,2.7326083984375,8.682742416426539,-0.6694945674426853,-1.6806987319000064
1783170016753678000,2.742677978515625,8.612854056686162,-0.19389683406185357,-1.307630120025575
1783170016763748000,2.752748046875,8.644390766200424,0.20244342087190598,-1.1249431371662766
1783170016773818400,2.762818359375,8.62966256814599,0.4200600801520049,-1.0116372221123426
1783170016783888100,2.77288818359375,8.777178357446193,0.3173802615959197,-1.1573965231340377
1783170016793957000,2.78295703125,9.19561712000668,-0.04104454257190227,-1.5074160486586392
1783170016804027100,2.793027099609375,9.173414056026935,-0.21528927577845752,-1.5146872087053953
1783170016814097200,2.80309716796875,8.838994469889998,-0.0821137081284076,-1.1509984195947647
1783170016824167200,2.813167236328125,8.35500099287927,0.07414112181402742,-0.8780404333755374
1783170016834237200,2.8232373046875,8.106272900292277,-0.0007195464462041854,-0.7493563319258392
1783170016844306200,2.83330615234375,8.24291424435675,-0.05072203310802579,-0.763524119618535
1783170016854376200,2.843376220703125,8.429046472299099,-0.096093498968333,-0.9285593451268971
1783170016864446200,2.8534462890625,8.404713995075225,-0.1656593487560749,-1.1115152080554513
1783170016874516200,2.86351611328125,7.978530901998281,-0.05223601786755025,-1.17637134578228
1783170016884586000,2.8735859375,7.717651183846592,0.045563481301069256,-1.035887647075951
1783170016894656300,2.88365625,7.701627100762725,0.1252579263933003,-0.9804479377962648
1783170016904725000,2.89372509765625,8.090322466966509,0.25160715515464543,-1.0000354124501347
1783170016914795300,2.903795166015625,8.720495516237616,0.34707097791731356,-1.0934341193765402
1783170016924865300,2.913865234375,9.424261624985933,0.3871101428389549,-1.0362567726492882
1783170016934935000,2.92393505859375,9.95984266589284,0.5409136341065168,-0.825872658438608
1783170016945005000,2.934005126953125,9.536549449038505,1.0372139272436498,-0.2690850172434002
1783170016955074000,2.944073974609375,8.457609134438634,1.6328597068823874,0.27565478755515066
1783170016965144000,2.95414404296875,7.588417485690116,2.4598165803611276,0.4961025055427104
1783170016975214300,2.96421435546875,5.756325976926088,2.0616658419393,0.41823600653000176
1783170016985284000,2.9742841796875,3.7139626552194356,1.4197170146785676,-0.08736830418836325
1783170016995354000,2.98435400390625,1.392611127218604,0.32723961150497194,0.1170136926638428
1783170017005423000,2.994423095703125,-0.8578045778155327,-1.8714171185888349,0.7536344476364553
1783170017015493000,3.0044931640625,-1.5036381375551222,-3.7638793632939453,0.9461823878400027
1783170017025563100,3.014563232421875,-3.7518519486308097,-4.669268991366028,1.05031993092373
1783170017035633200,3.024633056640625,-9.64823404650092,-4.787131400680542,-0.47523105549290773
1783170017045703400,3.034703369140625,-17.565141143757103,-3.725186644545197,-2.754759019373357
1783170017055772400,3.0447724609375,-26.450380062949655,-1.8285696182481943,-3.546510577827692
1783170017065842400,3.054842529296875,-33.48878816940784,0.6343545727394521,-3.135465140388906
1783170017075912400,3.064912353515625,-34.13826446956396,1.9118577039182185,-2.483719433996081
1783170017085982200,3.074982177734375,-29.581596021461486,0.6572513180717825,-2.801706940770149
1783170017096052500,3.085052490234375,-23.34655947636366,-1.6873809861429034,-3.111894295187294
1783170017106121200,3.095121337890625,-17.641439955061674,-2.736163039974868,-1.6180479221977293
1783170017116191500,3.10519140625,-15.526799917173385,-2.1667131933443247,0.6367813614949583
1783170017126261500,3.115261474609375,-16.12213312373161,-1.249701078148186,2.406113339485228
1783170017136331300,3.125331298828125,-16.507828723597527,-0.6438580218829214,2.9842785536214707
1783170017146401300,3.1354013671875,-15.686206050753592,-0.39725656606107945,2.151879050697386
1783170017156470300,3.14547021484375,-13.4402029014647,-0.5684703340739011,0.5546513232862577
1783170017166540300,3.155540283203125,-9.407569433382154,-1.3223027885004877,-0.6983340737622231
1783170017176610600,3.165610595703125,-5.198399248698354,-1.8884478944972156,-0.9867992065191268
1783170017186680300,3.175680419921875,-2.14201495154798,-1.79586079621464,-0.4984917022341862
1783170017196750300,3.185750244140625,0.8391419629216194,-1.5822060628354548,0.29897209638711064
1783170017206820600,3.195820556640625,3.2308272563427685,-1.0613593574628233,1.5545010404385626
1783170017216889300,3.205889404296875,4.268206895542145,-0.41591910788975656,2.924058478197455
1783170017226959400,3.21595947265625,5.004473005878925,0.1892396924383938,2.9004247968927026
1783170017237029400,3.226029296875,5.550485424429178,0.3336741015318781,2.029533066228032
1783170017247099400,3.236099365234375,6.001080489706993,0.41032011883892117,0.9217370978914201
1783170017257169400,3.24616943359375,6.783813752186298,0.1086467641364783,-0.38990678782016036
1783170017267238400,3.25623828125,7.912478174898028,-0.8571499863643198,-1.3974420545063913
1783170017277308400,3.266308349609375,9.212250274899601,-1.4661319982424377,-1.7606453981876373
1783170017287378400,3.27637841796875,10.57684059177041,-1.532191739605367,-1.5896346054010093
1783170017297448400,3.286448486328125,11.120033276724815,-1.241461949852109,-1.2135294753748922
1783170017307518500,3.2965185546875,10.630774426531792,-0.7617670468181371,-0.5488253936117514
1783170017317587500,3.30658740234375,10.021298128330708,-0.4614725427208468,0.06316241248622537
1783170017327657500,3.316657470703125,9.356796108478306,-0.18517923806644976,0.390462558539398
1783170017337727200,3.326727294921875,8.881014579495787,-0.14749102018512786,0.2705127119589597
1783170017347797500,3.336797607421875,8.772902579823135,-0.19680822799652814,-0.04571927465097978
1783170017357867500,3.346867431640625,9.293127646166086,-0.11254114122651517,-0.2838843443052843
1783170017367936300,3.356936279296875,10.359897630500793,-0.0381621190033853,-0.543640501787141
1783170017378006500,3.367006591796875,11.228947240430116,-0.10868417353741824,-0.6940393722429871
1783170017388076300,3.377076171875,11.24453176305294,0.12801599292978644,-0.41358602529969063
1783170017398146300,3.387146240234375,10.717007771873474,0.26248839545734226,0.030081396139413116
1783170017408216600,3.397216552734375,9.609179216441511,0.4974060624219477,0.32918902853969484
1783170017418285300,3.407285400390625,8.232595679438115,0.7418960790477692,0.3741925744030624
1783170017428355300,3.417355224609375,7.410256382757425,0.878929271974042,0.3466128588862717
1783170017438425300,3.42742529296875,7.50506349517703,0.7935404146324843,0.26299440875072033
1783170017448495400,3.437495361328125,7.80907859070003,0.5809764721646905,0.0013956464763265103
1783170017458565400,3.4475654296875,8.00593153462112,0.6652166709277778,-0.3455173917997628
1783170017468635400,3.457635498046875,7.890060006862878,0.8310431929443031,-0.4407473327413201
1783170017478704400,3.467704345703125,7.169551437628269,1.173290403966978,-0.23444741910435257
1783170017488774400,3.4777744140625,6.7066416651785365,2.316992748269439,0.6977602924622595
1783170017498844400,3.487844482421875,6.549846590879559,1.6681357490554451,0.6910317148596048
1783170017508914400,3.49791455078125,6.097020990070701,0.9036083706784993,-0.7154035742457956
1783170017518984200,3.507984130859375,6.559605183827877,1.2139416363723576,-1.034008847592026
1783170017529053400,3.518053466796875,7.340705876669287,1.197061667111516,-0.8756965736631304
1783170017539123200,3.528123291015625,7.033550729554891,1.1433676324553788,-0.29775694844368844
1783170017549193500,3.538193359375,6.080972941589355,1.3339841662049292,0.26832068180739876
1783170017559263500,3.548263427734375,4.958617263633013,1.1400493747528642,0.706302056966722
1783170017569333200,3.558333251953125,2.7905250370204446,0.37325828922763465,1.7900974103823304
1783170017579402500,3.568402587890625,1.0794687223881483,-0.10547229881882667,2.5369141408279536
1783170017589472300,3.57847216796875,1.0571925931721926,-0.44127150274589655,2.7136460877403614
1783170017599542300,3.588542236328125,2.0915356411546466,-1.5204147925719618,1.6453712518006562
1783170017609612500,3.598612548828125,0.667040013897419,-2.6046494141876697,-1.4290407233409583
1783170017619682300,3.608682373046875,-4.801642741113901,-3.461974976314604,-3.68290116200149
1783170017629751600,3.61875146484375,-11.493163994050025,-2.754712549883127,-3.89248236233145
1783170017639821300,3.6288212890625,-20.576288122820852,-0.7708199026498943,-2.430473727629334
1783170017649891300,3.638891357421875,-30.873936510157584,1.049528342154622,-0.5997978943495079
1783170017659961300,3.64896142578125,-36.99391810457706,2.1401360059335826,-0.9327962520442903
1783170017670031400,3.65903125,-36.98471071577072,1.005927539228648,-3.062555971522629
1783170017680100400,3.669100341796875,-33.5390336710453,-0.7946532712452113,-5.171974183109402
1783170017690170400,3.67917041015625,-29.835484273290632,-1.8113849669523536,-4.728442188085616
1783170017700240400,3.689240478515625,-27.29637496050596,-1.496226253863424,-2.385523994312435
1783170017710310400,3.699310302734375,-24.842093802440164,-0.8334396596267819,-0.20200448146536945
1783170017720380400,3.70938037109375,-21.157546042275428,-0.7686945079937577,0.9155215843774378
1783170017730449400,3.719449462890625,-16.693942831361294,-0.8872198381964117,0.6602208354018628
1783170017740519200,3.729519287109375,-11.512095489013195,-1.4089368235975503,0.07446596985422074
1783170017750589400,3.73958935546875,-6.318446649712324,-1.5880296544224022,-0.27618586222454905
1783170017760659500,3.749659423828125,-0.6529565434873104,-1.297946199748665,-0.5755385188944637
1783170017770729200,3.759729248046875,4.0610704580157995,-0.8842761128947139,-0.4088196511480957
1783170017780798500,3.769798583984375,6.144685827565193,-0.5709449074938893,-0.0014562632229179143
1783170017790868200,3.7798681640625,6.434760660541057,-0.17294855591617522,0.5701145210843533
1783170017800938200,3.789938232421875,6.213228617915511,0.7111777001790702,0.9591230448905378
1783170017811008500,3.800008544921875,5.9767971123218535,2.490942955508828,2.1984140073791143
1783170017821078300,3.810078369140625,5.259192447835207,3.0252941623598337,2.932923337176442
1783170017831147500,3.8201474609375,4.077716472390294,2.691410582795739,2.5925325676754114
1783170017841217300,3.83021728515625,3.525596384614706,2.351653435023129,1.5395944170773028
1783170017851287300,3.840287353515625,4.307465139219165,1.827881928244978,0.3049387497065589
1783170017861357600,3.850357666015625,6.006665596362948,1.0880533031210302,-0.5630203981049359
1783170017871427300,3.86042724609375,8.698567177546023,0.6136633746273815,-1.0124579639106988
1783170017881496300,3.870496337890625,11.281797371608018,0.4144220011997968,-0.9064467359095811
1783170017891566600,3.880566650390625,12.45894613150358,0.34823753747865555,-0.45393140662629156
1783170017901636400,3.89063623046875,12.108041274511814,0.4112155333086848,0.1216199352171272
1783170017911706400,3.900706298828125,10.880248369050026,0.556540607631579,0.6001650106288492
1783170017921776400,3.9107763671875,9.541271216863393,0.6036662236828356,0.6584051642820239
1783170017931845400,3.920845458984375,8.660534676271677,0.5724626185804605,0.21470948486281557
1783170017941915400,3.930915283203125,8.566693778535724,0.44588023865036663,-0.40755569562688465
1783170017951985400,3.9409853515625,8.855303799656033,0.3914313670389354,-0.9942604092452675
1783170017962055400,3.951055419921875,9.534962472108006,0.12035495678260921,-1.425487268643081
1783170017972125200,3.961125244140625,10.579254667174816,-0.29074615636616946,-1.5879241482213138
1783170017982194400,3.9711943359375,11.074639306771754,-0.1596517789043486,-1.4439086221270263
1783170017992264400,3.981264404296875,10.974127260708809,0.307995543461293,-1.1210795205406845
1783170018002334500,3.99133447265625,10.602357310342787,0.6211722889527678,-0.8467283263973892
1783170018012404500,4.001404541015625,9.981616106283663,0.7536617009695619,-0.45369631922878323
1783170018022474200,4.01147412109375,9.432890921643375,0.8904286441750824,-0.2967953734025359
1783170018032543500,4.02154345703125,8.980610095235704,0.8670276025824248,-0.497018707072176
1783170018042613800,4.03161376953125,8.51233382731676,0.5327364651307464,-0.9149995332647114
1783170018052683800,4.041683837890625,8.001306797429919,0.23004158536083996,-1.2210384627655149
1783170018062753800,4.05175390625,7.873019440212845,0.14123422481268644,-1.3158020283043383
1783170018072823800,4.06182373046875,8.137975029501318,0.13464965879060328,-1.355967157693207
1783170018082892800,4.071892822265625,8.534798172581196,0.1427583656400442,-1.480130420717597
1783170018092962800,4.081962890625,9.057559479403496,0.26031463161483404,-1.5342220763891934
1783170018103032800,4.09203271484375,9.266519040703773,0.39848479268178344,-1.3914825615800916
1783170018113102800,4.102102783203125,8.759519366636871,0.43845980632603165,-1.2245295928169042
1783170018123172900,4.1121728515625,7.8824179676771156,0.36869726492241023,-1.2311471843257547
1783170018133241900,4.122241943359375,6.863510389235615,-0.07234042906761169,-0.9116407243560999
1783170018143311600,4.1323115234375,5.8410781437993045,-0.5115259193196893,-0.19816263828016817
1783170018153382000,4.1423818359375,4.464823108097911,-0.6494055730074644,0.7825937809433787
1783170018163452000,4.152451904296875,2.1566782676726577,-1.2205309516347944,1.4138339479893445
1783170018173521700,4.162521728515625,-1.0561953988283872,-1.7737832583107054,1.4860373066738246
1783170018183591000,4.1725908203125,-4.659633148014545,-2.0792308708548544,1.2191436619948595
1783170018193661000,4.182660888671875,-8.104762495729327,-2.0944281477257607,0.07903013596460223
1783170018203731000,4.19273095703125,-12.154308520168065,-2.4198987037315964,-1.2594300066106021
1783170018213801000,4.202801025390625,-17.24555847674608,-2.570073775368929,-1.881273618953675
1783170018223870700,4.21287060546875,-23.098481372117995,-1.1819478307403624,-1.4893627978347241
1783170018233940000,4.22293994140625,-27.808575125825403,0.8909393701761961,-0.2168809288840741
1783170018244010000,4.233010009765625,-29.72137157189846,2.300798277054727,0.5308368420545011
1783170018254079700,4.243079833984375,-31.33147920261621,2.799641240411997,0.2796957883079536
1783170018264150000,4.25314990234375,-32.6576050565362,2.7027204968392846,-0.5007045194454491
1783170018274219800,4.2632197265625,-31.366672096550463,2.5276225808694956,-1.3704182923719286
1783170018284288800,4.273288818359375,-28.009688065278528,2.2800926120258866,-1.5214631325811148
1783170018294359000,4.283359130859375,-23.718764311015605,1.6586188559085129,-0.7576479210615158
1783170018304428800,4.2934287109375,-19.282376439285276,0.9229219237618148,0.10305120915174483
1783170018314498800,4.303498779296875,-15.36165962385535,0.5743690001910552,0.5958916441585869
1783170018324568800,4.31356884765625,-11.003522866541147,0.3508911572599783,0.6770997817493974
1783170018334637800,4.323637939453125,-6.6473191231161355,0.12272274535987525,0.7174852028254419
1783170018344707800,4.333707763671875,-2.1261369989365337,0.09839932822529227,0.6082684567812829
1783170018354777900,4.34377783203125,1.0882418114304542,0.4254976680960506,0.6881435922026634
1783170018364847900,4.353847900390625,2.7122750916481015,1.114447096788883,1.0809764966025948
1783170018374917600,4.363917724609375,4.470600522455573,1.6515693757884204,1.5739441381856798
1783170018384987000,4.37398681640625,6.474986872467398,1.6552939492695034,1.634213313448429
1783170018395057000,4.384056884765625,8.126364086684584,1.2326081967890261,1.1551315008115022
1783170018405127000,4.394126953125,9.270327200815082,0.32044333896096794,0.6592864040959626
1783170018415197000,4.404197021484375,10.37411203381419,-0.7075413895033299,0.40851884157061574
1783170018425266700,4.4142666015625,11.694774946153164,-1.723432542733103,0.05087280322294682
1783170018435336000,4.4243359375,12.907884661746024,-2.641032979211211,-0.3205745275925845
1783170018445406000,4.434406005859375,13.63785664037466,-2.995503127469122,-0.4528726182883605
1783170018455475700,4.444475830078125,13.594227926528452,-2.8082100390538574,-0.17914518206659705
1783170018465546000,4.4545458984375,13.169324936389922,-2.4960300495147703,0.4382634800363332
1783170018475615700,4.46461572265625,12.170825939726829,-2.001131147608161,0.6595068419136106
1783170018485685000,4.47468505859375,11.03040736633539,-1.6126044159695505,0.5330144418219104
1783170018495755000,4.484755126953125,9.942118793153762,-1.5789004454188047,-0.15199153734161516
1783170018505824800,4.49482470703125,8.8906317181468,-1.6491282662466167,-1.2591542584091424
1783170018515894800,4.504894775390625,8.134121276682615,-1.6299527333945034,-2.1126053171902894
1783170018525964800,4.51496484375,8.308758297142386,-1.2315686246082187,-2.0265353457167743
1783170018536033800,4.52503369140625,8.822115815803409,-0.595623458209075,-1.2686666215114295
1783170018546104000,4.53510400390625,9.072242084750533,-0.10950937231518328,-0.7788471417609601
1783170018556173800,4.545173828125,9.0592651142776,0.3159455891503021,-0.595506298102811
1783170018566243800,4.555243896484375,8.779373821663857,0.5795601025607436,-0.370930832660757
1783170018576313900,4.56531396484375,8.201779100891947,0.6865038621716201,-0.2614243646887131
1783170018586382800,4.5753828125,7.51291537772119,0.4402477857213467,-0.5151400912288576
1783170018596452900,4.585452880859375,7.286655137529968,0.156929258605279,-0.8850351145684718
1783170018606523000,4.59552294921875,7.756472789672016,-0.09973167280759662,-0.9900906492799519
1783170018616593000,4.605593017578125,8.54896522962153,-0.15861191446259618,-0.9197956084348261
1783170018626663000,4.615662841796875,9.14203575194478,-0.15334522610604762,-0.6665909549556672
1783170018636732000,4.62573193359375,8.987384119415283,-0.12609759208783505,-0.3482845184255391
1783170018646802000,4.635802001953125,8.203364324256777,0.09906820393018424,-0.19638919886685907
1783170018656871700,4.64587158203125,7.147755200883746,0.2586279937021434,-0.048148693754989653
1783170018666942000,4.65594189453125,6.144608086153864,0.3755063604153692,-0.0006517967059276998
1783170018677012000,4.666011962890625,5.474139266851544,0.430889078810811,0.04293948947302997
1783170018687081000,4.6760810546875,4.983291686162352,0.3265252526905387,0.23588249340876935
1783170018697151000,4.68615087890625,4.762504324424267,0.175666290442273,0.3442296900767833
1783170018707220700,4.696220703125,4.635500577276945,-0.1302597532685846,0.5771402184700593
1783170018717290800,4.706290771484375,4.132692509680986,-0.3599987024210393,0.884359699524939
1783170018727361000,4.716361083984375,2.870200631281733,-0.654134062834084,1.2470052631929516
1783170018737429800,4.7264296875,0.7908727297931909,-1.1738184464290737,1.9876380443066357
1783170018747500000,4.7365,-1.9511440046459436,-1.7977616613999008,2.4592630381315943
1783170018757569800,4.74656982421875,-4.768314472007751,-2.1048774994172152,2.3776392324119806
1783170018767639800,4.756639892578125,-7.211704818224907,-2.421174715016782,2.076944075091928
1783170018777710000,4.7667099609375,-10.678728602361678,-1.213908172494173,-0.4631688983099535
1783170018787778800,4.77677880859375,-12.84513506784439,-1.2061886841580272,-2.015715553277731
1783170018797848800,4.786848876953125,-12.773759099894761,-2.544702018225193,-2.6537214881315827
1783170018807918800,4.7969189453125,-13.261850075352191,-2.7331583052009343,-4.440269389338791
1783170018817988900,4.80698876953125,-16.17758320827484,-2.6390163786917924,-4.902052495846152
1783170018828059000,4.817058837890625,-21.04073752592802,-1.366969320961833,-4.515754838433861
1783170018838127900,4.8271279296875,-26.54141817822456,1.1337314237777143,-4.545620984387398
1783170018848198000,4.837197998046875,-29.614586436915395,2.8265348002955317,-4.274446082192659
1783170018858268000,4.847267822265625,-29.05182746622562,2.7113547619327902,-2.4782412948459385
1783170018868338000,4.857337890625,-24.52823828090429,1.277462799168378,-0.5090852481693029
1783170018878408000,4.867407958984375,-19.723844779777526,1.5741782392024992,-1.985648477924615
1783170018888477000,4.877476806640625,-15.093416683459282,0.1745415241960436,-2.5169156011551617
1783170018898547000,4.887546875,-10.045170002305507,-1.6204612669497727,-1.5859456877551972
1783170018908616700,4.89761669921875,-5.415603491252661,-2.3227716239318252,-0.599891819710657
1783170018918687000,4.90768701171875,-1.9245862525880335,-1.9095463582359253,-0.4373474611699581
1783170018928757000,4.917757080078125,0.271369547984004,-1.2845157864198087,-0.07062164245098829
1783170018938825700,4.92782568359375,1.134645250687003,-0.7008483216054737,0.13412088567614555
1783170018948896000,4.93789599609375,1.1961112345188856,-0.2798463757597841,0.5195249552495778
1783170018958965800,4.9479658203125,0.5861439379304647,-0.0790966344627086,0.9212138777349144
1783170018969035800,4.958035888671875,0.2704547712266445,0.08478725645290687,0.6950248030837625
1783170018979106000,4.96810595703125,0.9925444721728562,-0.032165846863808106,-0.05628668149784207
1783170018989174800,4.9781748046875,2.272315402153134,-0.6283668035667389,-0.5110792715307325
1783170018999245000,4.9882451171875,3.703605511856079,-1.3914990743234752,-0.20697174848392605
1783170019009314800,4.998314697265625,5.336318357613682,-2.09930627515614,0.276020880921185
1783170019019384800,5.008384765625,6.600773645040393,-2.5187100833564995,1.243829409635812
1783170019029454800,5.018454833984375,7.710431169465184,-2.1762506908878683,1.5092647452652455
1783170019039523300,5.0285234375,9.26305399494171,-1.2555191167771815,0.8287628999873995
1783170019049593300,5.03859326171875,9.768502932435274,-1.3543882179386912,1.2715028678506612
1783170019059663400,5.048663330078125,10.268001437091828,-0.9363342899773269,0.5920262739673257
1783170019069733400,5.0587333984375,10.798396599793433,-0.29461097856815904,-0.7947262634161859
1783170019079803400,5.068803466796875,10.58430142917037,-1.0020441219240426,-1.2299486221909521
1783170019089872400,5.078872314453125,10.812058045399189,-1.9224774437405168,-1.3158568272314966
1783170019099942400,5.0889423828125,10.853061086916924,-2.297352666645497,-1.548475058147311
1783170019110012400,5.099012451171875,10.628477255505322,-1.707610850353539,-2.8972879601716994
1783170019120082400,5.10908251953125,9.346699077355861,-1.0541481839749962,-4.18313382615149
1783170019130152400,5.11915234375,7.8203499262988565,-1.1809237483896315,-4.394081930920481
1783170019140221400,5.129221435546875,5.9003942561209195,-1.6500331061318516,-3.951356868365407
1783170019150291500,5.13929150390625,3.9770699862927197,-2.5367808698371053,-2.8172137219816444
1783170019160361200,5.149361328125,3.161151662570238,-2.580877493456006,-1.3823776102349161
1783170019170431500,5.159431396484375,3.8671518139809367,-1.392591691865772,-0.8930907029911875
1783170019180500200,5.169500244140625,6.073199384978413,-0.9885441504903137,-1.268090429058671
1783170019190570200,5.1795703125,7.623647204503417,-0.8177556952174753,-1.5553507891356944
1783170019200640500,5.189640625,7.279632107025384,-0.4099700998248532,-1.773154458887875
1783170019210710300,5.199710205078125,6.287537716707587,-0.5380386266594752,-1.8950735962472856
1783170019220780300,5.2097802734375,5.299392940798402,-0.6320922538306564,-2.181332231935859
1783170019230849300,5.219849365234375,4.826360418263078,-0.3349572001449764,-2.3471719056949016
1783170019240919300,5.229919189453125,5.079467164325714,0.881938902118802,-2.7261720995754004
1783170019250989300,5.2399892578125,6.042553486824035,1.4733588807560503,-2.788422804044187
1783170019261059300,5.250059326171875,6.588497516313195,0.987312197542563,-1.832852117872983
1783170019271129300,5.26012939453125,7.1635337847739455,0.5378808422818779,-0.557658286549896
1783170019281198300,5.2701982421875,7.523047480157017,0.25825477647557854,0.3816632756099105
1783170019291268400,5.280268310546875,6.615856063359975,0.37644181463457643,1.1949889524906874
1783170019301338400,5.29033837890625,4.652839834612608,0.8460662092268466,1.8881335678510367
1783170019311408400,5.300408447265625,2.989265402123332,0.07100552720203995,1.36113272376284
1783170019321478400,5.310478515625,0.9814555074036121,-1.2670797907114029,-0.17551000390201807
1783170019331547100,5.320547119140625,-2.404875029861927,-2.508332189466059,-1.253566375274211
1783170019341617400,5.330617431640625,-6.176034905552863,-3.1285856100082396,-0.6491764404267072
1783170019351687400,5.3406875,-8.984415917259454,-1.5872572087451815,-0.44919177435114976
1783170019361757200,5.350757080078125,-11.045873815536499,0.11783289095908403,-0.8133726578276604
1783170019371827500,5.360827392578125,-13.402121300351618,-0.20437398707568644,0.26109708722941577
1783170019381896200,5.370896240234375,-18.217948049640654,-0.7903631728358567,1.901854780820012
1783170019391966500,5.380966552734375,-22.797200085473058,-0.167110132086277,0.8906808653704822
1783170019402036500,5.391036376953125,-24.326863475644586,-0.11567936618700622,-0.9897561566285789
1783170019412106200,5.401106201171875,-24.159561620378494,-1.2216340905711054,-2.322283986545354
1783170019422176300,5.41117626953125,-23.99544657845497,-2.2349778974056242,-2.6393106854632493
1783170019432245200,5.421245361328125,-22.474029623103142,-1.852550505555421,-0.42281726990565655
1783170019442315300,5.431315185546875,-19.063987370860577,-0.0818957545287907,2.5586212379842994
1783170019452385500,5.441385498046875,-14.720919587862491,0.23257614533975718,4.718171553961932
1783170019462455300,5.451455322265625,-9.534000349077582,-0.6519026505202055,5.095913272213935
1783170019472525300,5.461525390625,-4.0114223377496,-1.756447654236853,2.499287297745049
1783170019482594300,5.47159423828125,0.2926321162432432,-2.280174445090443,-0.5560875666344538
1783170019492664300,5.481664306640625,2.6862001546710728,-1.8050738841094076,-1.1267822622269392
1783170019502734300,5.491734375,3.043003422051668,-0.7760771655909716,-0.32474516434073447
1783170019512804400,5.501804443359375,3.0324019485384226,0.3398769747599959,0.33706100402381267
1783170019522873300,5.511873291015625,4.027776091179251,1.0215630613863467,0.8075554229162633
1783170019532943400,5.521943359375,3.4059424157083034,1.2950937329269945,1.2069747199691832
1783170019543013400,5.532013427734375,1.4493196873903273,1.412919901884347,0.7374431912921369
1783170019553083400,5.54208349609375,2.1795102772057056,1.479531870302558,0.938159678773582
1783170019563153200,5.552153076171875,4.091555612650513,0.7956894093599169,0.5780887513665482
1783170019573222400,5.562222412109375,6.290829743990302,-0.22819347327612338,-0.5957779911836609
1783170019583292200,5.572292236328125,8.512302263134718,-1.0719506749082357,-0.714699152303487
1783170019593362400,5.582362548828125,7.4348969030171626,-0.6996887763068079,0.1367608422582969
1783170019603432400,5.592432373046875,6.917704920759797,0.04385612939391285,1.2365984354689716
1783170019613502200,5.602502197265625,7.019115376967191,0.0036402196658775208,1.782394727050513
1783170019623571500,5.612571533203125,6.2883928722321984,-0.6285181216709316,1.0943269034978003
1783170019633641200,5.62264111328125,5.963179505857825,-0.7246252107731997,0.5731572497811168
1783170019643711200,5.632711181640625,7.037912431895733,-0.5804812725262716,0.4159645909992978
1783170019653781500,5.642781494140625,9.46197614635229,-0.7702683331817388,0.09337477806154638
1783170019663851300,5.652851318359375,11.207863535869121,-1.0630667459025978,-0.017053334800060837
1783170019673923300,5.66292333984375,9.792180160620807,-1.3312332600615917,-0.7164822363279759
1783170019683992300,5.672992431640625,8.388419862878322,-0.9178826144203543,-0.9849191649261861
1783170019694062600,5.6830625,7.770588408786058,-0.7479919117048383,-1.668916524169594
1783170019704132400,5.69313232421875,7.846427785885334,-0.23753968603126704,-1.9669651125036178
1783170019714202400,5.703202392578125,7.8525395467638965,-0.01449943079985678,-1.90576128673926
1783170019724271400,5.713271240234375,8.05089412741959,-0.49623168488033115,-1.9200009706243872
1783170019734341400,5.72334130859375,8.08228470646143,-0.6643778089508414,-1.7752369642503558
1783170019744411400,5.733411376953125,7.830185091614723,-0.17215609036423266,-1.2591823154598474
1783170019754481400,5.7434814453125,7.444969968742131,0.06313355171792209,-0.929704423508793
1783170019764551400,5.753551513671875,6.607993659421801,0.14889672226458786,-1.0163030219662934
1783170019774621200,5.76362109375,6.078431440412998,0.182249760485813,-1.1173349271848798
1783170019784690400,5.7736904296875,5.733223333758115,0.36309812974110245,-0.982517364481464
1783170019794760400,5.783760498046875,5.490871205943822,0.604096431793645,-0.7686396360013633
1783170019804830200,5.793830322265625,5.188492771711945,0.8509717361208051,-0.679064652081579
1783170019814900500,5.803900390625,4.420999748462438,0.7475539586789905,-0.724782301031053
1783170019824969200,5.81396923828125,3.7303590787470338,0.4991131586007774,-0.6227309896368532
1783170019835039500,5.82403955078125,3.663740534457564,0.673641531054303,-0.1143904223550111
1783170019845109500,5.834109619140625,3.18839564332664,0.0788152511049062,0.5021774415422231
1783170019855179300,5.84417919921875,2.2577006013453005,-0.8565678756274282,0.9799894534390419
1783170019865249300,5.854249267578125,-0.3089116353929043,-1.038011799623072,1.3952202868036925
1783170019875318300,5.864318359375,-3.9719694482833146,-0.9700292735040187,1.8681939187586307
1783170019885388300,5.87438818359375,-7.457677474623918,-0.7783304974757135,1.6830283438913523
1783170019895458600,5.88445849609375,-10.61914127188325,-0.37118499008491634,1.0022353336472063
1783170019905528300,5.8945283203125,-13.697241726279257,-0.8106582112371921,-0.8268433301016688
1783170019915598300,5.904598388671875,-16.721020223379135,-1.325370359377563,-3.1971751621097324
1783170019925667300,5.914667236328125,-18.29061698001027,-2.018036689701676,-4.019061162064969
1783170019935737300,5.9247373046875,-18.94340985736847,-2.0508618315912783,-2.638905027271807
1783170019945807400,5.934807373046875,-19.91106480295658,-0.8084677154555916,-0.8637899358354508
1783170019955877400,5.94487744140625,-21.026856300091744,-0.3821025438100099,-0.08766524130832404
1783170019965947400,5.954947509765625,-22.575829955410956,-0.3527493158146739,-0.9415386536873876
1783170019976016400,5.965016357421875,-24.836250921630857,-0.10574351697564124,-1.9563807362556456
1783170019986086400,5.97508642578125,-25.60774499721527,-0.1638825483419001,-1.9289672441512344
1783170019996156400,5.985156494140625,-23.306243832588194,0.511758705162257,-0.7381117382034659
1783170020006226200,5.99522607421875,-19.616645803296564,0.9495042257390915,0.7042283194325863
1783170020016295400,6.00529541015625,-15.485856496888399,1.044383818873018,1.0308263450983912
1783170020026365200,6.015365234375,-11.370561696732043,0.7829018970444798,0.6504995057240128
1783170020036435200,6.025435302734375,-6.855567905798554,0.4878853698827326,0.3867966199103743
1783170020046505200,6.035505126953125,-2.6384149056673047,0.6367356226570904,0.5170226901050656
1783170020056575000,6.045574951171875,0.4133844017803669,0.5757020388931036,1.1334013150405138
1783170020066644200,6.055644287109375,2.993309709078073,0.4812210896879434,1.7593267168045044
1783170020076714000,6.0657138671875,5.611421831429005,0.5317421933963895,1.9312199915140866
1783170020086784000,6.075783935546875,8.399723347181082,0.2136129400640726,1.8247575126141309
1783170020096854300,6.085854248046875,10.219859045213461,-0.03877878959700465,1.0690599949680268
1783170020106924000,6.095924072265625,10.352537330865859,-0.13008863448537886,0.7311195412285626
1783170020116993300,6.1059931640625,10.004349331617355,-0.14782112892232835,0.8055643221642822
1783170020127063000,6.11606298828125,10.533603507590293,-0.1580059113934636,1.2236895617961883
1783170020137133000,6.126133056640625,11.317263821786641,-0.18378588401190935,1.7637030321925877
1783170020147203300,6.136203369140625,11.420779141318798,-0.23026896437592803,1.88067652984336
1783170020157273000,6.146273193359375,11.33489066389203,-0.3541953499045223,1.4837150012061
1783170020167342000,6.156342041015625,11.199182216763496,-0.4675503647971898,0.9611294893421232
1783170020177412000,6.166412109375,11.349371609187125,-0.477340741123259,0.614214944095537
1783170020187482000,6.176482177734375,11.27256192575097,-0.4148373040024191,0.21835739464480428
1783170020197552000,6.18655224609375,10.55274426138997,-0.43929238469265397,-0.4884354780461639
1783170020207622100,6.1966220703125,10.028646737527847,-0.39757352305576205,-1.0200720921762287
1783170020217691100,6.206691162109375,9.64224795782864,-0.24538499270416794,-1.2078908119007945
1783170020227761200,6.21676123046875,9.180817025759815,0.1621906497322023,-1.230246874485165
1783170020237831200,6.2268310546875,8.744389017522334,0.7024089950509369,-0.9916877092130482
1783170020247901200,6.236901123046875,8.559123051020503,0.9929064373530447,-0.9238584008943289
1783170020257970200,6.24697021484375,8.882123417520523,1.0832235448770224,-1.3170078969627619
1783170020268040200,6.257040283203125,9.194528155726195,1.2626188657797872,-1.5097918378792703
1783170020278110200,6.267110107421875,9.521814236721395,1.3643845651656388,-1.470970232053846
1783170020288180200,6.27718017578125,9.268237535059452,1.405083509170264,-1.3917340521231294
1783170020298250200,6.287250244140625,8.640676129591464,1.5029343731999396,-1.1905839955300093
1783170020308319000,6.297319091796875,7.855129563257098,1.4908938067942856,-0.8737509194880724
1783170020318389200,6.30738916015625,7.2137003759562965,1.6055883997276423,-0.6021932650534436
1783170020328459300,6.317459228515625,7.226796588894724,1.5964705889008939,-0.39167350523173805
1783170020338529000,6.327529052734375,7.693703906548023,1.5050835140578447,-0.42361305992584675
1783170020348599300,6.337599365234375,7.987194100925326,1.582088281674683,-0.6644811231948435
1783170020358668000,6.34766796875,7.943810301750898,1.5249386997371912,-0.9073984836764634
1783170020368738000,6.357738037109375,7.411525379779935,1.2457638848297297,-1.1134390157248824
1783170020378808300,6.367808349609375,6.408178358563781,1.2944964976862072,-0.9655451138272881
1783170020388878000,6.377878173828125,5.351473256647586,1.3087481642700731,-0.288586530646868
1783170020398948000,6.387947998046875,4.484197086131572,0.8238942710377275,0.48220294033214445
1783170020409017000,6.39801708984375,3.9477340016931293,0.31055794129520653,1.0008782930150628
1783170020419087000,6.408087158203125,3.1951293354958294,-0.4056562917463481,1.2352253935500979
1783170020429157400,6.418157470703125,1.5356243444025515,-1.339787737917155,0.7607958636984229
1783170020439227100,6.42822705078125,-1.5000117637515067,-2.2280827310644087,-0.3523530830387026
1783170020449296100,6.438296142578125,-5.386393763381243,-2.9057471609592436,-1.8561795097075402
1783170020459366100,6.4483662109375,-9.913395387494564,-3.2371269410088654,-3.3471231469929217
1783170020469436200,6.458436279296875,-14.227516477471589,-3.300655410328507,-3.888427241721749
1783170020479506200,6.468506103515625,-16.515687035882472,-2.829409771209955,-3.5813866608977314
1783170020489576200,6.478576171875,-17.705308323860166,-2.232889108432829,-2.977116406907141
1783170020499645200,6.488645263671875,-19.107835864937304,-1.6144826309315858,-2.736123877008259
1783170020509715200,6.498715087890625,-21.917546079421044,-1.3374020118243992,-2.6754639488622542
1783170020519785200,6.50878515625,-24.403354010128975,-1.3274628016121686,-2.8380077959462997
1783170020529855200,6.518855224609375,-25.59250768059492,-1.4280645717851816,-2.800349388681352
1783170020539925000,6.528925048828125,-25.467974122953414,-1.2414984824702142,-2.0055089243009685
1783170020549994200,6.538994140625,-23.802350941240785,-0.8520458681583404,-0.7386199799865484
1783170020560064000,6.54906396484375,-21.768941910362244,-0.7528783685721456,0.02500555417984724
1783170020570134300,6.55913427734375,-19.24329998191595,-0.8249006716012954,0.12176935362517834
1783170020580204300,6.569204345703125,-16.124849981474874,-0.9021491117808967,-0.1981027978517115
1783170020590273000,6.57927294921875,-12.325529010182619,-0.8863182131815701,-0.6185608643453567
1783170020600343300,6.58934326171875,-8.262621984389424,-0.587435365980491,-0.581776536501199
1783170020610413000,6.5994130859375,-5.187176428416371,-0.2861578056626022,0.17319361671842634
1783170020620483000,6.609483154296875,-3.3924580802351234,0.07697882945798337,0.9219478180326521
1783170020630553300,6.61955322265625,-1.5812234815388917,0.12756510735712945,0.9149926651325077
1783170020640622000,6.6296220703125,0.4034738331407308,-0.3423126044090837,0.6012864158742129
1783170020650692400,6.6396923828125,2.770498148036003,-1.0521434930890798,0.4665781587641686
1783170020660762000,6.64976220703125,5.189600440692901,-1.353830437925458,0.354828094850108
1783170020670832000,6.65983203125,6.67481795541644,-1.042603146001324,0.5630876181222498
1783170020680902100,6.669902099609375,7.02944913945496,-0.8901136599417775,0.5302854917820543
1783170020690971100,6.67997119140625,7.127575167164206,-0.8511111445914954,0.24825086699668317
1783170020701041200,6.690041259765625,7.4729299888134,-0.7159289132941514,-0.03495305729638785
1783170020711111200,6.700111083984375,8.412852877867222,-0.6519328264627605,-0.16698508093450218
1783170020721181200,6.71018115234375,9.455348837167024,-0.3496556606482714,0.11226491810102016
1783170020731251200,6.720251220703125,10.320835201656818,-0.2055226456541568,0.4610534039933234
1783170020741320200,6.7303203125,10.66471878170967,-0.3099920510407537,0.5414522344952449
1783170020751390200,6.74039013671875,10.824200903135537,-0.1861786974325776,0.6572015606459229
1783170020761460000,6.7504599609375,10.855319679498672,0.036986864678934216,0.5636290680551901
1783170020771530200,6.7605302734375,10.881959849143028,0.4246135056726634,0.28640752437366174
1783170020781599000,6.770598876953125,10.950911220294236,0.4848717942152172,-0.13339357604859395
1783170020791669200,6.780669189453125,11.00720886157751,0.44683483596146106,-0.6441257329083979
1783170020801739300,6.7907392578125,10.97313357349634,0.7057248416006565,-0.8450547671619802
1783170020811809000,6.80080908203125,10.971128663414715,0.9348590297929942,-0.5876072154160589
1783170020821879000,6.810879150390625,10.542198317456245,1.2778719644911587,-0.17614020983064546
1783170020831948000,6.820947998046875,9.67132266114354,1.6903738843485712,0.2219272524882108
1783170020842018000,6.83101806640625,8.818003119787573,2.063123785662651,0.5374986380312592
1783170020852088300,6.84108837890625,8.30089706224799,2.0856937832586464,0.5739200508471578
1783170020862158000,6.851157958984375,7.696254175552725,1.7980932314418254,0.11465654421159997
1783170020872228000,6.86122802734375,7.364061617815494,1.5695450264438986,-0.30624400535253804
1783170020882297000,6.871297119140625,7.367256614464521,1.4455188338026403,-0.43177141460329294
1783170020892367000,6.8813671875,7.598837757417559,1.5508658988066018,-0.11895999529287218
1783170020902437000,6.89143701171875,8.200071127930283,1.5815267022691666,0.13433087516501546
1783170020912507100,6.901507080078125,8.310612400576472,1.5319108768373726,0.15219291426576673
1783170020922576100,6.911576171875,8.06407977220714,1.5807755916409194,-0.10496767376493663
1783170020932646100,6.921646240234375,7.560318933930993,1.3604196070574224,-0.538225344870612
1783170020942716200,6.931716064453125,6.986489118650555,1.1973581658400594,-0.948018955617398
1783170020952786200,6.9417861328125,6.120974112588167,1.0544630220778286,-1.189977115678042
1783170020962856000,6.95185595703125,5.518873311591148,0.7513213483884931,-1.1799737541884183
1783170020972925200,6.96192529296875,5.05642238882482,0.4287245942533016,-0.9147579795937985
1783170020982995000,6.971994873046875,3.970051047441363,-0.003049012307077646,-0.5952994504190982
1783170020993065200,6.982065185546875,2.6377017889618872,-0.5206596583679318,-0.27498744622021914
1783170021003135200,6.99213525390625,1.3831640844374895,-1.0574337084516883,0.02797777492366731
1783170021013205000,7.002205078125,-0.3048667439162731,-1.7631966901056468,0.40885026548206804
1783170021023274200,7.012274169921875,-2.173712404581904,-2.416438188014179,0.7782851970292627
1783170021033344000,7.022343994140625,-4.670193704995513,-2.7256840237975117,1.1723828606680036
1783170021043414800,7.032414794921875,-7.748457825520634,-2.815610962960124,1.4098998234108089
1783170021053484800,7.04248486328125,-10.71447796113491,-3.014127456179261,0.45649321993831543
1783170021063553800,7.0525537109375,-14.814538951802254,-3.311293708720803,-1.2892647345125674
1783170021073623600,7.06262353515625,-19.058152673357725,-3.341727425429225,-2.348877540569007
1783170021083693800,7.07269384765625,-22.605729419112205,-2.2378576906256376,-2.158085065730661
1783170021093763800,7.082763916015625,-25.556947706913945,-0.5999909692361951,-1.9814909198537467
1783170021103833600,7.09283349609375,-28.06350382661819,0.32550482360161836,-2.0521058403030037
1783170021113902800,7.10290283203125,-29.250850155401228,0.3294415054634213,-1.896642014607787
1783170021123972600,7.11297265625,-27.390606903386114,-0.0861568460393697,-1.6847236035019157
1783170021134042600,7.123042724609375,-22.491752326798437,-0.3888903042539954,-1.0125826132036746
1783170021144113000,7.13311279296875,-17.575618114107847,-0.4171764144744724,0.052466904013976454
1783170021154182700,7.1431826171875,-13.886622142362594,-0.35233065201118585,1.1851069523584097
1783170021164252000,7.153251953125,-10.568829134750366,-0.10868000881895422,0.8192302247494458
1783170021174321700,7.16332177734375,-6.086233638596535,-0.25826675917431713,0.45580834294669326
1783170021184391700,7.1733916015625,-4.615326388776302,0.043175563251227136,1.2840259570762513
1783170021194461700,7.183461669921875,-2.5156331601291892,1.138351850119978,2.5492443378299474
1783170021204530700,7.19353076171875,-0.1456687001287937,0.5081807736102492,1.6790440965607762
1783170021214600700,7.2036005859375,1.538756797209382,-0.7108790094934403,0.153257328626886
1783170021224670700,7.213670654296875,2.279365320664644,-1.3304820033028721,0.28250768565721807
1783170021234740700,7.22374072265625,2.407223054292798,-1.1286759670190512,1.3667002947621048
1783170021244810800,7.233810791015625,3.0746915227353573,-0.5967200578067451,1.723159424880147
1783170021254879700,7.243879638671875,5.748565864318609,-0.8333127453114837,1.9036510165870189
1783170021264949800,7.25394970703125,8.606337222138047,-1.0260288816887884,1.8828011207818984
1783170021275019500,7.26401953125,10.429147107815743,-1.2003043022945523,1.5600088440746067
1783170021285089800,7.27408984375,10.824059448838232,-0.3799749937294051,2.1625372228339312
1783170021295158500,7.284158447265625,9.749379129770398,-0.10659556722771375,2.534261580492556
1783170021305228800,7.294228759765625,7.785947305959462,-0.22907098676301538,1.8327946885973214
1783170021315298800,7.304298828125,7.089239883551001,-0.7590712318629026,-0.48920960422381754
1783170021325368600,7.31436865234375,7.404487736228108,-1.4504004683643579,-1.8300994581639765
1783170021335438800,7.32443896484375,7.958896811723709,-1.7078633638098835,-2.1992028196692464
1783170021345507600,7.334507568359375,9.286989581802487,-1.9353750653669237,-2.3033692965865136
1783170021355577600,7.34457763671875,10.506876828706265,-2.1811619899354873,-3.3988404747486114
1783170021365648000,7.35464794921875,11.568582515388727,-2.0676751653566954,-2.51129571544677
1783170021375717600,7.364717529296875,10.807310558611153,-1.839914165213704,-1.4645396144844591
1783170021385787600,7.37478759765625,9.163722683095932,-1.0297871382437647,-1.2733942345552145
1783170021395856600,7.384856689453125,8.089245777645706,0.021034312461316585,-0.7717765457876026
1783170021405926700,7.3949267578125,7.897904875144362,0.5009395703103393,-0.5965610313201323
1783170021415996700,7.40499658203125,8.389420564353465,0.1930539169643074,-0.7105003854393959
1783170021426066700,7.415066650390625,9.290401436072587,-0.13311850370056927,-1.0262205318033695
1783170021436135700,7.4251357421875,10.12224505867958,-0.42794184637777505,-1.2401822853051125
1783170021446205700,7.435205810546875,9.458605208614468,-0.4378546800397336,-1.1113353945091367
1783170021456275700,7.445275634765625,7.6784560685336585,-0.0021310206793248654,-0.9153864136904477
1783170021466345700,7.455345703125,5.8340194574594495,0.3876648541122675,-1.1494453449338673
1783170021476415700,7.465415771484375,5.067347102943063,0.5920542579527944,-1.2985272145070135
1783170021486484700,7.475484619140625,5.870804589021206,0.9182910490907729,-0.7267080083966255
1783170021496554500,7.485554443359375,6.526891247227788,1.1010016320213676,-0.21413911936264485
1783170021506624800,7.495624755859375,6.209596983414888,1.090270248518139,0.026171748415008186
1783170021516694800,7.50569482421875,4.369650084975362,1.1249882914822549,-0.17915614185202866
1783170021526764500,7.5157646484375,1.7555752553164958,1.3226646075502038,-1.1147166344452648
1783170021536833800,7.525833740234375,0.8432336161494255,1.199403115671128,-1.082084896235913
1783170021546903800,7.53590380859375,0.7746510783106089,0.6851990631833672,-0.6704596130825579
1783170021556973600,7.5459736328125,1.5613725336432456,0.15637947923541068,-0.22300993315838277
1783170021567043800,7.5560439453125,1.8637614892691372,-0.6152309162050486,0.14874858249817044
1783170021577112600,7.566112548828125,1.2188228325426578,-1.710889725893736,0.3673507822168991
1783170021587182800,7.576182861328125,-1.1841010632514952,-2.515400520417094,0.947804436083883
1783170021597252900,7.5862529296875,-4.758696748834848,-1.6662667403131723,0.8981047317609191
1783170021607322600,7.596322509765625,-7.752106411156058,-0.27513357669264077,0.6460529015786945
1783170021617393000,7.606392822265625,-9.745761523795128,-0.5823125430740416,0.8299903959557413
1783170021627461600,7.616461669921875,-9.920648135101795,-1.9265886784516273,0.25288744075614955
1783170021637531600,7.62653173828125,-9.76517174218595,-2.72839152919054,0.014063742796331644
1783170021647602000,7.636601806640625,-10.8145738276124,-2.304452561778575,0.028153314153663813
1783170021657671700,7.646671630859375,-12.4752846873641,-1.013781175338477,-0.19748736936710773
1783170021667741000,7.656740966796875,-14.320696280950306,0.3021082389883697,-0.3158126469530165
1783170021677810700,7.666810791015625,-17.05557015789747,1.1035188755393028,-0.54191144950483
1783170021687880700,7.676880615234375,-19.238402857524154,1.6736584579996763,-1.0315002988371997
1783170021697950700,7.68695068359375,-19.187764557176827,1.8535376168966293,-1.572579425703734
1783170021708020700,7.697020751953125,-16.682017415767906,1.398671596301347,-1.5131068076461553
1783170021718089700,7.70708984375,-12.60596741528511,0.2115362799204886,-0.9392273080050945
1783170021728159700,7.71715966796875,-9.748484226757288,-0.4838037996575236,-0.07108052866701037
1783170021738229800,7.727229736328125,-6.95445731909573,-0.18789485370069742,0.6605469255510718
1783170021748299800,7.7372998046875,-4.609965738525986,0.041150194903463125,1.9113222818672655
1783170021758369800,7.747369873046875,-3.2209891684174536,0.6149689042679966,2.389598842535913
1783170021768438800,7.757438720703125,-2.674038007712364,0.932023660236597,1.6971604757487773
1783170021778508500,7.767508544921875,-1.9163795652568338,0.6936592868842184,0.24278657370880244
1783170021788578800,7.777578857421875,-1.0032856464177369,0.04923091776743531,-1.3045485206231473
1783170021798648800,7.78764892578125,0.32292320961058135,-0.2604822797993198,-1.6067853544272481
1783170021808717800,7.7977177734375,1.4997013826280832,-0.3513644007949158,-1.1123827116049825
1783170021818787800,7.807787841796875,2.0292314529329536,-0.3355813964579254,-0.4570356927845627
1783170021828857600,7.817857666015625,2.0568343301296235,-0.11433324880767613,0.14463340226430446
1783170021838928000,7.827927978515625,2.1991695019215345,0.2110681326857768,0.5607058740848675
1783170021848998000,7.837997802734375,3.335232802712917,0.4292100396826863,1.0652551227923481
1783170021859066600,7.848066650390625,3.8100755895406007,0.09867724098437465,0.5043077315691858
1783170021869137000,7.858136962890625,4.289294691756368,-0.27905042134281244,-0.1797416501224041
1783170021879206700,7.86820654296875,5.434135757765174,-0.5525842712212353,-0.06538023466616869
1783170021889276700,7.878276611328125,6.571121434098481,-0.6858317350637168,0.16712109187170862
1783170021899345700,7.888345703125,7.449229964274168,-0.8642408944733441,0.3431409449920058
1783170021909415700,7.898415771484375,7.565038948190212,-0.9930974298804998,0.4790801321364939
1783170021919485700,7.908485595703125,7.532921808439493,-1.0193113369368016,0.6100185883842408
1783170021929555700,7.9185556640625,7.8571303816854945,-1.2053461689192801,0.21631167762875556
1783170021939625700,7.928625732421875,8.662854059129954,-1.6249506873235104,-0.5275623504284769
1783170021949694700,7.93869482421875,9.403017176905275,-2.2691201132431624,-1.3119456451371312
1783170021959764700,7.9487646484375,9.415460478892921,-2.4548686025649307,-1.6982640530765056
1783170021969834800,7.958834716796875,9.134143537390232,-2.507962771631777,-2.032669902949035
1783170021979904800,7.96890478515625,8.354718668806552,-2.3437927846506237,-1.835775750234723
1783170021989974800,7.978974853515625,7.325262808343767,-1.716641567418724,-1.3468205591633915
1783170022000043500,7.98904345703125,6.432303330516815,-1.124794303280115,-1.5624880936697125
1783170022010113800,7.99911376953125,5.71502950541973,-0.9454175409473479,-1.7326500145420431
1783170022020183800,8.009183837890625,5.774296517902612,-1.0293594874162226,-1.6995584768012164
1783170022030253600,8.019253662109374,7.223190088835358,-0.8675744958754629,-1.2361156203880905
1783170022040322600,8.029322509765626,7.8508356654554605,-1.2123952837131917,-0.9833363527141511
1783170022050392300,8.039392333984376,6.549253301161527,-1.0279588999032974,-1.4600019710548222
1783170022060462600,8.049462646484375,5.0422839733570815,-0.5142499374561011,-1.7024509833723305
1783170022070532600,8.05953271484375,3.510924300661683,-0.18112705833250656,-1.576697382416576
1783170022080601300,8.069601318359375,2.42154267154634,0.48156340031959116,-1.487812207391858
1783170022090671600,8.079671630859375,3.0662206315100193,0.9123180390957742,-1.2591266397498548
1783170022100741400,8.089741455078125,4.637081124466658,0.4300250093273818,-0.37129838733151554
1783170022110811400,8.099811279296874,4.214509207624197,0.11135810545440762,0.11574614781290292
1783170022120881700,8.109881591796874,2.381974631267786,-0.025442155498825014,0.45493806291818617
1783170022130950400,8.119950439453126,0.23867256251871585,-0.2326644812103361,0.7802275632686912
1783170022141020400,8.1300205078125,-1.7877467556029558,-0.08898980444297194,0.8955166149638593
1783170022151090400,8.14009033203125,-3.4254555099517106,-0.3075421736706048,0.7888608054488897
1783170022161160400,8.150160400390625,-5.889406413638591,0.02384104044511914,1.2476241257436573
1783170022171230500,8.16023046875,-8.053855899834632,0.5532739339858294,2.3816794477134944
1783170022181299500,8.170299560546875,-8.651408536008,0.33126448310688134,3.4225758628621694
1783170022191369500,8.180369384765624,-8.563438576132059,-0.12767711636424064,4.221687136429548
1783170022201439500,8.190439453125,-10.043025976014137,-0.6737346161652356,3.5944676762670276
1783170022211509500,8.200509521484374,-12.967021910369395,-0.7014042019225657,2.664918589450419
1783170022221578500,8.21057861328125,-14.475421563237905,-0.37696255057305095,2.1353424880467355
1783170022231648500,8.2206484375,-14.207989939224719,-0.45582039871066804,1.6318025990448892
1783170022241718500,8.230718505859375,-13.533743939471243,-0.2949162816576659,0.8343512215137481
1783170022251788300,8.240788330078125,-13.99867732670307,-0.08842369499281048,-0.14163053065389394
1783170022261858600,8.250858642578125,-15.388502038073538,0.3269497617129236,-0.6621132980849593
1783170022271927600,8.260927490234375,-16.210409957599637,0.9468289421152323,-0.06148249657526612
1783170022281997600,8.27099755859375,-14.99996449277997,1.4902096239224076,0.7330486826602369
1783170022292067600,8.281067626953124,-12.48875324074626,1.368248839378357,0.8747744903821497
1783170022302137300,8.291137451171876,-9.732491123333572,1.3261001349568367,0.7646048275273293
1783170022312206600,8.30120654296875,-7.229616322490572,1.3022532492928207,0.7106705543745309
1783170022322276600,8.311276611328125,-4.9672231794148685,0.8677776902973652,-0.21162527337819337
1783170022332346400,8.321346435546875,-1.9433973360419272,0.05095120222140103,-0.6385119116146117
1783170022342416600,8.331416748046875,0.7155752044856548,-0.4216218495760113,-0.7207192163106053
1783170022352486400,8.341486328125,2.521930214446783,-0.6546450810961425,-0.8140263724960386
1783170022362555400,8.351555419921874,3.2645746276438232,-0.6499941865503788,-0.7847871993344276
1783170022372625700,8.361625732421874,3.6586055096566676,-0.2769828578211367,-0.5238506364289671
1783170022382695400,8.3716953125,4.073871487399935,-0.07240453467923216,-0.061658583794534205
1783170022392765400,8.381765380859376,4.796117255690693,0.0789809813269414,0.39626054076105355
1783170022402834400,8.39183447265625,6.3323132625013585,-0.12227821646276861,0.4392033912349492
1783170022412904400,8.401904541015625,7.878320469230413,-0.7693414275951683,0.014106485959514975
1783170022422974500,8.411974365234375,8.9496029625535,-1.192705956120044,-0.31861944800205527
1783170022433044500,8.42204443359375,9.245348242381214,-1.396281340163946,-0.41115401237979526
1783170022443114500,8.432114501953125,8.533919636180997,-1.3967854902938008,-0.2488978231307119
1783170022453183500,8.44218359375,7.329354461571574,-1.1713890273250638,0.0576154824161902
1783170022463253500,8.45225341796875,5.533445442301034,-1.198549494516477,-0.44180860529728233
1783170022473323500,8.462323486328126,4.8436435614973306,-1.3419003461569547,-0.8829100852385163
1783170022483393500,8.4723935546875,5.944533257576823,-1.3792721915654838,-0.6350211468894035
1783170022493462500,8.482462646484375,7.28915104599893,-1.43157404121086,-0.3104605453353375
1783170022503532300,8.4925322265625,8.195525301194191,-1.3656472785778342,-0.27562234659027307
1783170022513602600,8.5026025390625,8.156739351204036,-1.3827822455130516,-0.8340460280220955
1783170022523672600,8.512672607421875,7.552427303898334,-1.4418961132608352,-1.3045359534025192
1783170022533742300,8.522742431640625,7.113159103798866,-1.2565952215760945,-1.4880144519656895
1783170022543811600,8.5328115234375,6.867806040602922,-1.080032859076932,-1.518180896040052
1783170022553881300,8.54288134765625,6.78265464527905,-0.65463587487638,-1.0322164842825383
1783170022563951600,8.55295166015625,6.788984432822465,-0.28486091598616914,-0.9533049331963062
1783170022574021600,8.563021728515626,7.477226224702596,-0.48375937599390745,-1.3110184472896158
1783170022584090400,8.57309033203125,8.135406055796146,-0.6529132888674736,-1.7183686834722756
1783170022594160600,8.58316064453125,7.663214660260081,-0.2833904233084991,-1.665311485414952
1783170022604230400,8.59323046875,6.959771792116761,0.47025293828677384,-1.087871955204755
1783170022614300400,8.603300537109375,5.793708489859104,1.0156399549476802,-0.6781766172006726
1783170022624370700,8.61337060546875,4.782812952959537,1.3527045026354492,-0.6515409776009619
1783170022634439400,8.623439453125,4.267604253473878,1.5184107592731713,-0.8082498349212109
1783170022644509400,8.633509521484376,4.634252623042464,1.2673771662227808,-1.1712081178002058
1783170022654579500,8.643579345703126,6.150670162671804,0.48771878114417194,-0.8347241464793682
1783170022664649500,8.6536494140625,6.624163288456201,-0.6764329153385013,-0.9285179902032017
1783170022674718500,8.663718505859375,3.9243805986344813,-1.3375515032976866,-1.7504959062255918
1783170022684788500,8.67378857421875,0.8426181145995855,-1.2618376522742212,-1.7320380201235412
1783170022694858500,8.6838583984375,-1.624118035891652,-1.2716076433993875,-0.9335838952906429
1783170022704928500,8.693928466796875,-4.585107191601395,-0.5569216428384185,0.3296433116458356
1783170022714998500,8.70399853515625,-6.189535023117065,-0.2598585584104061,2.1502578792363405
1783170022725067300,8.7140673828125,-7.676202736648917,-0.36499329583793877,3.752212598636746
1783170022735137500,8.724137451171876,-10.172032295155525,-0.250757552587986,4.520689956748486
