time,seconds_elapsed,z,y,x
1783170014085176600,0.074176513671875,-0.08399025350809097,-0.12096115946769714,0.0644160658121109
1783170014095246300,0.084246337890625,-0.05899941548705101,-0.11909854412078857,0.029318800196051598
1783170014105315300,0.0943154296875,-0.0242488831281662,-0.12713555991649628,0.013344788923859596
1783170014115385300,0.10438525390625,0.027895012870430946,-0.13589097559452057,0.010332753881812096
1783170014125455400,0.114455322265625,0.0873166024684906,-0.15700918436050415,0.0008498879615217447
1783170014135525400,0.124525390625,0.1504010260105133,-0.18551592528820038,-0.006085782311856747
1783170014145595400,0.134595458984375,0.18944160640239716,-0.2141740620136261,0.03374285250902176
1783170014155665400,0.14466552734375,0.19478070735931396,-0.234541118144989,0.08979439735412598
1783170014165734400,0.154734375,0.18020224571228027,-0.21397525072097778,0.13685405254364014
1783170014175804400,0.164804443359375,0.16548055410385132,-0.15622752904891968,0.14678843319416046
1783170014185874400,0.17487451171875,0.14869500696659088,-0.09569855034351349,0.1310034692287445
1783170014195944200,0.184944091796875,0.11069303005933762,-0.06098530814051628,0.08632681518793106
1783170014206014500,0.195014404296875,0.062181953340768814,-0.053604356944561005,0.03770441561937332
1783170014216084200,0.205084228515625,0.024324052035808563,-0.05224694311618805,0.004968571942299604
1783170014226153500,0.215153564453125,-0.0012924347538501024,-0.06522665172815323,-0.03182641789317131
1783170014236223500,0.225223388671875,-0.016703082248568535,-0.0854906439781189,-0.08345632255077362
1783170014246293200,0.235293212890625,-0.013017487712204456,-0.07882462441921234,-0.14013265073299408
1783170014256363300,0.24536328125,0.0018485437612980604,-0.06865561008453369,-0.18600372970104218
1783170014266433300,0.255433349609375,0.01787879876792431,-0.043524689972400665,-0.19761544466018677
1783170014276503300,0.26550341796875,0.02148951217532158,-0.011644786223769188,-0.17017289996147156
1783170014286572500,0.275572509765625,0.015562085434794426,0.012870276346802711,-0.13673900067806244
1783170014296642300,0.285642333984375,0.00481516495347023,0.03246528282761574,-0.10006167739629745
1783170014306712300,0.29571240234375,0.0027212982531636953,0.045174285769462585,-0.0707225650548935
1783170014316782600,0.305782470703125,0.01290016621351242,0.052079059183597565,-0.04525395855307579
1783170014326852400,0.315852294921875,0.02277500182390213,0.060947924852371216,-0.020226076245307922
1783170014336922400,0.32592236328125,0.03166250139474869,0.07612980902194977,-0.011887187138199806
1783170014346991400,0.335991455078125,0.039649900048971176,0.07839415967464447,-0.01578604429960251
1783170014357061400,0.346061279296875,0.04239401966333389,0.07942666113376617,-0.02403705008327961
1783170014367131400,0.35613134765625,0.03382290154695511,0.08979648351669312,-0.04218835383653641
1783170014377201400,0.366201416015625,0.008213948458433151,0.09417977929115295,-0.07059390097856522
1783170014387271400,0.376271484375,-0.00780393835157156,0.1104532927274704,-0.11047884076833725
1783170014397341200,0.386341064453125,-0.02161136269569397,0.11546775698661804,-0.15774010121822357
1783170014407410400,0.396410400390625,-0.029453763738274574,0.11376067250967026,-0.20087721943855286
1783170014417480400,0.40648046875,-0.03317979350686073,0.10440871864557266,-0.2200237512588501
1783170014427550200,0.41655029296875,-0.023408664390444756,0.09132500737905502,-0.20033569633960724
1783170014437620500,0.426620361328125,-0.016483379527926445,0.08359810709953308,-0.13944146037101746
1783170014447690200,0.436690185546875,0.0022187507711350918,0.0738939419388771,-0.06763239204883575
1783170014457759500,0.446759521484375,0.036563675850629807,0.07733181864023209,0.0023091391194611788
1783170014467829500,0.45682958984375,0.07853322476148605,0.0880059078335762,0.03571487218141556
1783170014477899300,0.466899169921875,0.11938531696796417,0.09895656257867813,0.03874901309609413
1783170014487969300,0.47696923828125,0.14686614274978638,0.11739855259656906,0.012398035265505314
1783170014498039300,0.487039306640625,0.16901245713233948,0.11496255546808243,-0.03535856679081917
1783170014508109300,0.497109375,0.18121404945850372,0.10941186547279358,-0.07045817375183105
1783170014518178600,0.507178466796875,0.17648987472057343,0.10737108439207077,-0.07564787566661835
1783170014528248300,0.517248291015625,0.17349444329738617,0.11484724283218384,-0.06268294155597687
1783170014538318300,0.527318359375,0.1754971444606781,0.11837060749530792,-0.03475570306181908
1783170014548388400,0.537388427734375,0.19479823112487793,0.11515723168849945,0.000003894325345754623
1783170014558458400,0.547458251953125,0.2080056369304657,0.13612669706344604,0.052794668823480606
1783170014568528400,0.5575283203125,0.20349733531475067,0.1223636195063591,0.07835284620523453
1783170014578597400,0.567597412109375,0.19972363114356995,0.059916481375694275,0.06296803057193756
1783170014588667400,0.57766748046875,0.19667640328407288,-0.014060411602258682,0.0320654921233654
1783170014598737200,0.587737060546875,0.19726842641830444,-0.09255974739789963,0.0016964012756943703
1783170014608807400,0.597807373046875,0.1968216598033905,-0.15534469485282898,-0.024244673550128937
1783170014618877400,0.60787744140625,0.20248407125473022,-0.1806577742099762,-0.06029321998357773
1783170014628947200,0.617947265625,0.20823490619659424,-0.1699243038892746,-0.08606293052434921
1783170014639016400,0.628016357421875,0.1999490112066269,-0.11782088130712509,-0.11567115783691406
1783170014649086200,0.638086181640625,0.1741963028907776,-0.0573093481361866,-0.12337151169776917
1783170014659156200,0.64815625,0.14586453139781952,0.02002672106027603,-0.12520509958267212
1783170014669226500,0.6582265625,0.13501951098442078,0.08271833509206772,-0.10452673584222794
1783170014679296300,0.668296142578125,0.14511874318122864,0.1367775797843933,-0.06188127025961876
1783170014689366300,0.6783662109375,0.15326079726219177,0.15939047932624817,-0.019885733723640442
1783170014699435500,0.688435546875,0.1701447069644928,0.15649402141571045,0.008387980982661247
1783170014709505300,0.69850537109375,0.1873188614845276,0.12150953710079193,0.013438179157674313
1783170014719575300,0.7085751953125,0.20525658130645752,0.06362280249595642,0.001378853339701891
1783170014729645300,0.718645263671875,0.2122400552034378,-0.0028591519221663475,-0.011246420443058014
1783170014739715300,0.72871533203125,0.2212657630443573,-0.05797300487756729,-0.00020735105499625206
1783170014749784600,0.73878466796875,0.22096292674541473,-0.09268344193696976,0.02385169453918934
1783170014759854300,0.748854248046875,0.21464592218399048,-0.09796049445867538,0.060474950820207596
1783170014769924400,0.75892431640625,0.19564639031887054,-0.05700427293777466,0.08008726686239243
1783170014779994400,0.768994384765625,0.16670502722263336,0.023270852863788605,0.05089902505278587
1783170014790064400,0.779064453125,0.13046693801879883,0.10184608399868011,-0.024544375017285347
1783170014800134400,0.789134521484375,0.0780724436044693,0.16335739195346832,-0.10538942366838455
1783170014810203400,0.799203369140625,0.03193703666329384,0.21959508955478668,-0.17434410750865936
1783170014820273400,0.8092734375,0.0027714266907423735,0.2559072971343994,-0.2042873650789261
1783170014830343200,0.81934326171875,-0.0018866702448576689,0.24962463974952698,-0.20023950934410095
1783170014840413400,0.829413330078125,0.0058831023052334785,0.21457210183143616,-0.17251041531562805
1783170014850483500,0.8394833984375,0.022112663835287094,0.16343049705028534,-0.14976105093955994
1783170014860553200,0.84955322265625,0.043236322700977325,0.10519754141569138,-0.131133571267128
1783170014870622500,0.85962255859375,0.06502711027860641,0.034078892320394516,-0.12744483351707458
1783170014880692200,0.869692138671875,0.08863843232393265,-0.0035326648503541946,-0.14832454919815063
1783170014890762200,0.87976220703125,0.10063698887825012,-0.01647283136844635,-0.20493537187576294
1783170014900832500,0.88983251953125,0.1059422641992569,0.03821944445371628,-0.28724169731140137
1783170014910902300,0.89990234375,0.11200684309005737,0.12557512521743774,-0.40014395117759705
1783170014920972300,0.90997216796875,0.12843400239944458,0.22274960577487946,-0.5327770709991455
1783170014931041300,0.920041259765625,0.14489857852458954,0.33528614044189453,-0.6197336316108704
1783170014941111300,0.930111328125,0.13968677818775177,0.36388689279556274,-0.619906485080719
1783170014951181300,0.940181396484375,0.10590841621160507,0.33514127135276794,-0.5280585289001465
1783170014961251300,0.950251220703125,0.09680519998073578,0.26977744698524475,-0.3833215832710266
1783170014971321300,0.9603212890625,0.21079754829406738,0.14419607818126678,-0.2973534166812897
1783170014981391400,0.970391357421875,0.30190056562423706,0.17057175934314728,-0.24812939763069153
1783170014991460400,0.98046044921875,0.2944559156894684,0.18372511863708496,-0.21841849386692047
1783170015001530400,0.9905302734375,0.26886534690856934,0.16505688428878784,-0.21564269065856934
1783170015011600100,1.00060009765625,0.2535993158817291,0.15411901473999023,-0.23075154423713684
1783170015021670400,1.01067041015625,0.24531982839107513,0.16115428507328033,-0.26990240812301636
1783170015031740400,1.020740478515625,0.23489120602607727,0.1600157916545868,-0.3293277621269226
1783170015041809700,1.0308095703125,0.22442445158958435,0.1265619546175003,-0.4113296866416931
1783170015051879400,1.04087939453125,0.1927507370710373,0.066118985414505,-0.441769540309906
1783170015061949400,1.050949462890625,0.1456734985113144,0.012537514790892601,-0.39687690138816833
1783170015072019500,1.06101953125,0.11638534069061279,-0.02808234840631485,-0.31522294878959656
1783170015082089500,1.07108935546875,0.11085449159145355,-0.03902154788374901,-0.2507251799106598
1783170015092159500,1.081159423828125,0.13415415585041046,-0.06144922226667404,-0.2252342700958252
1783170015102228700,1.091228759765625,0.19622871279716492,-0.10571654886007309,-0.2452189028263092
1783170015112298500,1.101298583984375,0.23130206763744354,-0.011063418351113796,-0.2467552125453949
1783170015122368500,1.111368408203125,0.23702946305274963,0.0320235975086689,-0.2464611828327179
1783170015132438500,1.1214384765625,0.2220965474843979,0.02072860114276409,-0.22058336436748505
1783170015142508500,1.131508544921875,0.22016069293022156,-0.04029640555381775,-0.18909788131713867
1783170015152578600,1.14157861328125,0.25007253885269165,-0.07898334413766861,-0.13283434510231018
1783170015162647600,1.1516474609375,0.28363528847694397,-0.07702060043811798,-0.08573980629444122
1783170015172717600,1.161717529296875,0.3127969205379486,-0.0875021293759346,-0.06002356484532356
1783170015182787300,1.171787353515625,0.29033395648002625,-0.2319788783788681,-0.004711575340479612
1783170015192857600,1.181857666015625,0.24149027466773987,-0.4468019902706146,0.061759382486343384
1783170015202927600,1.191927734375,0.26848992705345154,-0.5135053992271423,0.16433794796466827
1783170015212996600,1.20199658203125,0.3543448746204376,-0.46686556935310364,0.26706773042678833
1783170015223066600,1.212066650390625,0.41715818643569946,-0.41016900539398193,0.3862420618534088
1783170015233136400,1.222136474609375,0.44340837001800537,-0.2619231939315796,0.48972102999687195
1783170015243206400,1.232206298828125,0.4313522279262543,-0.05692185088992119,0.5128663182258606
1783170015253276700,1.242276611328125,0.3767652213573456,0.15957742929458618,0.4754888117313385
1783170015263346400,1.252346435546875,0.2902367115020752,0.2651214599609375,0.4516471326351166
1783170015273415700,1.262415771484375,0.17523233592510223,0.25579625368118286,0.49101290106773376
1783170015283485400,1.2724853515625,0.0360235795378685,0.17792408168315887,0.5662141442298889
1783170015293555500,1.282555419921875,-0.030373193323612213,0.16930235922336578,0.5746611952781677
1783170015303625500,1.29262548828125,-0.039772819727659225,0.28947246074676514,0.5346176028251648
1783170015313695500,1.302695556640625,-0.063540019094944,0.47506216168403625,0.4729467034339905
1783170015323765500,1.312765625,-0.18313086032867432,0.3294772505760193,0.44382449984550476
1783170015333834500,1.32283447265625,-0.13054051995277405,0.4236125349998474,0.6630282402038574
1783170015343904500,1.332904541015625,-0.06217185780405998,0.3580726683139801,0.862865149974823
1783170015353974500,1.342974609375,-0.15631958842277527,0.22670000791549683,0.9511942267417908
1783170015364044500,1.35304443359375,-0.3587920069694519,0.1527474820613861,0.8872149586677551
1783170015374114600,1.363114501953125,-0.5757014751434326,0.2029680460691452,0.6893009543418884
1783170015384183300,1.373183349609375,-0.6591889262199402,0.13973979651927948,0.3655436336994171
1783170015394253600,1.383253662109375,-0.6507629752159119,-0.09298384934663773,0.12809403240680695
1783170015404323600,1.393323486328125,-0.694919764995575,-0.2211761772632599,0.12446308135986328
1783170015414393300,1.403393310546875,-0.7020797729492188,-0.17635704576969147,0.27432698011398315
1783170015424463600,1.413463623046875,-0.5895625352859497,0.06832089275121689,0.4277189373970032
1783170015434533600,1.42353369140625,-0.3444371223449707,0.15346987545490265,0.5026444792747498
1783170015444602400,1.433602294921875,-0.1391148716211319,-0.06253619492053986,0.5101748108863831
1783170015454672600,1.443672607421875,-0.1024182066321373,-0.7375732064247131,0.45595496892929077
1783170015464742400,1.453742431640625,-0.19495825469493866,-1.8714327812194824,0.45604926347732544
1783170015474812400,1.4638125,-0.5023530125617981,-2.948636770248413,0.4824502468109131
1783170015484882700,1.473882568359375,-0.8355900645256042,-3.0239851474761963,0.4204271137714386
1783170015494951400,1.483951416015625,-0.758415162563324,-2.709557294845581,0.1321128010749817
1783170015505021700,1.494021728515625,-0.4443519711494446,-1.9593076705932617,-0.24044771492481232
1783170015515091500,1.504091552734375,-0.21182861924171448,-1.2035226821899414,-0.5384067893028259
1783170015525161500,1.514161376953125,-0.04784875363111496,-0.5796471238136292,-0.7031712532043457
1783170015535231500,1.5242314453125,-0.03926606848835945,-0.2701222598552704,-0.951749861240387
1783170015545301500,1.534301513671875,-0.20803138613700867,-0.3758992850780487,-1.29720139503479
1783170015555370500,1.54437060546875,-0.33642780780792236,-0.6985665559768677,-1.1783651113510132
1783170015565440500,1.5544404296875,-0.4062950313091278,-0.8979619741439819,-0.5781360864639282
1783170015575510500,1.564510498046875,-0.27525636553764343,-0.9252707958221436,-0.09320142865180969
1783170015585580500,1.57458056640625,0.0048131076619029045,-0.4801338315010071,0.12832111120224
1783170015595650600,1.584650634765625,0.3014609217643738,0.3147716820240021,-0.03766350448131561
1783170015605719600,1.594719482421875,0.5400828123092651,1.293846607208252,-0.35883593559265137
1783170015615789300,1.604789306640625,0.6288020014762878,2.0069591999053955,-0.47754722833633423
1783170015625859600,1.614859619140625,0.5515793561935425,2.276329517364502,-0.3170749843120575
1783170015635929600,1.6249296875,0.4621688425540924,2.234508514404297,-0.12520746886730194
1783170015645999400,1.634999267578125,0.3950004577636719,1.9154597520828247,-0.027560271322727203
1783170015656069600,1.645069580078125,0.4061254560947418,1.36892569065094,-0.010440267622470856
1783170015666138400,1.655138427734375,0.37726184725761414,0.9066020846366882,0.007048977073282003
1783170015676208400,1.66520849609375,0.3606528043746948,0.5984281301498413,0.12327881157398224
1783170015686278700,1.675278564453125,0.3972853720188141,0.408473938703537,0.3969380557537079
1783170015696348400,1.685348388671875,0.444219708442688,0.3748979866504669,0.7520089745521545
1783170015706418400,1.69541845703125,0.5214601755142212,0.47224876284599304,1.0087227821350098
1783170015716487400,1.7054873046875,0.42364323139190674,0.47495895624160767,1.0106947422027588
1783170015726557400,1.715557373046875,0.2536669969558716,0.6599897742271423,0.8163330554962158
1783170015736627500,1.72562744140625,0.19802501797676086,0.726798415184021,0.5044273138046265
1783170015746697500,1.735697509765625,0.04562083259224892,0.8298291563987732,0.1836918741464615
1783170015756767500,1.745767578125,-0.1704196184873581,0.9316083788871765,-0.19937609136104584
1783170015766837500,1.75583740234375,-0.32162192463874817,0.8145573735237122,-0.5678691864013672
1783170015776906500,1.765906494140625,-0.4069143235683441,0.6167897582054138,-0.7596014738082886
1783170015786976500,1.7759765625,-0.43601974844932556,0.41822922229766846,-0.764568030834198
1783170015797046500,1.786046630859375,-0.4229767322540283,0.2426982820034027,-0.6109809875488281
1783170015807116500,1.796116455078125,-0.33718299865722656,0.04839165508747101,-0.3117274343967438
1783170015817186600,1.8061865234375,-0.16350214183330536,-0.18523867428302765,0.04102198779582977
1783170015827255600,1.816255615234375,0.06670789420604706,-0.4211031198501587,0.271898090839386
1783170015837325600,1.82632568359375,0.12488719820976257,-0.3627607226371765,0.36484208703041077
1783170015847395300,1.836395263671875,-0.0257467869669199,-0.015963099896907806,0.19815295934677124
1783170015857465600,1.846465576171875,-0.11772745102643967,0.21007150411605835,-0.13670523464679718
1783170015867535600,1.85653564453125,-0.259974867105484,0.7503232955932617,-0.476884126663208
1783170015877604600,1.8666044921875,-0.37125420570373535,1.1209380626678467,-0.5176069736480713
1783170015887674600,1.876674560546875,-0.3685345947742462,1.1157872676849365,-0.38714292645454407
1783170015897744400,1.886744384765625,-0.3173491060733795,0.8066250085830688,-0.1723330169916153
1783170015907814400,1.896814453125,-0.307193398475647,0.28096631169319153,0.19737659394741058
1783170015917884700,1.906884765625,-0.30427977442741394,-0.306160032749176,0.5875958204269409
1783170015927954400,1.916954345703125,-0.2391849160194397,-0.9963280558586121,0.772666335105896
1783170015938023700,1.927023681640625,-0.01947442814707756,-1.794062614440918,0.7563239336013794
1783170015948093400,1.937093505859375,0.2950291931629181,-2.6479578018188477,0.7746105194091797
1783170015958163500,1.94716357421875,0.3794498145580292,-3.1880226135253906,0.6626405119895935
1783170015968233500,1.9572333984375,0.22443440556526184,-3.120678186416626,0.30586111545562744
1783170015978303500,1.967303466796875,-0.17587332427501678,-2.0273704528808594,-0.2896343469619751
1783170015988372500,1.97737255859375,-0.6317012906074524,-0.503082275390625,-1.0794181823730469
1783170015998442500,1.9874423828125,-0.9431343674659729,0.860883891582489,-1.5721544027328491
1783170016008512500,1.997512451171875,-1.02437162399292,1.5746515989303589,-1.8473318815231323
1783170016018582500,2.00758251953125,-0.9304443001747131,1.342104434967041,-2.0169756412506104
1783170016028652500,2.017652587890625,-0.7622444033622742,0.3970494866371155,-2.0871012210845947
1783170016038722000,2.02772216796875,-0.6069645881652832,-0.5737168788909912,-1.852862000465393
1783170016048791300,2.037791259765625,-0.4667150676250458,-0.9315943717956543,-1.422785758972168
1783170016058861300,2.047861328125,-0.3126865029335022,-0.8721948266029358,-1.2530227899551392
1783170016068931000,2.05793115234375,-0.1574798822402954,-0.4778544306755066,-1.3118222951889038
1783170016079001000,2.0680009765625,0.01772007718682289,0.2028133124113083,-1.3637312650680542
1783170016089071000,2.078071044921875,0.20313653349876404,0.820395290851593,-1.3185776472091675
1783170016099140000,2.08814013671875,0.3197556436061859,0.941652238368988,-1.0655213594436646
1783170016109210400,2.09821044921875,0.4242487847805023,0.6909241676330566,-0.4628105163574219
1783170016119280000,2.108280029296875,0.6060723662376404,0.36007723212242126,0.27453309297561646
1783170016129350100,2.11835009765625,0.8600351214408875,0.10149575024843216,0.8912495374679565
1783170016139420200,2.128420166015625,1.0563145875930786,0.0022033890709280968,1.2533198595046997
1783170016149490200,2.138490234375,1.1321043968200684,0.12827637791633606,1.2987278699874878
1783170016159559200,2.14855908203125,1.0828176736831665,0.5386071801185608,1.044085144996643
1783170016169629200,2.158629150390625,0.9440913200378418,1.1185373067855835,0.6895379424095154
1783170016179699200,2.16869921875,0.7460976839065552,1.427171230316162,0.42133447527885437
1783170016189769000,2.17876904296875,0.5317526459693909,1.2613734006881714,0.29311418533325195
1783170016199839200,2.188839111328125,0.35713571310043335,0.7357980012893677,0.307498961687088
1783170016209908200,2.198908203125,0.28750550746917725,0.1432979255914688,0.4441547989845276
1783170016219978000,2.20897802734375,0.28942492604255676,-0.3514825105667114,0.6457659006118774
1783170016230048300,2.21904833984375,0.3256779909133911,-0.6749657988548279,0.8511789441108704
1783170016240118300,2.2291181640625,0.3211934268474579,-0.8234042525291443,0.9698779582977295
1783170016250188000,2.23918798828125,0.28748953342437744,-0.7567178606987,0.9725515246391296
1783170016260257300,2.24925732421875,0.23144468665122986,-0.46210330724716187,0.8808984160423279
1783170016270327000,2.2593271484375,0.10673177987337112,-0.09179660677909851,0.7554046511650085
1783170016280397000,2.26939697265625,-0.10435892641544342,0.22393152117729187,0.6501367092132568
1783170016290467300,2.27946728515625,-0.3146913945674896,0.43141868710517883,0.5292086601257324
1783170016300537000,2.289537109375,-0.458272248506546,0.4509453773498535,0.4027860164642334
1783170016310606300,2.2996064453125,-0.4856359660625458,0.3617648780345917,0.3527265787124634
1783170016320676000,2.309676025390625,-0.4271543323993683,0.2266954928636551,0.40308699011802673
1783170016330746000,2.31974609375,-0.3184390366077423,0.10208750516176224,0.6373159885406494
1783170016340816400,2.32981640625,-0.18252407014369965,-0.010103875771164894,0.9859508872032166
1783170016350886100,2.33988623046875,-0.023013778030872345,-0.06784520298242569,1.244378924369812
1783170016360956200,2.3499560546875,0.13041865825653076,-0.04475985839962959,1.3061120510101318
1783170016371025200,2.360025146484375,0.20759813487529755,0.06892968714237213,1.221152901649475
1783170016381095200,2.37009521484375,0.12075033038854599,0.13387872278690338,0.9647578597068787
1783170016391165200,2.380165283203125,-0.031836822628974915,0.16770939528942108,0.6446501612663269
1783170016401235200,2.390235107421875,-0.0988587811589241,0.11990445852279663,0.45474672317504883
1783170016411305200,2.40030517578125,-0.07754284143447876,0.0040268562734127045,0.48875880241394043
1783170016421374200,2.410374267578125,0.05760163441300392,-0.2099127322435379,0.6060904860496521
1783170016431444200,2.4204443359375,0.25063952803611755,-0.5957440733909607,0.5959920883178711
1783170016441514200,2.43051416015625,0.36892133951187134,-1.050789475440979,0.4132944643497467
1783170016451584000,2.440583984375,0.26162683963775635,-1.6062726974487305,0.0802462175488472
1783170016461654300,2.450654296875,-0.14009948074817657,-1.953897476196289,-0.19123290479183197
1783170016471723000,2.460722900390625,-0.5233051776885986,-1.7577284574508667,-0.3937087953090668
1783170016481793300,2.470793212890625,-0.5775237083435059,-1.2547862529754639,-0.5947080254554749
1783170016491863300,2.48086328125,-0.2876069247722626,-0.9676780104637146,-0.7709621787071228
1783170016501933000,2.49093310546875,0.1773463934659958,-1.0302810668945312,-0.7892586588859558
1783170016512003000,2.501003173828125,0.5391210913658142,-1.4384126663208008,-0.5275894999504089
1783170016522073000,2.511072998046875,0.6199905276298523,-1.8761558532714844,-0.05759177356958389
1783170016532142000,2.52114208984375,0.585808277130127,-1.9841294288635254,0.3728858530521393
1783170016542212400,2.53121240234375,0.5665845274925232,-1.3771063089370728,0.3372601270675659
1783170016552282000,2.5412822265625,0.5988918542861938,-0.12415295094251633,-0.38487356901168823
1783170016562352000,2.55135205078125,0.7119243741035461,1.2027534246444702,-1.435287356376648
1783170016572422100,2.561422119140625,0.7910674214363098,2.2626192569732666,-2.093193292617798
1783170016582491100,2.5714912109375,0.7614080905914307,2.76489520072937,-2.14579176902771
1783170016592561200,2.58156103515625,0.584962010383606,2.630302906036377,-1.9059447050094604
1783170016602631200,2.591631103515625,0.4091874063014984,1.9249687194824219,-1.7434295415878296
1783170016612701200,2.601701171875,0.15210795402526855,1.2006986141204834,-1.532566785812378
1783170016622771200,2.611771240234375,-0.11143745481967926,0.5250129103660583,-1.1006468534469604
1783170016632840200,2.621840087890625,-0.06094232201576233,0.009031069464981556,-0.6288577914237976
1783170016642910200,2.63191015625,0.23978593945503235,-0.17200103402137756,-0.3192460238933563
1783170016652980000,2.64197998046875,0.5643967390060425,-0.028778361156582832,-0.1632673442363739
1783170016663050200,2.65205029296875,0.6844676733016968,0.2772228419780731,-0.11475123465061188
1783170016673120300,2.662120361328125,0.6200703382492065,0.5519571900367737,-0.12637220323085785
1783170016683189200,2.672189208984375,0.5267795324325562,0.7419473528862,-0.1767740547657013
1783170016693259300,2.68225927734375,0.4745136797428131,0.8446084856987,-0.30549395084381104
1783170016703329000,2.6923291015625,0.3108009696006775,0.7971067428588867,-0.38759589195251465
1783170016713399300,2.7023994140625,0.19510604441165924,0.6225283145904541,-0.32487496733665466
1783170016723469300,2.71246923828125,0.12992694973945618,0.3335895836353302,-0.1390322893857956
1783170016733539000,2.7225390625,0.116527259349823,-0.03335779905319214,0.09548753499984741
1783170016743608300,2.7326083984375,0.14381591975688934,-0.34151217341423035,0.3074721097946167
1783170016753678000,2.742677978515625,0.19960914552211761,-0.5199357271194458,0.464510977268219
1783170016763748000,2.752748046875,0.2584890127182007,-0.5049766302108765,0.5361878275871277
1783170016773818400,2.762818359375,0.25022655725479126,-0.3707045614719391,0.4803916811943054
1783170016783888100,2.77288818359375,0.15205655992031097,-0.2471742033958435,0.3237325847148895
1783170016793957000,2.78295703125,0.05388657748699188,-0.16507720947265625,0.1951807588338852
1783170016804027100,2.793027099609375,0.005966187920421362,-0.13738912343978882,0.13198713958263397
1783170016814097200,2.80309716796875,-0.008529131300747395,-0.14537487924098969,0.14817224442958832
1783170016824167200,2.813167236328125,-0.0171971395611763,-0.18501430749893188,0.2074829787015915
1783170016834237200,2.8232373046875,-0.022213201969861984,-0.2705249488353729,0.2728286683559418
1783170016844306200,2.83330615234375,-0.03451300039887428,-0.33272266387939453,0.31977853178977966
1783170016854376200,2.843376220703125,-0.07067286968231201,-0.3474195897579193,0.37152615189552307
1783170016864446200,2.8534462890625,-0.11993154883384705,-0.28916335105895996,0.49001336097717285
1783170016874516200,2.86351611328125,-0.18780779838562012,-0.2610536813735962,0.6279283165931702
1783170016884586000,2.8735859375,-0.26865464448928833,-0.24134229123592377,0.7709842324256897
1783170016894656300,2.88365625,-0.3592183589935303,-0.22618810832500458,0.8736363053321838
1783170016904725000,2.89372509765625,-0.4525739550590515,-0.22483894228935242,0.9116300344467163
1783170016914795300,2.903795166015625,-0.5641694664955139,-0.2820151746273041,0.8759095668792725
1783170016924865300,2.913865234375,-0.6839094161987305,-0.475764662027359,0.7887580990791321
1783170016934935000,2.92393505859375,-0.7028679251670837,-0.6236161589622498,0.7086499333381653
1783170016945005000,2.934005126953125,-0.5892894268035889,-0.5855050086975098,0.6373142004013062
1783170016955074000,2.944073974609375,-0.3869437873363495,-0.4644472897052765,0.5479811429977417
1783170016965144000,2.95414404296875,-0.2281101793050766,-0.16380849480628967,0.5199959874153137
1783170016975214300,2.96421435546875,-0.08308108896017075,0.07940816134214401,0.5553765892982483
1783170016985284000,2.9742841796875,-0.014124433510005474,0.10406370460987091,0.7469539046287537
1783170016995354000,2.98435400390625,-0.07439176738262177,-0.09666486829519272,0.9355142116546631
1783170017005423000,2.994423095703125,-0.16706952452659607,-0.7017900943756104,0.6375615000724792
1783170017015493000,3.0044931640625,-0.18161357939243317,-1.6030631065368652,0.025276772677898407
1783170017025563100,3.014563232421875,-0.25478553771972656,-2.431732177734375,-0.5401666760444641
1783170017035633200,3.024633056640625,-0.3816167116165161,-2.2250120639801025,-0.9770806431770325
1783170017045703400,3.034703369140625,-0.38802775740623474,-0.9097194671630859,-0.9785210490226746
1783170017055772400,3.0447724609375,-0.14017614722251892,0.836201548576355,-0.45455503463745117
1783170017065842400,3.054842529296875,0.2163473218679428,2.1300315856933594,0.09756160527467728
1783170017075912400,3.064912353515625,0.35064733028411865,2.5084640979766846,0.36172109842300415
1783170017085982200,3.074982177734375,0.14998994767665863,1.8919258117675781,0.29694971442222595
1783170017096052500,3.085052490234375,-0.0476355217397213,0.6704727411270142,-0.126367449760437
1783170017106121200,3.095121337890625,-0.036148324608802795,-0.34273988008499146,-0.47662878036499023
1783170017116191500,3.10519140625,0.1028527095913887,-1.0118119716644287,-0.6277075409889221
1783170017126261500,3.115261474609375,0.31457462906837463,-1.2910213470458984,-0.6546325087547302
1783170017136331300,3.125331298828125,0.4748452603816986,-1.1067860126495361,-0.6496614217758179
1783170017146401300,3.1354013671875,0.5151718258857727,-0.5766016840934753,-0.6868705749511719
1783170017156470300,3.14547021484375,0.3966287076473236,-0.0036078933626413345,-0.8605691194534302
1783170017166540300,3.155540283203125,0.20652611553668976,0.5069344639778137,-1.118531584739685
1783170017176610600,3.165610595703125,0.035879552364349365,0.9116781949996948,-1.29795241355896
1783170017186680300,3.175680419921875,-0.09119684994220734,0.958143413066864,-1.3950824737548828
1783170017196750300,3.185750244140625,-0.11309469491243362,0.5075443387031555,-1.2739834785461426
1783170017206820600,3.195820556640625,0.02719925530254841,-0.16726645827293396,-0.9055884480476379
1783170017216889300,3.205889404296875,0.22475068271160126,-0.7475759387016296,-0.48655202984809875
1783170017226959400,3.21595947265625,0.3808618187904358,-0.9776266813278198,-0.1241765171289444
1783170017237029400,3.226029296875,0.4828869700431824,-0.7186238765716553,0.0987178161740303
1783170017247099400,3.236099365234375,0.48458245396614075,-0.2047220915555954,0.17477983236312866
1783170017257169400,3.24616943359375,0.3103097379207611,0.3400653004646301,0.1430911421775818
1783170017267238400,3.25623828125,0.07980971783399582,0.7659549713134766,-0.004802482668310404
1783170017277308400,3.266308349609375,-0.1033284142613411,0.9516044855117798,-0.2065848708152771
1783170017287378400,3.27637841796875,-0.19846847653388977,0.9122613668441772,-0.30746397376060486
1783170017297448400,3.286448486328125,-0.20237906277179718,0.690817654132843,-0.23583024740219116
1783170017307518500,3.2965185546875,-0.14707748591899872,0.3331812024116516,-0.041493650525808334
1783170017317587500,3.30658740234375,-0.05076161026954651,-0.0609421581029892,0.26119962334632874
1783170017327657500,3.316657470703125,-0.0036089022178202868,-0.38332831859588623,0.5791407823562622
1783170017337727200,3.326727294921875,-0.014952636323869228,-0.4474194049835205,0.7642480731010437
1783170017347797500,3.336797607421875,-0.04168521985411644,-0.229896679520607,0.696194589138031
1783170017357867500,3.346867431640625,-0.10408894717693329,0.1107783317565918,0.3857152760028839
1783170017367936300,3.356936279296875,-0.1980012208223343,0.4004895091056824,-0.007142213638871908
1783170017378006500,3.367006591796875,-0.24839834868907928,0.5063786506652832,-0.3264749348163605
1783170017388076300,3.377076171875,-0.2661398947238922,0.4074273109436035,-0.49827152490615845
1783170017398146300,3.387146240234375,-0.22669582068920135,0.2102213054895401,-0.4673660695552826
1783170017408216600,3.397216552734375,-0.16780753433704376,-0.03223834186792374,-0.2303714156150818
1783170017418285300,3.407285400390625,-0.1255599558353424,-0.3241055905818939,0.11181280761957169
1783170017428355300,3.417355224609375,-0.11655724048614502,-0.6324718594551086,0.3822079002857208
1783170017438425300,3.42742529296875,-0.17961663007736206,-0.761109471321106,0.517326295375824
1783170017448495400,3.437495361328125,-0.26649948954582214,-0.6399725079536438,0.46619752049446106
1783170017458565400,3.4475654296875,-0.3340575098991394,-0.38356146216392517,0.3126750588417053
1783170017468635400,3.457635498046875,-0.34736400842666626,-0.12353921681642532,0.23343339562416077
1783170017478704400,3.467704345703125,-0.12750515341758728,-0.09745382517576218,0.28487449884414673
1783170017488774400,3.4777744140625,-0.049691829830408096,0.11039803922176361,0.27452751994132996
1783170017498844400,3.487844482421875,-0.16132701933383942,0.30662745237350464,0.39102405309677124
1783170017508914400,3.49791455078125,-0.2947482466697693,0.33237770199775696,0.4776347577571869
1783170017518984200,3.507984130859375,-0.38577988743782043,0.23744001984596252,0.4531925320625305
1783170017529053400,3.518053466796875,-0.42209845781326294,0.22843864560127258,0.4440402686595917
1783170017539123200,3.528123291015625,-0.40050873160362244,0.3360189199447632,0.45795661211013794
1783170017549193500,3.538193359375,-0.323957234621048,0.5310602784156799,0.4139806926250458
1783170017559263500,3.548263427734375,-0.15500761568546295,0.9410052299499512,0.39466771483421326
1783170017569333200,3.558333251953125,0.10015859454870224,1.1793568134307861,0.4406664967536926
1783170017579402500,3.568402587890625,0.40565139055252075,1.0291142463684082,0.4106830358505249
1783170017589472300,3.57847216796875,0.5433010458946228,0.3046295642852783,0.02157733216881752
1783170017599542300,3.588542236328125,0.3013416528701782,-0.7030717134475708,-0.5086721181869507
1783170017609612500,3.598612548828125,-0.19664302468299866,-1.5245764255523682,-0.9964320659637451
1783170017619682300,3.608682373046875,-0.6677312254905701,-2.0406057834625244,-1.5508701801300049
1783170017629751600,3.61875146484375,-0.8042375445365906,-2.117597818374634,-1.7587674856185913
1783170017639821300,3.6288212890625,-0.4535301625728607,-1.6329171657562256,-1.3637874126434326
1783170017649891300,3.638891357421875,0.05804158002138138,-0.7598926424980164,-0.7418569326400757
1783170017659961300,3.64896142578125,0.25113141536712646,-0.0004632323980331421,-0.33907243609428406
1783170017670031400,3.65903125,0.0510350801050663,0.23954764008522034,-0.13782252371311188
1783170017680100400,3.669100341796875,-0.19615261256694794,0.10913689434528351,0.009489431977272034
1783170017690170400,3.67917041015625,-0.24835506081581116,-0.13117995858192444,0.2931881546974182
1783170017700240400,3.689240478515625,-0.0867089256644249,-0.37911707162857056,0.7569286227226257
1783170017710310400,3.699310302734375,0.16407807171344757,-0.4706408381462097,1.1733862161636353
1783170017720380400,3.70938037109375,0.3407180905342102,-0.31287944316864014,1.399719476699829
1783170017730449400,3.719449462890625,0.4037187993526459,-0.049267787486314774,1.3731461763381958
1783170017740519200,3.729519287109375,0.3479229211807251,0.1980610340833664,1.1719269752502441
1783170017750589400,3.73958935546875,0.19325803220272064,0.14296238124370575,0.792003870010376
1783170017760659500,3.749659423828125,0.00028750929050147533,-0.18399204313755035,0.26266974210739136
1783170017770729200,3.759729248046875,-0.21573328971862793,-0.40780091285705566,-0.23785807192325592
1783170017780798500,3.769798583984375,-0.47670629620552063,-0.1429157257080078,-0.7455713748931885
1783170017790868200,3.7798681640625,-0.5513860583305359,0.08343153446912766,-1.040701150894165
1783170017800938200,3.789938232421875,-0.2928335964679718,0.2435695379972458,-1.1455270051956177
1783170017811008500,3.800008544921875,0.016918828710913658,0.5069736242294312,-1.1567784547805786
1783170017821078300,3.810078369140625,0.2042628824710846,0.7160237431526184,-0.8663567304611206
1783170017831147500,3.8201474609375,0.3347809612751007,0.848712682723999,-0.3869740068912506
1783170017841217300,3.83021728515625,0.3648293912410736,1.024983286857605,0.051300548017024994
1783170017851287300,3.840287353515625,0.31846585869789124,1.2163431644439697,0.3328133225440979
1783170017861357600,3.850357666015625,0.22847045958042145,1.2688716650009155,0.3923858404159546
1783170017871427300,3.86042724609375,0.16017581522464752,1.1111712455749512,0.26852142810821533
1783170017881496300,3.870496337890625,0.1518409252166748,0.80238938331604,0.09169844537973404
1783170017891566600,3.880566650390625,0.1837039291858673,0.4789177477359772,0.004440509248524904
1783170017901636400,3.89063623046875,0.2661260962486267,0.2333063781261444,0.05312975123524666
1783170017911706400,3.900706298828125,0.3655576705932617,0.14100028574466705,0.18829265236854553
1783170017921776400,3.9107763671875,0.4333995580673218,0.21626174449920654,0.3308199644088745
1783170017931845400,3.920845458984375,0.4403335154056549,0.3783423900604248,0.41703349351882935
1783170017941915400,3.930915283203125,0.402108371257782,0.5531938076019287,0.44428586959838867
1783170017951985400,3.9409853515625,0.25824832916259766,0.5725324153900146,0.4209175109863281
1783170017962055400,3.951055419921875,0.038519710302352905,0.35996976494789124,0.35817235708236694
1783170017972125200,3.961125244140625,-0.13661348819732666,0.1255737990140915,0.26301947236061096
1783170017982194400,3.9711943359375,-0.21870489418506622,-0.010751553811132908,0.13207826018333435
1783170017992264400,3.981264404296875,-0.25674498081207275,-0.02583303675055504,-0.014878226444125175
1783170018002334500,3.99133447265625,-0.2440992295742035,0.09300972521305084,-0.14692839980125427
1783170018012404500,4.001404541015625,-0.19773410260677338,0.2450333535671234,-0.23194123804569244
1783170018022474200,4.01147412109375,-0.16159634292125702,0.3359057307243347,-0.21712526679039001
1783170018032543500,4.02154345703125,-0.18970519304275513,0.3272384703159332,-0.0805141031742096
1783170018042613800,4.03161376953125,-0.25657397508621216,0.26323312520980835,0.15138491988182068
1783170018052683800,4.041683837890625,-0.31223049759864807,0.1903822124004364,0.3932255804538727
1783170018062753800,4.05175390625,-0.34724441170692444,0.11234200745820999,0.5820330381393433
1783170018072823800,4.06182373046875,-0.37445059418678284,0.09826427698135376,0.6692631244659424
1783170018082892800,4.071892822265625,-0.3744676411151886,0.16486167907714844,0.6037325859069824
1783170018092962800,4.081962890625,-0.34194955229759216,0.2569921314716339,0.45763063430786133
1783170018103032800,4.09203271484375,-0.2846958339214325,0.37044042348861694,0.36124682426452637
1783170018113102800,4.102102783203125,-0.23262733221054077,0.4562368094921112,0.29919371008872986
1783170018123172900,4.1121728515625,-0.2150680422782898,0.4608291685581207,0.29991862177848816
1783170018133241900,4.122241943359375,-0.20912055671215057,0.32326462864875793,0.33277544379234314
1783170018143311600,4.1323115234375,-0.11555971950292587,0.08277000486850739,0.30766555666923523
1783170018153382000,4.1423818359375,0.0038042557425796986,-0.15426237881183624,0.22147820889949799
1783170018163452000,4.152451904296875,0.08915803581476212,-0.2596292793750763,0.06488059461116791
1783170018173521700,4.162521728515625,0.13097165524959564,-0.2340897023677826,-0.20007869601249695
1783170018183591000,4.1725908203125,0.08644252270460129,-0.36562269926071167,-0.5840591192245483
1783170018193661000,4.182660888671875,-0.12351766973733902,-0.6117541790008545,-0.9857893586158752
1783170018203731000,4.19273095703125,-0.4166787266731262,-0.7530471682548523,-1.2371903657913208
1783170018213801000,4.202801025390625,-0.5608843564987183,-0.8079296350479126,-1.2180755138397217
1783170018223870700,4.21287060546875,-0.49743321537971497,-0.9609830975532532,-0.9869769215583801
1783170018233940000,4.22293994140625,-0.26161912083625793,-1.4117385149002075,-0.8438442945480347
1783170018244010000,4.233010009765625,-0.05400921404361725,-1.793590784072876,-0.6917269229888916
1783170018254079700,4.243079833984375,0.03562001883983612,-1.8981900215148926,-0.4296773374080658
1783170018264150000,4.25314990234375,0.054301559925079346,-1.6948363780975342,-0.27170661091804504
1783170018274219800,4.2632197265625,0.07362288981676102,-1.2299375534057617,-0.2826138138771057
1783170018284288800,4.273288818359375,0.08442813903093338,-0.6680905818939209,-0.39914336800575256
1783170018294359000,4.283359130859375,0.04838263988494873,-0.15531060099601746,-0.5282024145126343
1783170018304428800,4.2934287109375,-0.003484283573925495,0.17494693398475647,-0.5658270716667175
1783170018314498800,4.303498779296875,-0.06781473755836487,0.2839309275150299,-0.509875476360321
1783170018324568800,4.31356884765625,-0.12865731120109558,0.21993358433246613,-0.39929965138435364
1783170018334637800,4.323637939453125,-0.16536472737789154,-0.047508105635643005,-0.33142271637916565
1783170018344707800,4.333707763671875,-0.14151319861412048,-0.34676191210746765,-0.19113297760486603
1783170018354777900,4.34377783203125,0.023503944277763367,-0.3990721106529236,-0.028653817251324654
1783170018364847900,4.353847900390625,0.2380223572254181,-0.09260247647762299,0.003703588619828224
1783170018374917600,4.363917724609375,0.4550625681877136,0.44724783301353455,-0.11703378707170486
1783170018384987000,4.37398681640625,0.5739564895629883,1.009962797164917,-0.2759470045566559
1783170018395057000,4.384056884765625,0.6006869077682495,1.4501169919967651,-0.3559745252132416
1783170018405127000,4.394126953125,0.5855414867401123,1.732990026473999,-0.36800989508628845
1783170018415197000,4.404197021484375,0.5340830087661743,1.7216825485229492,-0.3357976973056793
1783170018425266700,4.4142666015625,0.43262219429016113,1.4355663061141968,-0.25147509574890137
1783170018435336000,4.4243359375,0.32656025886535645,0.8949183821678162,-0.11953752487897873
1783170018445406000,4.434406005859375,0.25329750776290894,0.2542835772037506,0.028801076114177704
1783170018455475700,4.444475830078125,0.27085572481155396,-0.42073243856430054,0.18289850652217865
1783170018465546000,4.4545458984375,0.3467235863208771,-0.8957349061965942,0.30262571573257446
1783170018475615700,4.46461572265625,0.42277610301971436,-1.057073950767517,0.34462669491767883
1783170018485685000,4.47468505859375,0.4153845012187958,-0.942528486251831,0.3279619812965393
1783170018495755000,4.484755126953125,0.26691824197769165,-0.6757450103759766,0.31913521885871887
1783170018505824800,4.49482470703125,0.02771766111254692,-0.3344883620738983,0.3492145538330078
1783170018515894800,4.504894775390625,-0.1733240783214569,-0.1322913020849228,0.3247401714324951
1783170018525964800,4.51496484375,-0.283149391412735,-0.06230955198407173,0.26760923862457275
1783170018536033800,4.52503369140625,-0.3384105861186981,0.036591991782188416,0.1496296226978302
1783170018546104000,4.53510400390625,-0.34191903471946716,0.181968092918396,0.0016646725125610828
1783170018556173800,4.545173828125,-0.2963750958442688,0.3135964274406433,-0.10683009773492813
1783170018566243800,4.555243896484375,-0.2462645024061203,0.38791701197624207,-0.10374083369970322
1783170018576313900,4.56531396484375,-0.24173592031002045,0.44967755675315857,0.019401246681809425
1783170018586382800,4.5753828125,-0.29028749465942383,0.4919384717941284,0.17277854681015015
1783170018596452900,4.585452880859375,-0.3602161705493927,0.47081202268600464,0.28636959195137024
1783170018606523000,4.59552294921875,-0.41683229804039,0.3818911910057068,0.33541223406791687
1783170018616593000,4.605593017578125,-0.45269274711608887,0.26427188515663147,0.3193342089653015
1783170018626663000,4.615662841796875,-0.4506477117538452,0.15324418246746063,0.31251946091651917
1783170018636732000,4.62573193359375,-0.4288589656352997,0.06683272123336792,0.36467444896698
1783170018646802000,4.635802001953125,-0.3764772415161133,-0.0017681801691651344,0.4719226062297821
1783170018656871700,4.64587158203125,-0.32111623883247375,-0.04147378355264664,0.641033947467804
1783170018666942000,4.65594189453125,-0.2598496973514557,-0.05087500810623169,0.826707124710083
1783170018677012000,4.666011962890625,-0.18800479173660278,0.010734428651630878,0.9869279861450195
1783170018687081000,4.6760810546875,-0.11706510186195374,0.13063552975654602,1.0297293663024902
1783170018697151000,4.68615087890625,-0.0737871304154396,0.29874277114868164,0.9205604195594788
1783170018707220700,4.696220703125,-0.03736041858792305,0.43423697352409363,0.709760308265686
1783170018717290800,4.706290771484375,-0.003692391561344266,0.3554721176624298,0.5150885581970215
1783170018727361000,4.716361083984375,0.011627708561718464,0.03429435193538666,0.450454443693161
1783170018737429800,4.7264296875,0.01625131629407406,-0.4536014199256897,0.5394371747970581
1783170018747500000,4.7365,0.11528628319501877,-1.104219913482666,0.6689866185188293
1783170018757569800,4.74656982421875,0.30128005146980286,-1.938978672027588,0.7371333241462708
1783170018767639800,4.756639892578125,0.1875244677066803,-2.3508102893829346,0.9450460076332092
1783170018777710000,4.7667099609375,0.014588214457035065,-2.0997085571289062,0.9058980941772461
1783170018787778800,4.77677880859375,-0.09147457033395767,-1.7553809881210327,0.1958722323179245
1783170018797848800,4.786848876953125,-0.3496589660644531,-1.6488878726959229,-0.9253748655319214
1783170018807918800,4.7969189453125,-0.5701884031295776,-1.6577357053756714,-1.952102541923523
1783170018817988900,4.80698876953125,-0.7967687249183655,-1.9339532852172852,-2.4437408447265625
1783170018828059000,4.817058837890625,-1.0030028820037842,-1.9074147939682007,-2.1643576622009277
1783170018838127900,4.8271279296875,-1.477725863456726,-1.4369051456451416,-1.1876827478408813
1783170018848198000,4.837197998046875,-1.0943914651870728,-1.33909010887146,-0.2356790155172348
1783170018858268000,4.847267822265625,-0.07062533497810364,-0.879208505153656,0.15479356050491333
1783170018868338000,4.857337890625,0.5553663969039917,-0.009896012023091316,0.20740696787834167
1783170018878408000,4.867407958984375,0.7037410736083984,0.8991154432296753,0.03026292659342289
1783170018888477000,4.877476806640625,0.6522507667541504,1.2575392723083496,-0.3305932879447937
1783170018898547000,4.887546875,0.5462149977684021,1.3057398796081543,-0.7262982130050659
1783170018908616700,4.89761669921875,0.3993765711784363,1.050390362739563,-1.0847344398498535
1783170018918687000,4.90768701171875,0.292462557554245,0.6293101906776428,-1.3135045766830444
1783170018928757000,4.917757080078125,0.2430202066898346,0.2729856073856354,-1.3956226110458374
1783170018938825700,4.92782568359375,0.2822572886943817,0.04694889113306999,-1.3490476608276367
1783170018948896000,4.93789599609375,0.41332927346229553,0.05801379308104515,-1.144885778427124
1783170018958965800,4.9479658203125,0.587295651435852,0.38473546504974365,-0.8876286149024963
1783170018969035800,4.958035888671875,0.7130969762802124,0.7883396148681641,-0.7334907054901123
1783170018979106000,4.96810595703125,0.7286492586135864,1.1673133373260498,-0.6538679599761963
1783170018989174800,4.9781748046875,0.6200317144393921,1.4706026315689087,-0.5777438879013062
1783170018999245000,4.9882451171875,0.41472697257995605,1.628071904182434,-0.4442611336708069
1783170019009314800,4.998314697265625,0.2065844088792801,1.9594389200210571,-0.2547612488269806
1783170019019384800,5.008384765625,0.01565602794289589,2.297975540161133,-0.07032798230648041
1783170019029454800,5.018454833984375,-0.10522805154323578,2.5451951026916504,0.02926039882004261
1783170019039523300,5.0285234375,0.014371976256370544,2.7758543491363525,0.11739037185907364
1783170019049593300,5.03859326171875,0.1025465726852417,2.911619186401367,0.09666139632463455
1783170019059663400,5.048663330078125,0.16437023878097534,2.9146568775177,0.018446950241923332
1783170019069733400,5.0587333984375,0.3534139096736908,2.632695436477661,-0.0075598834082484245
1783170019079803400,5.068803466796875,0.7363224625587463,2.000454902648926,0.01634288765490055
1783170019089872400,5.078872314453125,1.1364072561264038,1.240478515625,0.0906037986278534
1783170019099942400,5.0889423828125,1.3659675121307373,0.9166993498802185,0.03173336014151573
1783170019110012400,5.099012451171875,1.349874496459961,1.1282621622085571,-0.28608107566833496
1783170019120082400,5.10908251953125,1.1958136558532715,1.5399925708770752,-0.7046689391136169
1783170019130152400,5.11915234375,0.8810156583786011,2.024787664413452,-0.9777518510818481
1783170019140221400,5.129221435546875,0.42703506350517273,2.2217965126037598,-0.8940524458885193
1783170019150291500,5.13929150390625,0.1502484679222107,2.1667613983154297,-0.4995144307613373
1783170019160361200,5.149361328125,0.14367397129535675,1.6623157262802124,-0.05433060973882675
1783170019170431500,5.159431396484375,0.19847995042800903,0.6005192995071411,0.2916228175163269
1783170019180500200,5.169500244140625,0.25592270493507385,-0.4478406012058258,0.5641360878944397
1783170019190570200,5.1795703125,0.2989564538002014,-1.1682579517364502,0.8186333775520325
1783170019200640500,5.189640625,0.3368918299674988,-1.6950373649597168,1.1429110765457153
1783170019210710300,5.199710205078125,0.28016382455825806,-1.972822666168213,1.5355100631713867
1783170019220780300,5.2097802734375,0.1370924562215805,-1.8824889659881592,1.8276185989379883
1783170019230849300,5.219849365234375,0.09258385747671127,-1.3269561529159546,1.8603380918502808
1783170019240919300,5.229919189453125,0.04531204700469971,-0.5893495082855225,1.676245093345642
1783170019250989300,5.2399892578125,0.017792807891964912,0.199581578373909,1.434854507446289
1783170019261059300,5.250059326171875,0.04150597006082535,0.583643913269043,1.1623369455337524
1783170019271129300,5.26012939453125,0.15396219491958618,0.26966413855552673,1.161696195602417
1783170019281198300,5.2701982421875,0.3858835697174072,-0.3567681908607483,1.3780103921890259
1783170019291268400,5.280268310546875,0.6267422437667847,-0.9825847148895264,1.633520483970642
1783170019301338400,5.29033837890625,0.6491593718528748,-1.5418541431427002,1.703100323677063
1783170019311408400,5.300408447265625,0.3734697103500366,-1.887686014175415,1.506074070930481
1783170019321478400,5.310478515625,-0.06489904224872589,-2.065243721008301,1.2331658601760864
1783170019331547100,5.320547119140625,-0.38655272126197815,-1.975883960723877,0.9833095073699951
1783170019341617400,5.330617431640625,-0.5949239730834961,-1.827755093574524,0.7164341807365417
1783170019351687400,5.3406875,-0.6580702066421509,-1.7521969079971313,0.26716291904449463
1783170019361757200,5.350757080078125,-0.566352367401123,-1.7957651615142822,-0.2479129582643509
1783170019371827500,5.360827392578125,-0.24765588343143463,-1.5042020082473755,-0.5545729994773865
1783170019381896200,5.370896240234375,-0.12515535950660706,-1.1429041624069214,-0.716853678226471
1783170019391966500,5.380966552734375,-0.17033028602600098,-0.8321327567100525,-0.844315767288208
1783170019402036500,5.391036376953125,-0.43201687932014465,-0.6076002717018127,-0.8930849432945251
1783170019412106200,5.401106201171875,-0.812955379486084,-0.4977896511554718,-0.5861183404922485
1783170019422176300,5.41117626953125,-0.9191069006919861,-0.4513314664363861,-0.16460327804088593
1783170019432245200,5.421245361328125,-0.6169374585151672,-0.4241267442703247,0.20161812007427216
1783170019442315300,5.431315185546875,-0.09904602915048599,-0.4348137676715851,0.450154185295105
1783170019452385500,5.441385498046875,0.37840574979782104,-0.6195513606071472,0.6222366690635681
1783170019462455300,5.451455322265625,0.42533355951309204,-0.5451564192771912,0.2903241813182831
1783170019472525300,5.461525390625,0.21657878160476685,-0.5030571222305298,-0.12482534348964691
1783170019482594300,5.47159423828125,0.001667720964178443,-0.6920546889305115,-0.43821707367897034
1783170019492664300,5.481664306640625,-0.07861273735761642,-0.5922567248344421,-0.8009776473045349
1783170019502734300,5.491734375,-0.03688311204314232,-0.37070173025131226,-1.0909357070922852
1783170019512804400,5.501804443359375,0.04675798863172531,-0.33091917634010315,-1.3160388469696045
1783170019522873300,5.511873291015625,0.13497978448867798,-0.17430053651332855,-1.3157366514205933
1783170019532943400,5.521943359375,0.1956564486026764,0.282615602016449,-1.1159974336624146
1783170019543013400,5.532013427734375,0.29181116819381714,0.5799840092658997,-0.9282401204109192
1783170019553083400,5.54208349609375,0.28115665912628174,0.6703970432281494,-0.7739266753196716
1783170019563153200,5.552153076171875,0.1094420999288559,0.1915525496006012,-0.5722665786743164
1783170019573222400,5.562222412109375,-0.1695179045200348,-0.09695940464735031,-0.642238974571228
1783170019583292200,5.572292236328125,-0.23309949040412903,0.1483258455991745,-0.681316614151001
1783170019593362400,5.582362548828125,-0.11486898362636566,0.3864510655403137,-0.6508809328079224
1783170019603432400,5.592432373046875,0.02637498453259468,0.34551137685775757,-0.43844074010849
1783170019613502200,5.602502197265625,0.04100985452532768,0.4150310158729553,-0.13493627309799194
1783170019623571500,5.612571533203125,0.06808816641569138,0.6995759606361389,0.11277631670236588
1783170019633641200,5.62264111328125,0.13998951017856598,0.8754061460494995,0.23448704183101654
1783170019643711200,5.632711181640625,0.16550783812999725,0.6935523152351379,0.21510440111160278
1783170019653781500,5.642781494140625,0.1719937026500702,0.19321009516716003,0.17101895809173584
1783170019663851300,5.652851318359375,0.09089163690805435,-0.42523300647735596,0.20770837366580963
1783170019673923300,5.66292333984375,0.02325480245053768,-0.7711417078971863,0.29576021432876587
1783170019683992300,5.672992431640625,-0.03349977731704712,-0.6479343175888062,0.30342626571655273
1783170019694062600,5.6830625,-0.097205251455307,-0.16952109336853027,0.19715306162834167
1783170019704132400,5.69313232421875,-0.10965770483016968,0.41107332706451416,0.009802747517824173
1783170019714202400,5.703202392578125,-0.10498625785112381,0.7830426096916199,-0.11627955734729767
1783170019724271400,5.713271240234375,-0.17913642525672913,0.8093215823173523,-0.14674332737922668
1783170019734341400,5.72334130859375,-0.2611319422721863,0.5716054439544678,-0.04675813019275665
1783170019744411400,5.733411376953125,-0.2528208792209625,0.28092384338378906,0.06998816877603531
1783170019754481400,5.7434814453125,-0.2314886748790741,-0.00435504037886858,0.22287198901176453
1783170019764551400,5.753551513671875,-0.2399696260690689,-0.15543816983699799,0.4022122323513031
1783170019774621200,5.76362109375,-0.28173333406448364,-0.14651498198509216,0.5142887234687805
1783170019784690400,5.7736904296875,-0.3072366714477539,0.024063553661108017,0.5453712940216064
1783170019794760400,5.783760498046875,-0.2970609962940216,0.3639119267463684,0.4599538743495941
1783170019804830200,5.793830322265625,-0.2366534173488617,0.7012383937835693,0.34750837087631226
1783170019814900500,5.803900390625,-0.21264608204364777,0.846579909324646,0.37725162506103516
1783170019824969200,5.81396923828125,-0.19602054357528687,0.7592586278915405,0.5094931721687317
1783170019835039500,5.82403955078125,-0.08897585421800613,0.5146619081497192,0.5963806509971619
1783170019845109500,5.834109619140625,-0.04263925924897194,0.0783076137304306,0.6836437582969666
1783170019855179300,5.84417919921875,-0.08715718984603882,-0.7125958204269409,0.7877520322799683
1783170019865249300,5.854249267578125,-0.10484636574983597,-1.4701756238937378,0.9242228865623474
1783170019875318300,5.864318359375,-0.05684208869934082,-1.8495559692382812,0.9626573920249939
1783170019885388300,5.87438818359375,0.06400042027235031,-1.8463014364242554,0.889053463935852
1783170019895458600,5.88445849609375,0.2205394208431244,-1.5369666814804077,0.6608746647834778
1783170019905528300,5.8945283203125,0.18722373247146606,-1.17598295211792,0.4446597993373871
1783170019915598300,5.904598388671875,-0.05803583189845085,-0.7753979563713074,0.25867077708244324
1783170019925667300,5.914667236328125,-0.4026804566383362,-0.45406654477119446,0.00393499294295907
1783170019935737300,5.9247373046875,-0.5614732503890991,-0.4675293564796448,-0.2126588225364685
1783170019945807400,5.934807373046875,-0.41355448961257935,-0.6863624453544617,-0.3855758309364319
1783170019955877400,5.94487744140625,-0.2461920976638794,-1.0759280920028687,-0.5235651135444641
1783170019965947400,5.954947509765625,-0.15354017913341522,-1.2321697473526,-0.6560065746307373
1783170019976016400,5.965016357421875,-0.13144391775131226,-0.9452767372131348,-0.6510009169578552
1783170019986086400,5.97508642578125,-0.15564337372779846,-0.5576319098472595,-0.4790940582752228
1783170019996156400,5.985156494140625,-0.04563165828585625,-0.2600354254245758,-0.29732587933540344
1783170020006226200,5.99522607421875,0.12299736589193344,-0.11946871876716614,-0.10043151676654816
1783170020016295400,6.00529541015625,0.27592432498931885,-0.01572101190686226,0.05046292766928673
1783170020026365200,6.015365234375,0.31258562207221985,0.19848543405532837,0.10505583882331848
1783170020036435200,6.025435302734375,0.31642401218414307,0.4192279279232025,0.030390651896595955
1783170020046505200,6.035505126953125,0.35612571239471436,0.5052548050880432,-0.06765912473201752
1783170020056575000,6.045574951171875,0.4310697317123413,0.4160008430480957,-0.046214550733566284
1783170020066644200,6.055644287109375,0.5223770141601562,0.30946558713912964,0.009562833234667778
1783170020076714000,6.0657138671875,0.6124807596206665,0.3494178056716919,-0.03268395736813545
1783170020086784000,6.075783935546875,0.5983084440231323,0.3943634331226349,-0.21354728937149048
1783170020096854300,6.085854248046875,0.49104806780815125,0.5124480128288269,-0.4415479600429535
1783170020106924000,6.095924072265625,0.36306318640708923,0.7453694343566895,-0.5631027817726135
1783170020116993300,6.1059931640625,0.2553905248641968,0.951993465423584,-0.5128015279769897
1783170020127063000,6.11606298828125,0.21652565896511078,0.9348301887512207,-0.38849520683288574
1783170020137133000,6.126133056640625,0.2477847784757614,0.6474207639694214,-0.17139403522014618
1783170020147203300,6.136203369140625,0.30063512921333313,0.2707734704017639,0.09299544990062714
1783170020157273000,6.146273193359375,0.33978065848350525,0.0047356607392430305,0.2932065725326538
1783170020167342000,6.156342041015625,0.34668731689453125,-0.1582118421792984,0.43366897106170654
1783170020177412000,6.166412109375,0.3398624360561371,-0.1146627739071846,0.3724149465560913
1783170020187482000,6.176482177734375,0.3194211721420288,0.09798584878444672,0.20718535780906677
1783170020197552000,6.18655224609375,0.24644310772418976,0.3210309147834778,0.07695093005895615
1783170020207622100,6.1966220703125,0.14410367608070374,0.416060209274292,0.023655418306589127
1783170020217691100,6.206691162109375,0.04489773139357567,0.35508260130882263,0.053199730813503265
1783170020227761200,6.21676123046875,-0.024680668488144875,0.25046712160110474,0.12368965148925781
1783170020237831200,6.2268310546875,-0.03628779202699661,0.18078285455703735,0.2023351788520813
1783170020247901200,6.236901123046875,-0.04643039405345917,0.09453905373811722,0.277072936296463
1783170020257970200,6.24697021484375,-0.0924021452665329,0.010766921564936638,0.30250293016433716
1783170020268040200,6.257040283203125,-0.13776522874832153,0.02771354839205742,0.2296958565711975
1783170020278110200,6.267110107421875,-0.17988871037960052,0.1521763801574707,0.05141427367925644
1783170020288180200,6.27718017578125,-0.21066537499427795,0.31138092279434204,-0.08723421394824982
1783170020298250200,6.287250244140625,-0.2309189736843109,0.3594786822795868,-0.12689320743083954
1783170020308319000,6.297319091796875,-0.22900405526161194,0.30962073802948,-0.029929419979453087
1783170020318389200,6.30738916015625,-0.1820506602525711,0.25094783306121826,0.14461815357208252
1783170020328459300,6.317459228515625,-0.13472047448158264,0.23344366252422333,0.2835215926170349
1783170020338529000,6.327529052734375,-0.10366854071617126,0.26100900769233704,0.3319602310657501
1783170020348599300,6.337599365234375,-0.07453127205371857,0.39999377727508545,0.2743525207042694
1783170020358668000,6.34766796875,-0.0637555867433548,0.5366469025611877,0.18137118220329285
1783170020368738000,6.357738037109375,-0.0949096754193306,0.5299081206321716,0.15109989047050476
1783170020378808300,6.367808349609375,-0.09850813448429108,0.4517531096935272,0.22223398089408875
1783170020388878000,6.377878173828125,-0.04177074879407883,0.31315380334854126,0.3431152105331421
1783170020398948000,6.387947998046875,0.046769239008426666,0.01200782135128975,0.5348674058914185
1783170020409017000,6.39801708984375,0.15685904026031494,-0.4915923476219177,0.6884449124336243
1783170020419087000,6.408087158203125,0.27229002118110657,-1.0741004943847656,0.7088412642478943
1783170020429157400,6.418157470703125,0.3335672914981842,-1.6081485748291016,0.5713143944740295
1783170020439227100,6.42822705078125,0.28315338492393494,-2.018057107925415,0.38641244173049927
1783170020449296100,6.438296142578125,0.10968979448080063,-2.155472755432129,0.124042809009552
1783170020459366100,6.4483662109375,-0.16552554070949554,-1.8181798458099365,-0.092255137860775
1783170020469436200,6.458436279296875,-0.47396862506866455,-1.1655668020248413,-0.2519523501396179
1783170020479506200,6.468506103515625,-0.6413562297821045,-0.5660524368286133,-0.45682454109191895
1783170020489576200,6.478576171875,-0.6821809411048889,-0.3332351744174957,-0.702680766582489
1783170020499645200,6.488645263671875,-0.602617621421814,-0.4684191048145294,-0.9262915253639221
1783170020509715200,6.498715087890625,-0.48471081256866455,-0.6573312878608704,-0.9218582510948181
1783170020519785200,6.50878515625,-0.3962952196598053,-0.7554583549499512,-0.7936403155326843
1783170020529855200,6.518855224609375,-0.3448250889778137,-0.6164261698722839,-0.6238688826560974
1783170020539925000,6.528925048828125,-0.24491074681282043,-0.360293984413147,-0.491938054561615
1783170020549994200,6.538994140625,-0.06570891290903091,-0.16637110710144043,-0.4150524437427521
1783170020560064000,6.54906396484375,0.12812793254852295,-0.037808604538440704,-0.33172640204429626
1783170020570134300,6.55913427734375,0.279451847076416,0.08059860020875931,-0.24644789099693298
1783170020580204300,6.569204345703125,0.35779619216918945,0.25173091888427734,-0.18522556126117706
1783170020590273000,6.57927294921875,0.3709475100040436,0.45588260889053345,-0.19958004355430603
1783170020600343300,6.58934326171875,0.3911987245082855,0.5100246667861938,-0.2767467200756073
1783170020610413000,6.5994130859375,0.46091732382774353,0.3002704977989197,-0.2577948272228241
1783170020620483000,6.609483154296875,0.5796146988868713,0.009379280731081963,-0.0906660333275795
1783170020630553300,6.61955322265625,0.6520611047744751,-0.11370016634464264,0.05514753609895706
1783170020640622000,6.6296220703125,0.6356704235076904,0.03166314959526062,0.10722138732671738
1783170020650692400,6.6396923828125,0.5336514711380005,0.2642122507095337,0.03457380831241608
1783170020660762000,6.64976220703125,0.4121777415275574,0.4971959590911865,-0.12442196160554886
1783170020670832000,6.65983203125,0.35371166467666626,0.6939728260040283,-0.2731369137763977
1783170020680902100,6.669902099609375,0.28644341230392456,0.8396836519241333,-0.2897787392139435
1783170020690971100,6.67997119140625,0.1949278712272644,0.9291462898254395,-0.2017190158367157
1783170020701041200,6.690041259765625,0.09336982667446136,0.9609548449516296,-0.0417192243039608
1783170020711111200,6.700111083984375,-0.004557269159704447,0.9042028784751892,0.09175601601600647
1783170020721181200,6.71018115234375,-0.031207524240016937,0.8584510684013367,0.1678806096315384
1783170020731251200,6.720251220703125,-0.02672368474304676,0.7617486715316772,0.2092006355524063
1783170020741320200,6.7303203125,-0.015397792682051659,0.6415433883666992,0.2688663601875305
1783170020751390200,6.74039013671875,0.016698205843567848,0.563124418258667,0.31501224637031555
1783170020761460000,6.7504599609375,0.05805869400501251,0.5103810429573059,0.3666735589504242
1783170020771530200,6.7605302734375,0.10275433212518692,0.47961974143981934,0.39419153332710266
1783170020781599000,6.770598876953125,0.0896449163556099,0.4262619912624359,0.3846225440502167
1783170020791669200,6.780669189453125,0.015088592655956745,0.37645238637924194,0.3316725790500641
1783170020801739300,6.7907392578125,-0.06121816113591194,0.2718364894390106,0.26077282428741455
1783170020811809000,6.80080908203125,-0.10888511687517166,0.0840335413813591,0.18556435406208038
1783170020821879000,6.810879150390625,-0.1131000965833664,-0.03647981956601143,0.11877573281526566
1783170020831948000,6.820947998046875,-0.07272326201200485,-0.0008536484092473984,0.0687486007809639
1783170020842018000,6.83101806640625,0.012639304623007774,0.16743282973766327,0.01559137087315321
1783170020852088300,6.84108837890625,0.07422033697366714,0.35260242223739624,-0.02387547492980957
1783170020862158000,6.851157958984375,0.06823354959487915,0.49570339918136597,0.011089698411524296
1783170020872228000,6.86122802734375,0.025276578962802887,0.5352547764778137,0.11712957918643951
1783170020882297000,6.871297119140625,-0.006287205033004284,0.536273717880249,0.24043020606040955
1783170020892367000,6.8813671875,0.021639522165060043,0.5133987665176392,0.324695885181427
1783170020902437000,6.89143701171875,0.0815846174955368,0.44609588384628296,0.3414815068244934
1783170020912507100,6.901507080078125,0.15522658824920654,0.4246033728122711,0.33788564801216125
1783170020922576100,6.911576171875,0.20063774287700653,0.44844716787338257,0.3298160135746002
1783170020932646100,6.921646240234375,0.1946643590927124,0.5097711682319641,0.32377126812934875
1783170020942716200,6.931716064453125,0.14694583415985107,0.5689676403999329,0.31210023164749146
1783170020952786200,6.9417861328125,0.10205090790987015,0.5638990998268127,0.3554275333881378
1783170020962856000,6.95185595703125,0.05958361178636551,0.4458792209625244,0.40827158093452454
1783170020972925200,6.96192529296875,0.04650653153657913,0.23621203005313873,0.442552387714386
1783170020982995000,6.971994873046875,0.04353710636496544,0.05399908125400543,0.4684705436229706
1783170020993065200,6.982065185546875,0.058936707675457,-0.04513895511627197,0.4216674864292145
1783170021003135200,6.99213525390625,0.07031852751970291,-0.1371985822916031,0.2827572822570801
1783170021013205000,7.002205078125,0.08337580412626266,-0.2802116572856903,0.1339397430419922
1783170021023274200,7.012274169921875,0.09793423861265182,-0.538718044757843,-0.038953997194767
1783170021033344000,7.022343994140625,0.13181765377521515,-0.8935195207595825,-0.18099495768547058
1783170021043414800,7.032414794921875,0.2130400687456131,-1.2101860046386719,-0.34139129519462585
1783170021053484800,7.04248486328125,0.19786396622657776,-1.4270098209381104,-0.6143410801887512
1783170021063553800,7.0525537109375,0.039527859538793564,-1.4548685550689697,-0.8684609532356262
1783170021073623600,7.06262353515625,-0.16203740239143372,-1.404968500137329,-1.0519623756408691
1783170021083693800,7.07269384765625,-0.1930544376373291,-1.4017817974090576,-1.152546763420105
1783170021093763800,7.082763916015625,-0.07601651549339294,-1.3952358961105347,-1.158197045326233
1783170021103833600,7.09283349609375,0.06354110687971115,-1.2279590368270874,-1.0093638896942139
1783170021113902800,7.10290283203125,0.150629922747612,-0.8783513903617859,-0.6842026710510254
1783170021123972600,7.11297265625,0.14993776381015778,-0.5634765625,-0.38334083557128906
1783170021134042600,7.123042724609375,0.13645122945308685,-0.5023819804191589,-0.26412689685821533
1783170021144113000,7.13311279296875,0.16405409574508667,-0.6013141870498657,-0.23655518889427185
1783170021154182700,7.1431826171875,0.23804835975170135,-0.5895324945449829,-0.21250587701797485
1783170021164252000,7.153251953125,0.26879799365997314,-0.09105505049228668,-0.3347787857055664
1783170021174321700,7.16332177734375,0.3143588900566101,-0.08064700663089752,-0.5645490884780884
1783170021184391700,7.1733916015625,0.4573024809360504,-0.3854585587978363,-0.3561796545982361
1783170021194461700,7.183461669921875,0.6932877898216248,-0.6346818804740906,-0.09160635620355606
1783170021204530700,7.19353076171875,0.744982123374939,-0.6110026240348816,-0.04796672984957695
1783170021214600700,7.2036005859375,0.590377688407898,-0.10467831045389175,-0.20238377153873444
1783170021224670700,7.213670654296875,0.4340367913246155,0.5591156482696533,-0.35642579197883606
1783170021234740700,7.22374072265625,0.37839648127555847,1.160622477531433,-0.3299950063228607
1783170021244810800,7.233810791015625,0.36826127767562866,1.61911940574646,-0.21093282103538513
1783170021254879700,7.243879638671875,0.3735029399394989,1.6462130546569824,-0.18597440421581268
1783170021264949800,7.25394970703125,0.39408573508262634,1.2900339365005493,-0.23609882593154907
1783170021275019500,7.26401953125,0.4180142283439636,0.7218838334083557,-0.3337422013282776
1783170021285089800,7.27408984375,0.6096795201301575,0.12734666466712952,-0.4775502383708954
1783170021295158500,7.284158447265625,0.9157512187957764,-0.20528587698936462,-0.6051656603813171
1783170021305228800,7.294228759765625,1.1225051879882812,0.3558536171913147,-0.3618049919605255
1783170021315298800,7.304298828125,1.0540831089019775,0.67629474401474,-0.20175080001354218
1783170021325368600,7.31436865234375,0.9142359495162964,1.112882137298584,-0.06251487880945206
1783170021335438800,7.32443896484375,0.8123834133148193,1.416776418685913,0.039236411452293396
1783170021345507600,7.334507568359375,0.632260262966156,1.500331997871399,0.11244724690914154
1783170021355577600,7.34457763671875,0.24555392563343048,1.0643473863601685,0.13286280632019043
1783170021365648000,7.35464794921875,-0.04455644637346268,0.5314062833786011,0.11454159021377563
1783170021375717600,7.364717529296875,-0.1673336625099182,0.10506825894117355,0.2204989790916443
1783170021385787600,7.37478759765625,-0.21423593163490295,-0.17279665172100067,0.41408228874206543
1783170021395856600,7.384856689453125,-0.09806039184331894,-0.19394095242023468,0.6336488723754883
1783170021405926700,7.3949267578125,0.07791996002197266,-0.11329137533903122,0.7840868830680847
1783170021415996700,7.40499658203125,0.15649384260177612,-0.05964919179677963,0.8148266077041626
1783170021426066700,7.415066650390625,0.12223067879676819,-0.09012693911790848,0.7079483866691589
1783170021436135700,7.4251357421875,0.021584689617156982,-0.13716036081314087,0.45890650153160095
1783170021446205700,7.435205810546875,-0.0762217715382576,-0.11369764059782028,0.2403232902288437
1783170021456275700,7.445275634765625,-0.12423417717218399,0.020872021093964577,0.18494653701782227
1783170021466345700,7.455345703125,-0.17613279819488525,0.3007049858570099,0.2737976014614105
1783170021476415700,7.465415771484375,-0.25205186009407043,0.5506194829940796,0.34610840678215027
1783170021486484700,7.475484619140625,-0.23784546554088593,0.6070409417152405,0.2693864703178406
1783170021496554500,7.485554443359375,-0.14529070258140564,0.6328555345535278,0.15670405328273773
1783170021506624800,7.495624755859375,-0.029483146965503693,0.4662606716156006,0.10869312286376953
1783170021516694800,7.50569482421875,0.06634312123060226,0.34010833501815796,0.35982534289360046
1783170021526764500,7.5157646484375,0.04446444660425186,0.25831544399261475,0.7750108242034912
1783170021536833800,7.525833740234375,-0.022293787449598312,0.09804563969373703,1.0742961168289185
1783170021546903800,7.53590380859375,-0.07275136560201645,-0.03581602871417999,1.1784634590148926
1783170021556973600,7.5459736328125,-0.05101641267538071,-0.114999920129776,1.0409830808639526
1783170021567043800,7.5560439453125,-0.026869531720876694,-0.2219412922859192,0.7751825451850891
1783170021577112600,7.566112548828125,-0.10475894808769226,-0.34236690402030945,0.45035338401794434
1783170021587182800,7.576182861328125,-0.20241519808769226,-0.3488442301750183,0.24541248381137848
1783170021597252900,7.5862529296875,-0.13806216418743134,-0.23283255100250244,0.1879875659942627
1783170021607322600,7.596322509765625,0.038772255182266235,-0.1013304591178894,0.36193326115608215
1783170021617393000,7.606392822265625,0.1751842200756073,-0.1261368691921234,0.6120914816856384
1783170021627461600,7.616461669921875,0.12643985450267792,-0.18453733623027802,0.5429648756980896
1783170021637531600,7.62653173828125,-0.010018016211688519,-0.20651160180568695,0.2362779676914215
1783170021647602000,7.636601806640625,-0.10181211680173874,-0.3489361107349396,-0.09672421962022781
1783170021657671700,7.646671630859375,-0.11814863234758377,-0.6904242038726807,-0.3770679235458374
1783170021667741000,7.656740966796875,-0.0568690299987793,-1.1153582334518433,-0.5611120462417603
1783170021677810700,7.666810791015625,0.015220630913972855,-1.1982214450836182,-0.5768409371376038
1783170021687880700,7.676880615234375,0.06332424283027649,-0.7112700939178467,-0.5078943371772766
1783170021697950700,7.68695068359375,0.08670742064714432,0.31662270426750183,-0.5293921828269958
1783170021708020700,7.697020751953125,0.03678566589951515,1.2252283096313477,-0.7048012614250183
1783170021718089700,7.70708984375,-0.11326003819704056,1.6020313501358032,-0.9936121702194214
1783170021728159700,7.71715966796875,-0.2338181436061859,1.6914914846420288,-1.1658954620361328
1783170021738229800,7.727229736328125,-0.2850337624549866,1.2240980863571167,-1.1733059883117676
1783170021748299800,7.7372998046875,-0.2099432647228241,0.42852580547332764,-1.109615683555603
1783170021758369800,7.747369873046875,-0.036293137818574905,-0.4222486913204193,-0.984886646270752
1783170021768438800,7.757438720703125,0.10799773037433624,-0.8269436955451965,-0.913535475730896
1783170021778508500,7.767508544921875,0.1160237044095993,-0.7452873587608337,-1.0012273788452148
1783170021788578800,7.777578857421875,-0.06282540410757065,-0.40044525265693665,-1.153639316558838
1783170021798648800,7.78764892578125,-0.23749180138111115,0.02872621640563011,-1.3671488761901855
1783170021808717800,7.7977177734375,-0.36832067370414734,0.39534175395965576,-1.5416011810302734
1783170021818787800,7.807787841796875,-0.43066421151161194,0.5451958179473877,-1.542496681213379
1783170021828857600,7.817857666015625,-0.4184517562389374,0.5496318936347961,-1.3732306957244873
1783170021838928000,7.827927978515625,-0.3490343391895294,0.3710920810699463,-1.0588091611862183
1783170021848998000,7.837997802734375,-0.1804191917181015,0.1100812554359436,-0.783795177936554
1783170021859066600,7.848066650390625,-0.10496846586465836,0.04274922236800194,-0.5074734091758728
1783170021869137000,7.858136962890625,-0.10891500115394592,0.06456610560417175,-0.27778616547584534
1783170021879206700,7.86820654296875,-0.09182238578796387,0.15064053237438202,-0.13182179629802704
1783170021889276700,7.878276611328125,-0.049562014639377594,0.1724795252084732,-0.05684448033571243
1783170021899345700,7.888345703125,0.022081132978200912,0.20452946424484253,-0.06801487505435944
1783170021909415700,7.898415771484375,0.13267183303833008,0.43410593271255493,-0.06818771362304688
1783170021919485700,7.908485595703125,0.2662420868873596,0.4411872923374176,0.0607706680893898
1783170021929555700,7.9185556640625,0.35804763436317444,0.2936747968196869,0.22349700331687927
1783170021939625700,7.928625732421875,0.3488134741783142,0.03693900629878044,0.3138839304447174
1783170021949694700,7.93869482421875,0.2591741383075714,-0.14363662898540497,0.2845068573951721
1783170021959764700,7.9487646484375,0.19589221477508545,0.11106503009796143,0.1215440034866333
1783170021969834800,7.958834716796875,0.07576287537813187,0.4289356768131256,-0.08502434939146042
1783170021979904800,7.96890478515625,0.0018266153056174517,0.5434273481369019,-0.13770294189453125
1783170021989974800,7.978974853515625,0.0024473981466144323,0.5417724251747131,-0.024059202522039413
1783170022000043500,7.98904345703125,0.021603940054774284,0.5796897411346436,0.19032759964466095
1783170022010113800,7.99911376953125,0.0037477111909538507,0.671022891998291,0.43190187215805054
1783170022020183800,8.009183837890625,-0.061670634895563126,0.8439383506774902,0.5638120770454407
1783170022030253600,8.019253662109374,-0.03471784666180611,0.7651100754737854,0.5056835412979126
1783170022040322600,8.029322509765626,-0.015835577622056007,0.5732576847076416,0.37299996614456177
1783170022050392300,8.039392333984376,-0.031124785542488098,0.5710563063621521,0.33608266711235046
1783170022060462600,8.049462646484375,-0.04909875616431236,0.6297511458396912,0.4195435047149658
1783170022070532600,8.05953271484375,-0.07231699675321579,0.7212179899215698,0.6663700938224792
1783170022080601300,8.069601318359375,-0.06398079544305801,0.8367117047309875,1.0055031776428223
1783170022090671600,8.079671630859375,-0.02931523323059082,0.9048497676849365,1.117600440979004
1783170022100741400,8.089741455078125,0.0021096228156238794,0.7625810503959656,0.9432362914085388
1783170022110811400,8.099811279296874,0.06221264228224754,0.5884696841239929,0.7541143298149109
1783170022120881700,8.109881591796874,0.06289330124855042,0.4363429844379425,0.6691151261329651
1783170022130950400,8.119950439453126,0.08039426803588867,0.19583158195018768,0.7171226143836975
1783170022141020400,8.1300205078125,0.09171810746192932,0.0891735851764679,0.7368339896202087
1783170022151090400,8.14009033203125,0.038925204426050186,0.12742003798484802,0.6359734535217285
1783170022161160400,8.150160400390625,0.051594771444797516,0.22928167879581451,0.6324464678764343
1783170022171230500,8.16023046875,0.14781372249126434,0.3441166579723358,0.7027424573898315
1783170022181299500,8.170299560546875,0.2463725209236145,0.13015377521514893,0.7277092933654785
1783170022191369500,8.180369384765624,0.3480781018733978,-0.42615047097206116,0.6754685044288635
1783170022201439500,8.190439453125,0.2967537045478821,-0.9577810764312744,0.583277702331543
1783170022211509500,8.200509521484374,0.20627547800540924,-1.2544699907302856,0.5635228753089905
1783170022221578500,8.21057861328125,0.16165044903755188,-1.2448854446411133,0.44259995222091675
1783170022231648500,8.2206484375,0.10016977787017822,-1.1256484985351562,0.139879509806633
1783170022241718500,8.230718505859375,-0.0027866314630955458,-1.1467828750610352,-0.30666476488113403
1783170022251788300,8.240788330078125,-0.1816868782043457,-1.0888686180114746,-0.7649345397949219
1783170022261858600,8.250858642578125,-0.38858866691589355,-0.9866185784339905,-1.0366146564483643
1783170022271927600,8.260927490234375,-0.5026289224624634,-0.8947342038154602,-1.0431886911392212
1783170022281997600,8.27099755859375,-0.47123968601226807,-0.7508949041366577,-1.0059036016464233
1783170022292067600,8.281067626953124,-0.42646288871765137,-0.6371177434921265,-0.9352035522460938
1783170022302137300,8.291137451171876,-0.3187749683856964,-0.5136366486549377,-0.8887269496917725
1783170022312206600,8.30120654296875,-0.14093703031539917,-0.28987839818000793,-0.7961695790290833
1783170022322276600,8.311276611328125,-0.09886686503887177,-0.20306479930877686,-0.6762107610702515
1783170022332346400,8.321346435546875,-0.1213117241859436,-0.3114631772041321,-0.6467140913009644
1783170022342416600,8.331416748046875,-0.12732666730880737,-0.4826565086841583,-0.6911705732345581
1783170022352486400,8.341486328125,-0.14019879698753357,-0.5513333082199097,-0.7816554307937622
1783170022362555400,8.351555419921874,-0.1458948850631714,-0.4080321788787842,-0.8254601955413818
1783170022372625700,8.361625732421874,-0.10770808160305023,-0.22372227907180786,-0.7559447288513184
1783170022382695400,8.3716953125,-0.046902406960725784,-0.05556536465883255,-0.6000891327857971
1783170022392765400,8.381765380859376,0.07590367645025253,0.11262550950050354,-0.40382346510887146
1783170022402834400,8.39183447265625,0.16897737979888916,0.14388756453990936,-0.30607467889785767
1783170022412904400,8.401904541015625,0.1763327568769455,0.08657899498939514,-0.3242507576942444
1783170022422974500,8.411974365234375,0.16869032382965088,-0.033175498247146606,-0.4431747496128082
1783170022433044500,8.42204443359375,0.163096085190773,-0.1751643270254135,-0.5617019534111023
1783170022443114500,8.432114501953125,0.18187947571277618,-0.2684870660305023,-0.5924398303031921
1783170022453183500,8.44218359375,0.24441581964492798,-0.24751627445220947,-0.4244902431964874
1783170022463253500,8.45225341796875,0.24654847383499146,-0.20448972284793854,0.014311086386442184
1783170022473323500,8.462323486328126,0.22336779534816742,-0.12062785774469376,0.4569034278392792
1783170022483393500,8.4723935546875,0.22833792865276337,-0.007567876949906349,0.66552734375
1783170022493462500,8.482462646484375,0.2744803726673126,0.13165979087352753,0.656489908695221
1783170022503532300,8.4925322265625,0.3493141233921051,0.3396085798740387,0.4715411365032196
1783170022513602600,8.5026025390625,0.3350451588630676,0.5251787304878235,0.3268513083457947
1783170022523672600,8.512672607421875,0.2628266215324402,0.6091238260269165,0.3055744171142578
1783170022533742300,8.522742431640625,0.17782439291477203,0.6807985305786133,0.35070595145225525
1783170022543811600,8.5328115234375,0.0722561776638031,0.667219877243042,0.4329308569431305
1783170022553881300,8.54288134765625,0.07107134163379669,0.6304432153701782,0.5532884001731873
1783170022563951600,8.55295166015625,0.06601901352405548,0.6273446679115295,0.6715723276138306
1783170022574021600,8.563021728515626,0.02063075453042984,0.6359541416168213,0.6674957871437073
1783170022584090400,8.57309033203125,-0.09536214172840118,0.6535575985908508,0.5369980931282043
1783170022594160600,8.58316064453125,-0.11701257526874542,0.8219165205955505,0.4374845027923584
1783170022604230400,8.59323046875,-0.04135739430785179,0.9243891835212708,0.42922142148017883
1783170022614300400,8.603300537109375,0.09311892092227936,0.8539073467254639,0.6453452110290527
1783170022624370700,8.61337060546875,0.2158081829547882,0.516473650932312,1.0076075792312622
1783170022634439400,8.623439453125,0.3426468074321747,0.31794804334640503,1.389134407043457
1783170022644509400,8.633509521484376,0.393083393573761,0.011499691754579544,1.6190975904464722
1783170022654579500,8.643579345703126,0.40948954224586487,-0.33659598231315613,1.4767601490020752
1783170022664649500,8.6536494140625,0.26558923721313477,-0.46997666358947754,1.0003148317337036
1783170022674718500,8.663718505859375,0.024583272635936737,-0.33948707580566406,0.6804413795471191
1783170022684788500,8.67378857421875,-0.20863081514835358,-0.07939532399177551,0.4283044934272766
1783170022694858500,8.6838583984375,-0.3788720369338989,0.15032628178596497,0.29870307445526123
1783170022704928500,8.693928466796875,-0.38105472922325134,0.27643880248069763,0.3653518557548523
1783170022714998500,8.70399853515625,-0.24365267157554626,0.04258104786276817,0.40766391158103943
1783170022725067300,8.7140673828125,-0.05931834876537323,-0.41662368178367615,0.4446803629398346
1783170022735137500,8.724137451171876,0.17563104629516602,-1.104590654373169,0.6325831413269043
