time,seconds_elapsed,z,y,x
1783170463651892200,0.067892333984375,-0.09825053087174891,-0.31523908484876156,0.24379180522859095
1783170463661961200,0.077961181640625,-0.19968407569378613,-0.38596740254461764,0.1267898121356964
1783170463672031200,0.08803125,-0.2231505837380886,-0.4139578177541494,0.04581599475741386
1783170463682101200,0.098101318359375,-0.32967852908968925,-0.38268648117780685,0.01530453663766384
1783170463692170200,0.108170166015625,-0.6793102974057197,-0.27039047381877895,0.05036123697161674
1783170463702240300,0.118240234375,-0.7162395136132836,-0.2234644719928503,0.20844576655924318
1783170463712310300,0.128310302734375,-0.49098026715815063,-0.2851765395402908,0.45361879701316354
1783170463722379300,0.138379150390625,-0.2878890133693814,-0.3955664210170507,0.6263005917519331
1783170463732449300,0.14844921875,-0.0941816739976406,-0.49455578755736346,0.6698498106211423
1783170463742519000,0.15851904296875,0.17963526713848113,-0.2858879026800394,0.27374212233424183
1783170463752588300,0.16858837890625,0.20676701969206332,-0.8643132290571928,0.634281069111824
1783170463762658300,0.178658203125,0.20312369475364683,-1.3588497273921967,1.2638912238031625
1783170463772728300,0.188728271484375,0.4255640843957662,-1.2484861494004726,1.2056114687919617
1783170463782797300,0.19879736328125,0.6479080279260874,-0.9599094460278749,1.164645836675167
1783170463792867000,0.2088671875,0.4979617966085672,-0.7940531133949756,1.3405845873832702
1783170463802937300,0.218937255859375,0.20239684178382156,-0.7013409274280071,1.2686650140762328
1783170463813006000,0.229006103515625,0.03750000183284283,-0.49509880839288234,0.6722025112271308
1783170463823076400,0.239076416015625,-0.12267068637907504,-0.8722375923156738,0.1630009432017803
1783170463833146400,0.249146484375,-0.3326417628094554,-1.3483949688732624,0.0805921245843172
1783170463843215000,0.259215087890625,-0.4430614549025893,-1.6418144361019134,0.07330781279504299
1783170463853285400,0.269285400390625,-0.4624526763319969,-1.693507798460126,-0.2036445037573576
1783170463863355100,0.279355224609375,-0.5776631098330021,-1.6485370223551987,-0.7052952180117368
1783170463873424400,0.28942431640625,-0.8652768133923411,-1.662380254268646,-1.1337614535897969
1783170463883494100,0.299494140625,-1.1839525946915148,-1.7126508903473614,-1.5343512557268142
1783170463893564200,0.309564208984375,-1.5831968274384736,-1.7214315781742333,-1.925583446931839
1783170463903633400,0.31963330078125,-1.8947183530688285,-1.823287440061569,-2.1755992412418124
1783170463913703200,0.329703125,-2.0033657747924325,-1.7318045036286114,-2.178461060413718
1783170463923772400,0.3397724609375,-2.0075252325594426,-1.2846131093144415,-2.194754023566842
1783170463933842200,0.34984228515625,-1.8339190164521335,-0.7266799513459206,-2.129691476547718
1783170463943912200,0.359912109375,-1.5542469195470212,-0.41570203107297415,-1.7863573470711707
1783170463953982500,0.369982421875,-1.4528063604623078,-0.4527244785219431,-1.6837246555924414
1783170463964051200,0.38005126953125,-1.3254907708868384,-0.6111725807249546,-1.964181180873513
1783170463974121200,0.390121337890625,-0.9673828506484627,-0.6951905881047249,-2.140443756708503
1783170463984190200,0.400190185546875,-0.6008721359848975,-0.6865501855313777,-2.1537042202979326
1783170463994260200,0.41026025390625,-0.521604830263555,-0.5518506231844424,-2.075113498663902
1783170464004330200,0.420330322265625,-0.7617723075151444,-0.3291916223555803,-1.9556255339741706
1783170464014399500,0.4303994140625,-1.0882172615110874,-0.06278700330257415,-1.7409908496469257
1783170464024469500,0.440469482421875,-1.2903037221714853,0.031792730101943015,-1.595348453003168
1783170464034539500,0.45053955078125,-1.2322472545221448,0.06487783810198307,-1.3216384793728588
1783170464044608500,0.4606083984375,-0.9902563612356782,0.08916589166224002,-0.9224223036766052
1783170464054678500,0.470678466796875,-0.5747168272480369,0.16682839253544807,-0.686320468428731
1783170464064748500,0.48074853515625,-0.15606559098064898,0.33129356307089325,-0.6287129135906696
1783170464074817500,0.490817626953125,0.20157354270219802,0.23184943850040435,-0.6222001706957817
1783170464084887600,0.500887451171875,0.685119275945425,0.3167927440315485,-0.3899076646029949
1783170464094957600,0.51095751953125,0.6814353267356753,0.3740565999984741,-0.12561433861553667
1783170464105026600,0.521026611328125,0.38087592462450265,0.4852344169825315,-0.10401917740106582
1783170464115096600,0.5310966796875,0.15997867277115582,0.6598281828224658,-0.07112637710273266
1783170464125166600,0.54116650390625,-0.04490326382666826,0.7097761628180742,-0.07682721909284591
1783170464135235600,0.551235595703125,-0.19437953954488038,0.693388507118821,0.0009738134682178497
1783170464145305600,0.5613056640625,-0.30108605633378027,0.6217541804939508,0.11170914738178253
1783170464155375400,0.571375244140625,-0.24364655153900383,0.5156891764789819,0.16495616892278195
1783170464165444600,0.581444580078125,-0.10611001220047474,0.4638204575538635,0.27765900351703166
1783170464175514400,0.591514404296875,0.0761877521455288,0.4622264663606882,0.44907355479896066
1783170464185584600,0.601584716796875,0.4113163633346557,0.3722621177971363,0.6417910063505172
1783170464195653400,0.6116533203125,0.8560635793671011,0.29198972668647766,0.7981541189730167
1783170464205723600,0.6217236328125,1.0570438323512672,0.2937450459212065,0.8996025691032409
1783170464215793700,0.631793701171875,1.0347776400074362,0.4688777409434318,0.8710241248726844
1783170464225862400,0.6418623046875,1.0257479458555578,1.0113041177004576,1.0130027383118867
1783170464235932700,0.6519326171875,0.41273295213431116,0.4597942707777023,0.79561144875288
1783170464246002400,0.66200244140625,0.04063128559589386,0.22212124069035052,0.47390638276040553
1783170464256071700,0.67207177734375,0.2224254843339324,0.512805729997158,0.6139613346606493
1783170464266141700,0.6821416015625,0.2014762198075652,0.48925534306168555,0.7435568518668413
1783170464276211500,0.69221142578125,0.05397241320610046,0.37652912759184837,0.5895791730761528
1783170464286280700,0.70228076171875,0.19128975683599708,0.4357797734618187,0.542164510950446
1783170464296350500,0.7123505859375,0.43724107818603514,0.46338557326793667,0.6895189722090959
1783170464306420500,0.72242041015625,0.4594567093864083,0.37904023362994194,0.7488087810456753
1783170464316489500,0.732489501953125,0.4541285001009702,0.35987668347656726,0.7249187868922948
1783170464326559500,0.7425595703125,0.3141591806575656,0.4379828364640474,0.6929968774527311
1783170464336629500,0.75262939453125,0.044916123308241365,0.4281798198521137,0.5699661255896091
1783170464346698500,0.762698486328125,-0.15232348184287547,0.35928573184609414,0.4325567197620868
1783170464356768500,0.7727685546875,-0.1884478114083409,0.29410628044903275,0.306135156416893
1783170464366837500,0.78283740234375,-0.1446729670897126,0.21657412795722483,0.19139877016842363
1783170464376907500,0.792907470703125,-0.16040625053346155,0.07589198406934737,0.04195581219792366
1783170464386977500,0.8029775390625,-0.19157091186493633,-0.03355447907745838,-0.0775906046807766
1783170464397047600,0.813047607421875,-0.2411632102906704,-0.0728062930136919,-0.18427111024558543
1783170464407116500,0.823116455078125,-0.30491701279878614,-0.0569552284091711,-0.35222003124356266
1783170464417186600,0.8331865234375,-0.373622300234437,-0.019849194329977036,-0.5423936435312032
1783170464427255600,0.843255615234375,-0.41815176231265067,0.014371055179834365,-0.6724456723332405
1783170464437325600,0.85332568359375,-0.47552960004806516,0.03699906657338142,-0.8159808675646781
1783170464447395600,0.8633955078125,-0.5348579873293637,0.11683189722299575,-0.9749527013808488
1783170464457464600,0.873464599609375,-0.42071956697404383,0.2986392477035522,-1.2057564302206039
1783170464467534600,0.88353466796875,-0.21956688003242014,0.7015782433152198,-1.4874381133824586
1783170464477604600,0.8936044921875,-0.1072878238081932,1.2229326059490442,-1.5180577080518007
1783170464487673600,0.903673583984375,-0.24120471134483812,1.5849503931075333,-1.1850018114835024
1783170464497743600,0.91374365234375,-0.46012306434065103,1.5939286493331193,-0.8946768031388521
1783170464507813400,0.9238134765625,-0.728812579460442,1.5473329023748634,-0.8290519460618495
1783170464517882600,0.933882568359375,-1.0361220403537155,1.4890437950134277,-0.7797562924951315
1783170464527952400,0.943952392578125,-1.3533952613785862,1.2630424980193375,-0.721147451660037
1783170464538022400,0.9540224609375,-1.4665020005986094,1.0297755939364432,-0.6498866345226765
1783170464548091600,0.964091552734375,-1.4319211010828614,0.7023860525667667,-0.6049708034753799
1783170464558161400,0.974161376953125,-1.2598279198870062,0.4067687830328941,-0.49910102977156634
1783170464568231700,0.984231689453125,-0.9302285935133695,0.16634499293267727,-0.24146599262952803
1783170464578300400,0.994300537109375,-0.6296591083995997,-0.21259470293223856,-0.02974339635670185
1783170464588370700,1.00437060546875,-0.2749848158717155,-0.5739660088807345,0.23646365429759025
1783170464598440700,1.014440673828125,-0.0685701167486608,-0.715492786899209,0.43269992762506004
1783170464608509400,1.024509521484375,-0.049877837368845934,-0.8796008145600557,0.5461719930261373
1783170464618579700,1.034579833984375,-0.024168080442398786,-1.0663158108264208,0.6013485213249922
1783170464628649500,1.0446494140625,0.09882160875797272,-1.0973965932667256,0.5847533603549003
1783170464638718700,1.05471875,0.2760048065692186,-1.1967658990353345,0.5030149883449078
1783170464648788500,1.06478857421875,0.48030602066963907,-1.2396382415562868,0.41533699715286493
1783170464658858500,1.0748583984375,0.6785530492976307,-1.1191221028625964,0.47951457803100345
1783170464668927500,1.084927490234375,0.7945826902270317,-0.91254739087224,0.549082035253942
1783170464678997500,1.09499755859375,0.8076108063653111,-0.7234177346795797,0.581990033121407
1783170464689067500,1.105067626953125,0.8257949900925159,-0.4297708884358406,0.6163508601456881
1783170464699136500,1.115136474609375,0.8513213532760738,-0.15340075568556785,0.6598346125632524
1783170464709206500,1.12520654296875,0.8700769071504473,0.17005495336651802,0.9947253233432769
1783170464719275500,1.135275634765625,0.8477034550398588,0.4610843105882406,1.0556336732923983
1783170464729345500,1.145345458984375,0.9780515441790223,0.7394961782991886,1.0386211636930704
1783170464739415600,1.15541552734375,1.1105243703871965,1.1515548844337462,1.1075631824940442
1783170464749484500,1.165484619140625,1.1578431709229946,1.5224018747359513,1.2453753239035605
1783170464759554600,1.175554443359375,1.1478200818195938,1.7086843248039483,1.41356272983253
1783170464769624600,1.18562451171875,0.9404358070120215,1.7994898003667592,1.4745096582263708
1783170464779693600,1.195693603515625,0.6462862719431519,1.8130436939448118,1.507547419953346
1783170464789763300,1.205763427734375,0.32218554298579694,1.7154554263740778,1.5026263301640748
1783170464799833600,1.21583349609375,-0.09765314950048923,1.3970675221055746,1.3885896166175602
1783170464809902300,1.22590234375,-0.38467239429801703,0.9753910927981138,1.1801426810145377
1783170464819972600,1.23597265625,-0.4267676149666309,0.547101382830739,0.96821784016788
1783170464830042600,1.246042724609375,-0.38859570522159337,0.11664426569640636,0.7947241445243358
1783170464840111600,1.256111572265625,-0.13490151465982197,-0.3023059535175562,0.6415402464598416
1783170464850181600,1.266181640625,0.19224895725697277,-0.6050771864593029,0.5357926378309726
1783170464860251400,1.27625146484375,0.6446843897044658,-0.7239291913330554,0.4348293408691883
1783170464870320600,1.286320556640625,1.224673019875586,-0.7030629289150238,0.303171630436182
1783170464880390700,1.296390625,1.5372612979546187,-0.7175152326375246,0.3221533942818641
1783170464890460400,1.30646044921875,1.5469257828786969,-0.7140788284480571,0.46082186025977134
1783170464900529700,1.31652978515625,1.215301088157296,-0.728670832902193,0.27362814056575296
1783170464910599400,1.326599365234375,0.9848317058384418,-0.7346709500998259,-0.061622635698318474
1783170464920668700,1.336668701171875,1.208643383833766,-0.6840764888942241,-0.28709610942602154
1783170464930738400,1.346738525390625,1.4630173733532428,-0.6404156263440847,-0.4503185864239931
1783170464940808400,1.356808349609375,1.4870914919018745,-0.5367658667773008,-0.5549316380649805
1783170464950877400,1.36687744140625,1.3242761344000695,-0.4244055620104074,-0.7261971362650395
1783170464960947500,1.376947509765625,1.1974798925235868,-0.4012660939633846,-0.8689338745951652
1783170464971017500,1.387017578125,1.1118386678561567,-0.38125264898240563,-0.8875263468623161
1783170464981086500,1.39708642578125,1.227396015098691,-0.3005488807171583,-0.9142460114836692
1783170464991156500,1.407156494140625,1.2656725542619824,-0.2801321156322956,-1.0551590415179728
1783170465001226800,1.417226806640625,1.2221744810581208,-0.5014689279466867,-1.1684545813083649
1783170465011295500,1.42729541015625,1.3680866345539688,-0.6144990947991609,-1.0901847621917724
1783170465021365800,1.43736572265625,1.5491905129402874,-0.5734498760521411,-0.9308364962786435
1783170465031435800,1.447435791015625,1.493912570093572,-0.48359541760385033,-0.7648235117793083
1783170465041504500,1.45750439453125,1.172213933841884,-0.35225568707883353,-0.7011901207804679
1783170465051574800,1.46757470703125,0.7375716399773955,-0.311935367128253,-0.7147884380221367
1783170465061644500,1.47764453125,0.21036972035914658,-0.3850263223022222,-0.6859925516486167
1783170465071713800,1.4877138671875,0.02901391303837299,-0.6483557716935873,-0.6403104124039412
1783170465081783600,1.497783447265625,0.11364420709758996,-0.8696206878155469,-0.603849690490961
1783170465091853600,1.507853515625,0.2886234651237726,-0.8732850555419921,-0.7242746437698602
1783170465101922600,1.517922607421875,0.5292167665719986,-0.6813941179424524,-0.8268588199317455
1783170465111992600,1.52799267578125,0.5987900690138339,-0.4364689247697591,-0.9134615831077099
1783170465122061800,1.538061767578125,0.5069385915294289,-0.20676760421395302,-1.0150614244073628
1783170465132131600,1.548131591796875,0.3487251748651266,-0.15422960772514344,-1.0903957745939492
1783170465142201600,1.55820166015625,0.26538638192117214,-0.26813305028080936,-1.2311159124046562
1783170465152270600,1.5682705078125,0.30387597931325433,-0.4614502212911844,-1.3151447334393858
1783170465162340600,1.578340576171875,0.38949265406131744,-0.6815408329367637,-1.38680887068063
1783170465172410600,1.58841064453125,0.3379565280914306,-0.8644885856240987,-1.4768269952580333
1783170465182479600,1.598479736328125,0.2881272060394287,-0.861071470656991,-1.6425933115199207
1783170465192549600,1.608549560546875,0.21997224596291778,-0.5072410816073417,-1.843573272243142
1783170465202619600,1.61861962890625,0.1897863665357232,0.10580021559894084,-1.9005989355400204
1783170465212688600,1.628688720703125,0.14374649989455937,0.6253788007318973,-1.8061673784345387
1783170465222758700,1.638758544921875,0.08506634738892316,0.9646241995900868,-1.754023349699378
1783170465232828700,1.64882861328125,-0.06344926660358906,1.2486509845733642,-1.8021783087983727
1783170465242897400,1.6588974609375,-0.39989173687025903,1.408780756253004,-1.699175322702527
1783170465252967700,1.6689677734375,-0.842145236390829,1.3023539331883192,-1.7341691869333384
1783170465263037700,1.67903759765625,-1.299116850963235,1.0272393534570932,-1.9239818569540976
1783170465273106700,1.689106689453125,-1.602069139560312,0.4970043497532606,-2.032437555497885
1783170465283176700,1.6991767578125,-1.666496457415819,-0.116799748519063,-2.1878093189954755
1783170465293245400,1.709245361328125,-1.5351169794023036,-0.6245218916416168,-2.3603896991863844
1783170465303315700,1.719315673828125,-1.431850666195154,-0.978613561975956,-2.412110826334357
1783170465313385700,1.7293857421875,-1.35350953540802,-1.2797171539664267,-2.408996493706107
1783170465323454700,1.739454833984375,-1.3222288464814425,-1.39107091203928,-2.352085396699607
1783170465333524700,1.749524658203125,-1.341273154169321,-1.3714648788154125,-2.2407743087247014
1783170465343594500,1.759594482421875,-1.3879443044513464,-1.391907947385311,-2.1018857702553273
1783170465353663700,1.769663818359375,-1.5099579882264136,-1.3626876981198788,-1.9885650960236787
1783170465363733500,1.7797333984375,-1.6250865886628627,-1.2792390150606632,-2.0191846906930206
1783170465373803500,1.789803466796875,-1.5793242237888276,-1.1577747818619013,-1.9247861590743063
1783170465383872800,1.799872802734375,-1.512059344419837,-1.0618868884682655,-1.5709750592470169
1783170465393942500,1.809942626953125,-0.9249468537181615,-0.9906050285428761,-1.0575848073601721
1783170465404012800,1.8200126953125,-0.8480266956448554,-1.0917863521695137,-0.8785618269011378
1783170465414081500,1.83008154296875,-1.0017556603714823,-1.1343518206983805,-0.7676359388515352
1783170465424151600,1.840151611328125,-0.775061851068586,-1.0549503672033547,-0.6130582483410835
1783170465434221800,1.850221923828125,-0.8811508204810321,-0.8369628653168678,-0.4592699546426534
1783170465444290600,1.86029052734375,-0.7776508446484803,-0.4600555520623922,-0.061840077841281885
1783170465454360800,1.87036083984375,-0.7032720416210592,-0.2002887635886669,0.3739484634488821
1783170465464429600,1.8804296875,-0.7849135291278362,-0.06943301718831062,0.6112684423148632
1783170465474499600,1.89049951171875,-0.928950244140625,-0.03521101411283016,0.6155354521095753
1783170465484569600,1.900569580078125,-0.8583733176141977,-0.19632687422037123,0.652593555393815
1783170465494638600,1.910638671875,-0.5481418317943811,-0.26788696656525135,1.023513610932231
1783170465504708600,1.92070849609375,0.21070786627233026,0.016530279040336607,1.5607225453019142
1783170465514778600,1.930778564453125,0.45757776377201076,0.1537128903746605,1.8160592423737048
1783170465524847900,1.940847900390625,0.1184922316506505,0.07053016477525234,1.8022662793427704
1783170465534917600,1.950917724609375,-0.3137441701158881,0.05921615907847881,1.507963599538803
1783170465544987600,1.960987548828125,-0.9270283361673355,0.08327274197041988,1.1014824012756348
1783170465555056600,1.971056640625,-1.741648729033768,0.12109189275503159,0.9623813890993594
1783170465565126700,1.981126708984375,-2.193688732422888,0.2155915466606617,0.8472031043022871
1783170465575196700,1.99119677734375,-1.9995424171119927,0.30039690502583977,0.9441203407436609
1783170465585265700,2.001265625,-1.5480962879627942,0.29810324113070963,1.118459255039692
1783170465595335700,2.011335693359375,-1.1019672621831298,0.2269067214012146,1.2384540002077817
1783170465605404700,2.02140478515625,-0.6881283946335315,0.16261457423269748,1.4099766880393028
1783170465615474700,2.031474609375,-0.6147228205524384,0.27873686188161373,1.4763736985325813
1783170465625544400,2.04154443359375,-0.66435238224864,0.21377952880263326,1.5498445929348468
1783170465635613700,2.05161376953125,-0.655116936391592,0.06419570105671882,1.4957845014452933
1783170465645683500,2.061683349609375,-0.6251202959261835,-0.10256722502708435,1.3431371944755315
1783170465655753700,2.071753662109375,-0.6253530817687512,-0.19405191502571104,1.1948913373351095
1783170465665822700,2.08182275390625,-0.5081371536642313,-0.23128011417984962,1.1701485257446764
1783170465675892500,2.091892578125,-0.39327158807814117,-0.15385785180330275,1.1976268997788428
1783170465685962800,2.101962646484375,-0.2837465067371726,-0.09016308600604533,1.267366790959239
1783170465696031500,2.112031494140625,-0.2742377968966961,0.03420154480934143,1.2807102566570043
1783170465706101800,2.122101806640625,-0.4389017048746347,0.2147229471325874,1.205038052818179
1783170465716171800,2.132171875,-0.5312953264117241,0.43956513721942897,1.2679828770309687
1783170465726240500,2.142240478515625,-0.6324529769018292,0.6516109740972519,1.2046779873341322
1783170465736310800,2.152310791015625,-0.67516954433918,0.7425655027419328,1.2839245425283907
1783170465746379500,2.162379638671875,-0.5812766241550446,0.6859814457327127,1.254878480786085
1783170465756449800,2.17244970703125,-0.49953182240426536,0.5772703111231327,1.1141437299281358
1783170465766519600,2.18251953125,-0.38244448911547657,0.4681219541400671,0.963678443172574
1783170465776588800,2.1925888671875,-0.339326647400856,0.30554946548342704,0.770109343227744
1783170465786658600,2.202658447265625,-0.3604232114434242,0.16915245156884193,0.6138771635085344
1783170465796728600,2.212728515625,-0.2763996511057019,0.12620879737734794,0.5941466271221637
1783170465806797800,2.2227978515625,-0.19261282213330266,0.047263270956277845,0.5266045382469893
1783170465816867600,2.23286767578125,-0.11057400587201117,0.0071533788859844205,0.5140373176187276
1783170465826937600,2.2429375,-0.014107143546640872,-0.04943126264512539,0.4738859244942665
1783170465837006600,2.253006591796875,0.028131869506835935,-0.07339490655660628,0.44083471876382824
1783170465847076600,2.26307666015625,-0.11599588479027151,-0.021894436421990394,0.3376426398366689
1783170465857146600,2.273146728515625,-0.33475130230933425,0.024269348859786984,0.37548692506253717
1783170465867215600,2.283215576171875,-0.5653203456103801,0.028746786534786222,0.4131295502364635
1783170465877285600,2.29328564453125,-0.7087760458648205,0.06959376070797443,0.40764147421419616
1783170465887354600,2.303354736328125,-0.693970690920949,0.13523732248544693,0.4081009084194898
1783170465897424600,2.313424560546875,-0.5992132628619671,0.2017354552656412,0.3340501683026552
1783170465907494700,2.32349462890625,-0.48832653777897356,0.3420312301844358,0.18038930037617681
1783170465917563600,2.333563720703125,-0.4520835502699017,0.6543225711435079,0.04206161065995693
1783170465927633400,2.34363330078125,-0.6238847627818584,0.9634177464097737,-0.07481003405153751
1783170465937703700,2.35370361328125,-0.747163205795735,1.0485369930297135,-0.15314707318544388
1783170465947772700,2.363772705078125,-0.7792446897111832,1.1542717421770095,-0.2845288892865181
1783170465957842700,2.3738427734375,-0.8123794820718466,1.3769874416291712,-0.455833550453186
1783170465967912700,2.38391259765625,-0.8193348541676998,1.8120131818532943,-0.690529610556364
1783170465977981400,2.3939814453125,-0.8387041560262442,2.5054671554237604,-0.8072843508899211
1783170465988051700,2.4040517578125,-0.913720526304841,3.1818782242566344,-0.6906541137188673
1783170465998121700,2.414121826171875,-1.1776923652529716,3.567954347872734,-0.334132585889101
1783170466008190700,2.424190673828125,-1.6635371692188083,3.486737369388342,0.08967267214059829
1783170466018260500,2.434260498046875,-2.1641408586382864,2.874108160114288,0.5018681563973426
1783170466028329500,2.44432958984375,-2.5412340498536823,1.8268284736692904,0.7411082896709442
1783170466038399500,2.4543994140625,-2.6482635149866343,0.5095622180312872,0.6801011555224656
1783170466048469200,2.46446923828125,-2.4350404510229824,-0.6759574798464775,0.4831441667050123
1783170466058538500,2.47453857421875,-2.033104494974017,-1.5708096395522355,0.41381870154440403
1783170466068608300,2.484608154296875,-1.6731025776825845,-2.071843098691106,0.48076808522343634
1783170466078678300,2.49467822265625,-1.3339596162855625,-2.3859382742017505,0.5924763558223843
1783170466088747300,2.504747314453125,-1.0539188321985304,-2.533620067718625,0.6684872900962829
1783170466098817300,2.5148173828125,-0.9719324767768383,-2.6303677928119895,0.6542465832978487
1783170466108887600,2.524887451171875,-0.8693937471918761,-2.5226959381222724,0.5592044930785894
1783170466118956300,2.534956298828125,-0.7836948009878396,-2.188630572250485,0.42711277514249085
1783170466129026300,2.5450263671875,-0.6396094245277345,-1.6996914555311202,0.2753162397831678
1783170466139095300,2.55509521484375,-0.5112701909929513,-1.0466957490772009,0.1779404459193349
1783170466149165300,2.565165283203125,-0.29632921719551086,-0.43792906045019625,0.1660050934538245
1783170466159235600,2.575235595703125,0.0022059856116771696,0.03068447659909725,0.04841857847124338
1783170466169304300,2.58530419921875,0.24996011859998105,0.39734629017114637,-0.15093787270337342
1783170466179374300,2.595374267578125,0.47766836564242837,0.6399801575362682,-0.4274249098315835
1783170466189444400,2.6054443359375,0.5380250730581582,0.7786153057664632,-0.6469812684699893
1783170466199513300,2.615513427734375,0.5379505465172231,0.8058931887924671,-0.8060004485592246
1783170466209583400,2.625583251953125,0.4050935432970524,0.7656804208695888,-0.9110898855403066
1783170466219653400,2.6356533203125,0.10735606673881411,0.6369213544875383,-0.8522352532505989
1783170466229722400,2.645722412109375,-0.09773030638992786,0.42496962563395496,-0.6615463849171995
1783170466239792400,2.65579248046875,-0.30265593599900603,0.22564941481649875,-0.4623790265738964
1783170466249861400,2.665861328125,-0.456469510269165,-0.04191606470942497,-0.2571288411855697
1783170466259931400,2.675931396484375,-0.447676985874027,-0.35771278344094753,-0.06890957783609629
1783170466270001400,2.68600146484375,-0.31891148975118994,-0.5643325036168099,0.16801292614489793
1783170466280070400,2.6960703125,-0.031686931639909745,-0.6826023246884345,0.32240386191159487
1783170466290140400,2.706140380859375,0.2114446561142802,-0.6708358990490436,0.47545068959295744
1783170466300210400,2.71621044921875,0.3816472012579441,-0.5846054763168096,0.5949404078483581
1783170466310279400,2.726279541015625,0.4316255763918161,-0.4672416641741991,0.6463166670814157
1783170466320349400,2.736349365234375,0.393227164414525,-0.34607436809539793,0.645952217683196
1783170466330419200,2.746419189453125,0.47410570472478863,-0.26825170822441574,0.5948205808609723
1783170466340488400,2.756488525390625,0.5877028578102589,-0.3007067016273737,0.49949587430804965
1783170466350558200,2.76655810546875,0.800118258652836,-0.365524333974719,0.4214516806408763
1783170466360628500,2.77662841796875,1.1071838277876376,-0.3157581402868032,0.2715639015123248
1783170466370697200,2.786697265625,1.2676276338525116,-0.2727238852024078,0.16342910548597572
1783170466380767200,2.796767333984375,1.2690081284254788,-0.2951063974022865,0.06803600987195968
1783170466390836500,2.80683642578125,1.1873469133049248,-0.3118769149392843,-0.06223989081382751
1783170466400906200,2.81690625,0.9578308861881494,-0.3091612262398004,-0.1119932250201702
1783170466410976500,2.8269765625,0.7871165921300649,-0.2883352958321571,-0.13414397429078817
1783170466421045200,2.837045166015625,0.613109394006431,-0.2672872471064329,-0.15457593694478272
1783170466431115300,2.847115234375,0.4113011657655239,-0.33907121133506296,-0.22318799313902854
1783170466441185500,2.857185546875,0.29288229161202906,-0.4827221419006586,-0.40466421196907754
1783170466451254300,2.867254150390625,0.2795581151366234,-0.6672042645484209,-0.5978972118273377
1783170466461324500,2.877324462890625,0.2721377558775246,-0.8017664642512797,-0.8106868528097867
1783170466471394300,2.887394287109375,0.27523469897955655,-0.8709218335419893,-1.020533133816719
1783170466481463600,2.897463623046875,0.28476269804239274,-0.8162520857214928,-1.1950035655379294
1783170466491533300,2.907533203125,0.25182079790532585,-0.7412859843254089,-1.319107499590516
1783170466501602300,2.917602294921875,0.17828443705141545,-0.7228209378302097,-1.4184616077899932
1783170466511672600,2.927672607421875,0.10819441725909709,-0.7424258020102977,-1.4691621597185731
1783170466521742300,2.937742431640625,0.1190256078749895,-0.8272492805540561,-1.4993950931578874
1783170466531811600,2.9478115234375,0.20319281446710227,-0.8762035733371972,-1.4725608622461557
1783170466541881300,2.95788134765625,0.2759296955063939,-0.902508227416873,-1.4083420725747942
1783170466551951400,2.967951416015625,0.3347118470817804,-0.8774012586891651,-1.3031418686956167
1783170466562020400,2.978020263671875,0.4140298600770533,-0.7880641021132468,-1.3040703817173838
1783170466572090400,2.98809033203125,0.44977045102193947,-0.6506891830772161,-1.2808181009456514
1783170466582160400,2.998160400390625,0.4701745027557015,-0.5395388386219739,-1.2472908021360636
1783170466592229400,3.0082294921875,0.5249950572237372,-0.4440525117665529,-1.2414043744459748
1783170466602299400,3.01829931640625,0.5998983225166797,-0.3257201468527317,-1.2106196523427963
1783170466612368400,3.028368408203125,0.6196224291622638,-0.23415128570199012,-1.1589625303417443
1783170466622438400,3.0384384765625,0.5509650725215673,-0.24324878439307213,-1.100987603496015
1783170466632508200,3.048508056640625,0.4790758943527937,-0.32446693192124365,-1.03022012283355
1783170466642577400,3.058577392578125,0.3997722021438181,-0.36833939139544963,-1.0125991259470581
1783170466652647400,3.0686474609375,0.4087994120776653,-0.18212357682287691,-1.0512120574578643
1783170466662717400,3.078717529296875,0.4741007362887263,0.28455636181533334,-1.2112611651167273
1783170466672786400,3.088786376953125,0.40477863212898374,0.7509171515017747,-1.1389566841453314
1783170466682856400,3.0988564453125,0.146711633310467,0.9553887537330389,-1.0216209290534257
1783170466692926500,3.108926513671875,-0.07287614337950944,0.9020447015583515,-1.0803075112998486
1783170466702995200,3.1189951171875,-0.1736523933365941,0.7110843228071928,-1.207865385198593
1783170466713065500,3.1290654296875,-0.1819485125169158,0.5251058241218328,-1.2550871551007032
1783170466723134200,3.13913427734375,-0.1522508549980819,0.47062429234981534,-1.199428396242857
1783170466733204500,3.14920458984375,-0.2169911843255162,0.4358224435597658,-1.0270926384627819
1783170466743274500,3.1592744140625,-0.38383784317001696,0.3000526216328144,-0.7302548872232437
1783170466753343200,3.16934326171875,-0.5466378569722176,0.10428513486087322,-0.4866822777032852
1783170466763413500,3.17941357421875,-0.6718124889962375,-0.1736322273313999,-0.287647313567996
1783170466773483300,3.189483154296875,-0.7856748688891529,-0.4281277974039316,-0.11680617825984954
1783170466783552500,3.199552490234375,-0.9677359018698334,-0.556363132172823,0.028117256459593773
1783170466793622500,3.20962255859375,-1.1826362513959408,-0.6679436847388744,0.19034896885454652
1783170466803691300,3.219691162109375,-1.1514701287597418,-0.8200690136611462,0.2491360888659954
1783170466813761500,3.229761474609375,-0.8809135045938193,-0.9858400060981511,0.21534370937943456
1783170466823831300,3.239831298828125,-0.5482498222135007,-1.2151777540385722,0.17545125945210455
1783170466833900500,3.249900634765625,-0.18951631742268799,-1.2823790666520596,0.24008301383852956
1783170466843970300,3.25997021484375,0.0785135647445917,-1.2295435485213995,0.3979547774583101
1783170466854040300,3.270040283203125,0.14407777767553925,-1.1033961259424685,0.5191641591131687
1783170466864109300,3.280109375,0.20366379297971723,-0.8134861281394958,0.4876227734237909
1783170466874179300,3.290179443359375,0.29470833799540996,-0.5055483062148094,0.42636604842841624
1783170466884249300,3.300249267578125,0.38387890583276746,-0.21300094564557073,0.32111645244956016
1783170466894318300,3.310318359375,0.46736178342252965,-0.05732581528723239,0.15745733759999275
1783170466904388400,3.320388427734375,0.5398803455360234,0.18109072664380071,0.09443360293209552
1783170466914457300,3.330457275390625,0.2986668663628399,0.3164776867330074,-0.07449731484055519
1783170466924527400,3.34052734375,0.11818477313667534,0.5834463694095611,-0.06639350336194039
1783170466934597400,3.350597412109375,-0.17364917846620082,0.8996487463325261,-0.09063304160535335
1783170466944666400,3.360666259765625,-0.45432752980440855,1.1069260536342858,-0.04880582422316074
1783170466954736400,3.370736328125,-0.5865767763897777,1.379140235748887,0.07027589775323867
1783170466964806400,3.380806396484375,-0.608623334633559,1.5869459508389234,0.17822364677488803
1783170466974875400,3.39087548828125,-0.646793344682455,1.6098504410862922,0.4119879789859056
1783170466984945400,3.4009453125,-0.6483230384677648,1.6031360381394624,0.6061790102213621
1783170466995015400,3.411015380859375,-0.6267267082095146,1.5385305872380732,0.7048223398029804
1783170467005084200,3.421084228515625,-0.7287310386568308,1.3218857321321964,0.6278343771904706
1783170467015155000,3.431155029296875,-0.7219868250936269,1.033752096351981,0.38988603729307647
1783170467025224000,3.441223876953125,-0.6481656559489667,0.8468851243942975,0.13440320974886416
1783170467035293700,3.451293701171875,-0.463306662812829,0.7198416297584772,-0.003762567403912544
1783170467045364000,3.461364013671875,-0.4733817743644118,0.5558604433476925,0.0902303060233593
1783170467055433000,3.471432861328125,-0.5644155057251453,0.7080985849946737,-0.015227379748225212
1783170467065503000,3.4815029296875,-0.7476730550140142,0.6954425170391798,0.03691664898693561
1783170467075573000,3.491572998046875,-0.9627554831087589,0.462514051130414,0.20925123772323131
1783170467085642000,3.50164208984375,-0.9636408876411616,0.23380115709006785,0.27475276068150994
1783170467095712000,3.5117119140625,-0.9174638044863939,0.1030915411621332,0.4412631733089685
1783170467105780700,3.52178076171875,-0.825915986123681,-0.012450900772213934,0.5695891089707613
1783170467115851000,3.53185107421875,-0.7090120465777814,0.011014145967364311,0.7338578801512717
1783170467125921000,3.541921142578125,-0.5360042347550392,0.1922808136999607,0.9597948797374963
1783170467135990000,3.551989990234375,-0.3892489084333181,0.36176001300513744,1.1426339113533497
1783170467146060000,3.56206005859375,-0.2886538602620363,0.4793897826075554,1.2939455858051776
1783170467156129800,3.5721298828125,-0.16941709385439752,0.5136807592660189,1.3366793966382742
1783170467166199000,3.582198974609375,-0.11060469327121972,0.5428530777364969,1.437352770742774
1783170467176268800,3.592268798828125,-0.025789105772972106,0.6235761352241039,1.5136217714309692
1783170467186338800,3.6023388671875,0.0398255221709609,0.7160767242670059,1.5957301457971333
1783170467196408000,3.612407958984375,0.07827274172604083,0.8031693167865276,1.6104916615992784
1783170467206477800,3.622477783203125,0.040509705042839045,0.8568126441687345,1.6082593725025653
1783170467216547000,3.632547119140625,0.15748568691164255,0.8745014455944299,1.6042162345916031
1783170467226616800,3.642616943359375,0.31549159830510615,0.8574871824294328,1.5656816290140152
1783170467236686800,3.652686767578125,0.3570809152781963,0.8396627719253301,1.5163608410060405
1783170467246755800,3.662755859375,0.37961364960372446,0.8157429671555757,1.4343056581318379
1783170467256825900,3.672825927734375,0.4037637559980154,0.8421803077042103,1.3322212481856346
1783170467266896100,3.682896240234375,0.4274228640049696,0.8841179997235536,1.114611347439885
1783170467276964900,3.69296484375,0.432619848126173,0.9302192411631345,0.856395880061388
1783170467287035000,3.703034912109375,0.28756255789399143,0.926626185107231,0.6962573405534028
1783170467297104000,3.713103759765625,-0.03814999017417431,0.9247264889657497,0.6659148092597723
1783170467307174000,3.723173828125,-0.34636429095268245,0.9946709628075361,0.5929214692413807
1783170467317244000,3.733243896484375,-0.597430471098423,1.0389268686413764,0.7598141591846942
1783170467327313000,3.74331298828125,-0.5269976292178035,1.065843517139554,0.87563892519176
1783170467337383000,3.7533828125,-0.33451047929078337,1.1408628100275993,0.9849509483039378
1783170467347453000,3.763452880859375,-0.1594552334189415,1.2435592143923044,1.099503210157156
1783170467357522000,3.77352197265625,-0.04001870665550232,1.266652505210042,1.1979670915186404
1783170467367592000,3.783592041015625,0.0685471742644906,1.2492787610828875,1.1618553291738032
1783170467377662000,3.793661865234375,0.14173399102836848,1.1119541109293698,1.0363695853739976
1783170467387731000,3.80373095703125,0.291647781381011,0.9254840293347835,0.7838567135512828
1783170467397801000,3.813801025390625,0.4128460571199655,0.8701619550853967,0.4201204320371151
1783170467407869700,3.82386962890625,0.5929952651299536,1.0668781208842992,0.08269289625585079
1783170467417940000,3.83393994140625,0.7053042781010269,1.4223551080971955,-0.01791091974377632
1783170467428010000,3.844010009765625,0.5776141561247408,1.6982710673391819,0.01379705468416214
1783170467438079000,3.854078857421875,0.16193141427412627,1.9190788873434066,0.03901975874602794
1783170467448149000,3.86414892578125,-0.4193779431067407,1.9862597416907548,0.15901333487033842
1783170467458218800,3.87421875,-0.9854042450293898,1.8282009310662746,0.39168344210386274
1783170467468288000,3.8842880859375,-1.4294538341864942,1.3926082046091555,0.6192816529005766
1783170467478358000,3.89435791015625,-1.7261426784746348,0.7423837164342403,0.77285834967494
1783170467488427000,3.904427001953125,-1.825879063989967,-0.001799158376455307,0.837094967263937
1783170467498497000,3.9144970703125,-1.6878244921267032,-0.7668015338540076,0.9013497050315141
1783170467508566800,3.92456689453125,-1.3013316044032572,-1.3465320976108313,0.8898124119728803
1783170467518636000,3.934635986328125,-0.8161414649538695,-1.7222218517690897,0.8391822949320077
1783170467528705800,3.944705810546875,-0.346778278581053,-1.8944120635986328,0.7332283500760793
1783170467538775800,3.95477587890625,-0.002918517795205116,-1.8702333156317472,0.656573564940691
1783170467548844800,3.9648447265625,0.3111503542304039,-1.7659300605922936,0.6255547418206929
1783170467558914800,3.974914794921875,0.5439119391396642,-1.486676481360197,0.5220213021099567
1783170467568985000,3.984985107421875,0.5165164210833609,-0.9305068259328603,0.4098240789502859
1783170467579053800,3.9950537109375,0.3860097803816199,-0.26899872719943524,0.32652269540727136
1783170467589123800,4.005123779296875,0.21931100557520986,0.39145255595743655,0.2255032843440771
1783170467599192800,4.01519287109375,0.07246010992452502,0.946531493538618,0.024499065962433814
1783170467609262800,4.025262939453125,-0.00670329703092575,1.3128776652902363,-0.16026771884560584
1783170467619333000,4.0353330078125,0.006623217532038688,1.4788602546513079,-0.44999359225332736
1783170467629401900,4.04540185546875,0.06869461991116405,1.4824515571415424,-0.7881336602181196
1783170467639472000,4.05547216796875,0.12167977564558385,1.4361632686972616,-1.0849620591074227
1783170467649542000,4.0655419921875,-0.0031231004565954205,1.333602473410964,-1.332839672344923
1783170467659611000,4.07561083984375,-0.23160627739429474,1.1348942570120095,-1.4604203425973652
1783170467669681000,4.085680908203125,-0.5847182890415191,0.8358487665951252,-1.500861658579111
1783170467679750000,4.09575,-0.9528560203850269,0.41713118709325786,-1.451573019275069
1783170467689820000,4.10581982421875,-1.1978424422256648,0.009563947159051895,-1.4027800545334814
1783170467699890000,4.115889892578125,-1.3743909953951834,-0.3167623488932848,-1.34966747302711
1783170467709959000,4.125958984375,-1.4379472295045852,-0.5936088669836521,-1.273610653784871
1783170467720029000,4.13602880859375,-1.3842768679849802,-0.7692202854335307,-1.1892214750051497
1783170467730099000,4.146098876953125,-1.2773580236196518,-0.8394535130888223,-1.0690595565766094
1783170467740168000,4.15616796875,-1.1203032754711806,-0.8608248024195432,-0.9031476943641901
1783170467750238000,4.166238037109375,-0.9130389737814665,-0.9161661658912896,-0.727281424370408
1783170467760307000,4.176306884765625,-0.6345259837836027,-0.9534253447055816,-0.6597007570505142
1783170467770377000,4.186376953125,-0.5443273880727589,-0.936592867848277,-0.7050918043941259
1783170467780447000,4.196447021484375,-0.5055504981718957,-0.9097931237280368,-0.7332920629620552
1783170467790516000,4.206515869140625,-0.34498131216168404,-0.8781383407920599,-0.7193243278861046
1783170467800586000,4.2165859375,-0.2864677483946085,-0.8432441375434399,-0.6919511677920818
1783170467810655700,4.22665576171875,-0.27128771491944786,-0.8355722877413034,-0.6432043802797794
1783170467820725000,4.23672509765625,-0.21768924959227443,-0.880374137020111,-0.6037859776049852
1783170467830794800,4.246794677734375,-0.1526578283637762,-0.9818991595178842,-0.5225169766724109
1783170467840864000,4.256864013671875,-0.052677843350917096,-1.1357184328764676,-0.4644061484873295
1783170467850934000,4.26693408203125,0.03277136587575078,-1.2674667442023753,-0.41997079443335533
1783170467861003800,4.277003662109375,0.07963394707664848,-1.3437328222811222,-0.3264578134775162
1783170467871073000,4.287072998046875,0.1272178282894194,-1.4357429974585771,-0.26055998467803
1783170467881142800,4.297142822265625,0.036005963882803915,-1.498144216313958,-0.2339940493136644
1783170467891213000,4.307213134765625,-0.225158416429162,-1.595721377968788,-0.30548282998800275
1783170467901281800,4.31728173828125,-0.5028460615187883,-1.702156968861818,-0.4199877455681562
1783170467911351800,4.327351806640625,-0.7065301666341721,-1.8015040627986192,-0.576262595385313
1783170467921420800,4.3374208984375,-0.8979600625932216,-1.9171990649461745,-0.6943138052701949
1783170467931490800,4.34749072265625,-1.1520299545995891,-1.9677841738015411,-0.7239911506533623
1783170467941561000,4.35756103515625,-1.4271458495050668,-2.0195354038268327,-0.7679366753637791
1783170467951629800,4.3676298828125,-1.662695896089077,-2.0454110188394785,-0.8283958202406764
1783170467961699800,4.377699951171875,-1.7666421543844044,-1.9771137276828288,-0.8795806485548615
1783170467971769900,4.387769775390625,-1.824378742429614,-1.7387457010686396,-0.9413415236800908
1783170467981838800,4.3978388671875,-1.9292032448641954,-1.4310644842535256,-0.9314031902506947
1783170467991909000,4.4079091796875,-2.073977626501769,-1.1231412753760814,-0.9897221082285046
1783170468001979000,4.417978759765625,-2.21940842622146,-0.8844465010255574,-1.1142948288366197
1783170468012048100,4.428048095703125,-2.262301957660913,-0.7677578116655349,-1.3560042748332022
1783170468022117600,4.43811767578125,-2.1392805581480263,-0.598881254428625,-1.623183677650988
1783170468032186600,4.4481865234375,-1.9497649713777006,-0.403096816521883,-1.6934744807124138
1783170468042256600,4.458256591796875,-1.9406809166900811,-0.3879670519292354,-1.6009057948693632
1783170468052326400,4.468326416015625,-2.1964676956169304,-0.586523877158761,-1.5024574033379554
1783170468062395600,4.478395751953125,-2.5880735424399375,-0.9956891999393701,-1.454924667790532
1783170468072465400,4.48846533203125,-2.7385043424040076,-1.5164502728551625,-1.3639043804332613
1783170468082535400,4.498535400390625,-2.587802324283123,-1.9048487019389866,-1.3222551499664783
1783170468092604400,4.5086044921875,-2.322834313904494,-2.150611514979601,-1.3552809289947152
1783170468102674400,4.51867431640625,-2.106369053149223,-2.1848908012002703,-1.370165778915584
1783170468112743700,4.52874365234375,-1.8867432825364172,-1.9861369920939207,-1.2706786919862032
1783170468122813400,4.5388134765625,-1.6790886663548648,-1.574246043741703,-1.093112047815323
1783170468132883500,4.548883544921875,-1.6471178032070397,-1.1455816552430391,-0.9265326616048812
1783170468142952400,4.558952392578125,-1.7691669966869055,-0.8074240516215563,-0.8073676452592015
1783170468153022500,4.5690224609375,-1.8840619344979523,-0.5024702139437198,-0.7187450666934251
1783170468163092700,4.5790927734375,-2.045206436178088,-0.3356751391559839,-0.5453840575188398
1783170468173161500,4.589161376953125,-2.0890430936865507,-0.25194413202404975,-0.4433347188860178
1783170468183231500,4.5992314453125,-2.0031857420504093,-0.22494681950509546,-0.5402081161856651
1783170468193300500,4.609300537109375,-1.9515707056254148,-0.13785071985423564,-0.6684937198370695
1783170468203370500,4.61937060546875,-1.9270922440595923,-0.11188216586112976,-0.6602098756164312
1783170468213440500,4.6294404296875,-1.883639325171709,-0.16759119360148905,-0.7394833188176154
1783170468223509500,4.639509521484375,-1.91817755458951,-0.19952479347884655,-0.8242121048152447
1783170468233579500,4.64957958984375,-1.9246334527306257,-0.2721013693898916,-0.8545984752506017
1783170468243649500,4.6596494140625,-2.1554211072184146,-0.20801555844843386,-0.8723539121717214
1783170468253718500,4.669718505859375,-2.4113772513628007,-0.07856032649576664,-0.822988115978241
1783170468263788500,4.67978857421875,-2.472956632441282,0.09327800315618515,-0.6939660147458314
1783170468273857500,4.689857421875,-2.480858783867955,0.14325111759304998,-0.6064940675199032
1783170468283927600,4.699927490234375,-2.394274871522933,0.013566753059625625,-0.5288642998725176
1783170468293997600,4.70999755859375,-2.224439552256465,-0.23998306059539318,-0.5804881041258573
1783170468304066300,4.72006640625,-2.0194459719777105,-0.48666532656848427,-0.6916852103322744
1783170468314136600,4.730136474609375,-1.6894108845353126,-0.5554296507149934,-0.7414531575858593
1783170468324206600,4.74020654296875,-1.3749369388401507,-0.5272907669454813,-0.6660685385167598
1783170468334275600,4.750275634765625,-1.3032317389361558,-0.40372576207518573,-0.45179742680490015
1783170468344345600,4.760345703125,-1.4068294760547577,-0.1976180830746889,-0.18072306237518787
1783170468354414300,4.770414306640625,-1.6700233163677154,-0.030021044254302978,0.02767243530154228
1783170468364484600,4.780484619140625,-1.767841885562986,0.09732581724226474,0.25397709915637967
1783170468374554400,4.790554443359375,-1.7457248924314974,0.1362403620481491,0.3406780620098114
1783170468384623600,4.80062353515625,-1.5991969451248644,0.15132979463040827,0.3940168534874916
1783170468394693600,4.810693603515625,-1.4918326950795948,0.15569675766825675,0.4769914892941713
1783170468404763400,4.820763427734375,-1.487683612576127,0.1786129383534193,0.5118704949736594
1783170468414832600,4.83083251953125,-1.450053262361884,0.21916998966932297,0.6431073496460914
1783170468424902400,4.84090234375,-1.3912902538783847,0.20504852533638476,0.7929653181582689
1783170468434971600,4.8509716796875,-1.306087128367275,0.16343933461904525,0.9030319590300321
1783170468445041400,4.86104150390625,-1.2158989079199731,0.18863047449886797,1.0011585712611675
1783170468455111400,4.871111328125,-1.1712532721161841,0.2507218967527151,1.0356389330118894
1783170468465180400,4.881180419921875,-1.205658084412664,0.34236733027100563,1.0956225693315267
1783170468475250400,4.89125048828125,-1.2740956608228384,0.45288639108538625,1.0995862122654914
1783170468485319700,4.901319580078125,-1.3593224594704807,0.5446814622074365,1.1151900241106747
1783170468495389400,4.911389404296875,-1.47314947578907,0.593577302801609,1.1120879664421082
1783170468505459500,4.92145947265625,-1.4977273060761391,0.6108937637835741,1.1760884371876716
1783170468515528400,4.931528564453125,-1.4234803127348423,0.6396826358944178,1.2877993381351232
1783170468525598500,4.941598388671875,-1.267518620520085,0.6767781485795974,1.3321575352996586
1783170468535668700,4.951668701171875,-1.2404168247133494,0.7046639343708753,1.4904408023297786
1783170468545737500,4.961737548828125,-1.260623600309342,0.7050602402120828,1.5720733758777379
1783170468555807500,4.971807373046875,-1.3310076346121729,0.840794990825653,1.6053420237511395
1783170468565876500,4.98187646484375,-1.4711724766276777,0.9025076428949832,1.651267324101925
1783170468575946500,4.991946533203125,-1.5756540108434856,0.9407622624874115,1.66910576313138
1783170468586016500,5.0020166015625,-1.6565291901528834,0.9229168091952801,1.6622446451902388
1783170468596085500,5.01208544921875,-1.714387066490203,0.8533359079688787,1.5874673443645237
1783170468606155500,5.022155517578125,-1.725275978642702,0.8021469880014658,1.4979004706859589
1783170468616225500,5.0322255859375,-1.6956237677007913,0.7250397829234599,1.3752297843068837
1783170468626294500,5.04229443359375,-1.6078741725772618,0.6285761354684829,1.3091384787619114
1783170468636364500,5.052364501953125,-1.4486293670386075,0.5884884552299976,1.2853951996028423
1783170468646433500,5.06243359375,-1.269144760417193,0.5795838487625121,1.2352730320841074
1783170468656503600,5.072503662109375,-1.1837002273656427,0.6389630894482136,1.2008259880810976
1783170468666573600,5.082573486328125,-1.0779223697289824,0.8916735296696424,1.0012485876321793
1783170468676642300,5.092642333984375,-0.8465005089908838,1.4331465512245893,0.7208674656748771
1783170468686712600,5.102712646484375,-0.7433908476501703,1.987587190902233,0.6486345886349678
1783170468696782600,5.112782470703125,-0.9034795566670596,2.478192195007205,0.6647732380092144
1783170468706851600,5.1228515625,-1.1657182882122694,2.952011484006047,0.6643827773869038
1783170468716921600,5.132921630859375,-1.5175238934360444,3.1255425890505313,0.7301777303338051
1783170468726990300,5.142990234375,-1.7689000163137911,3.0814269684702156,0.7577355993449687
1783170468737060600,5.153060546875,-1.712061546152085,2.973694908025861,0.689209175607562
1783170468747130400,5.16313037109375,-1.5703846921384335,2.6689696184068916,0.7533931862264871
1783170468757199600,5.17319970703125,-1.387327633857727,2.0370406653791666,0.7738672344565392
1783170468767269600,5.18326953125,-1.2083755266778171,1.2470131542384624,0.7786094605475664
1783170468777338600,5.193338623046875,-1.0814343233726917,0.529014521998167,0.7428659469932317
1783170468787408600,5.20340869140625,-0.8684224179416894,-0.07244213587641715,0.7736001079529523
1783170468797478400,5.213478515625,-0.6583471504844725,-0.4640244556933641,0.8251227899193764
1783170468807547600,5.223547607421875,-0.4883119247317314,-0.7036936280339956,0.9338900386303662
1783170468817617400,5.233617431640625,-0.39060090756416316,-0.8242378237783908,1.007019572249055
1783170468827687400,5.2436875,-0.3111123603075743,-0.9028688774228095,0.9769950208634137
1783170468837756400,5.25375634765625,-0.27903832904621956,-0.9241121564596891,0.9843003754407167
1783170468847826400,5.263826416015625,-0.27416604683473705,-0.8981529548168182,0.9640835168421268
1783170468857895700,5.273895751953125,-0.14337328266799448,-0.878749750688672,0.9340256477087736
1783170468867965400,5.28396533203125,0.02200681075528264,-0.7901485071718692,0.8332248478323221
1783170468878035500,5.294035400390625,0.21864406609907744,-0.7160434065192938,0.6957692647755146
1783170468888104400,5.3041044921875,0.4547539385229349,-0.5610708714723587,0.45765842779278754
1783170468898174500,5.314174560546875,0.6344770300753414,-0.3501233512252569,0.1888601916015148
1783170468908244700,5.32424462890625,0.747528824237734,-0.09139525814950465,-0.05245674794614315
1783170468918311700,5.334311767578125,0.7649218575872481,-0.10147475361526012,-0.06989245139360427
1783170468928381400,5.34438134765625,0.8973663344837725,0.21483868246674537,-0.2514490419834852
1783170468938450700,5.35445068359375,0.9574113456018268,0.5112567469894885,-0.36677813342809673
1783170468948520400,5.3645205078125,0.9369057331897318,0.742218296739459,-0.5070090264171362
1783170468958589400,5.37458935546875,0.849596136918664,0.9045131374984979,-0.5588274764597415
1783170468968659500,5.384659423828125,0.6890956322304904,0.9333201297879219,-0.5318628971666097
1783170468978729500,5.3947294921875,0.567744211756438,0.913621742105484,-0.5854892734140157
1783170468988798700,5.404798828125,0.37780236239805814,0.8779284974336624,-0.5745715735584497
1783170468998868500,5.414868408203125,0.22868527538105843,0.7221411388725042,-0.48420916558802124
1783170469008938500,5.4249384765625,0.23636238588020203,0.6006751521080732,-0.31233576462268825
1783170469019007500,5.435007568359375,0.27790391818881033,0.6301712957054376,-0.15693009885549544
1783170469029077500,5.445077392578125,0.2959441634006798,0.6196838039606809,-0.011811433824896812
1783170469039146800,5.455146728515625,0.31650501313135027,0.5556324798107147,0.13690788604617118
1783170469049216800,5.465216796875,0.31748540247082707,0.44236733515858645,0.2918038487255573
1783170469059286500,5.47528662109375,0.3589848492033779,0.3454144428819418,0.4328413819223642
1783170469069355800,5.485355712890625,0.45995179942697284,0.24164777893722056,0.5246978278428316
1783170469079425500,5.495425537109375,0.6122527771770954,0.11823182714879513,0.5873591589391232
1783170469089495600,5.50549560546875,0.7740040125787258,-0.022788754913210866,0.6011293256163597
1783170469099564500,5.515564453125,0.8064479000657796,-0.11892390106618404,0.4602338312387466
1783170469109634600,5.525634521484375,0.7894250152029096,-0.20798457878828047,0.24771394710838793
1783170469119703600,5.53570361328125,0.7801049598023295,-0.2582482006043196,0.044544075125455856
1783170469129773600,5.545773681640625,0.798537857593596,-0.2573229024529457,-0.13363105633258818
1783170469139843600,5.555843505859375,0.8351540623292326,-0.23506372437179088,-0.21637889764606952
1783170469149912600,5.56591259765625,0.9599103228107094,-0.14245909043252467,-0.2467833882600069
1783170469159982600,5.575982666015625,1.1116267786711453,-0.02195113504528999,-0.15941373236477374
1783170469170051600,5.586051513671875,1.3245980598308145,0.1378776078611612,-0.06874620396792888
1783170469180121600,5.59612158203125,1.5301048503287136,0.3359849357575178,0.005767477485537529
1783170469190191900,5.60619189453125,1.6514818436354397,0.423884168484807,0.013277414724230765
1783170469200260600,5.616260498046875,1.6578607310175895,0.3207482036590576,-0.06603460692167282
1783170469210330600,5.62633056640625,1.675877449223399,0.18463234477341173,-0.20126725323200226
1783170469220400600,5.636400634765625,1.5716947518236934,0.06853869869709014,-0.37987551541030407
1783170469230469600,5.6464697265625,1.4882004760570824,-0.12774141377210615,-0.4109153813183307
1783170469240539600,5.65653955078125,1.4004197551429272,-0.3542401388943195,-0.3951578402161598
1783170469250608600,5.666608642578125,1.4078614494509993,-0.5533271254777908,-0.3911825068444013
1783170469260678700,5.6766787109375,1.3816659548342227,-0.7703922518223524,-0.36457799303531646
1783170469270748700,5.686748779296875,1.2415887911021708,-0.9396434875905513,-0.34548926168382166
1783170469280817700,5.696817626953125,1.0817302375793456,-1.0808002632528544,-0.33603754272758957
1783170469290887700,5.7068876953125,0.910590996107459,-1.183687806275487,-0.334259427139163
1783170469300956700,5.716956787109375,0.8657838861316441,-1.2856640796720982,-0.3232061182051897
1783170469311026700,5.727026611328125,0.8823435373969376,-1.3355425015628337,-0.4490957666307687
1783170469321096700,5.7370966796875,0.8929109625101089,-1.359880239483714,-0.549087588211894
1783170469331165400,5.74716552734375,0.8606133516259491,-1.3683376867055892,-0.6259709214061498
1783170469341235700,5.757235595703125,0.7723655977219342,-1.3709873244315385,-0.7932324446618556
1783170469351305700,5.7673056640625,0.6188254335656762,-1.4111585913002491,-0.8805150067955255
1783170469361374700,5.777374755859375,0.37154169456809755,-1.4464473468244075,-1.0477449658691882
1783170469371444700,5.78744482421875,0.014953969634324311,-1.51955116147995,-1.2276537892520427
1783170469381513500,5.797513427734375,-0.2888023288220167,-1.5731658472895622,-1.4631436300814151
1783170469391583700,5.807583740234375,-0.3933768020182848,-1.5526725098371505,-1.7357354133367537
1783170469401653500,5.817653564453125,-0.3968886095315218,-1.3991034118473529,-1.974843444663286
1783170469411722800,5.82772265625,-0.34859058870002624,-1.0049217231869696,-2.2089812863618135
1783170469421792800,5.837792724609375,-0.19689093784391878,-0.40722178749740123,-2.289747598469257
1783170469431861800,5.84786181640625,-0.10231748804971576,0.19232114571034908,-2.1301959189385173
1783170469441931800,5.857931884765625,-0.3572165243566036,0.38181905069351196,-2.015722567540407
1783170469452001500,5.86800146484375,-0.8014151665955781,0.16770166823863983,-2.0112106430739165
1783170469462070800,5.87807080078125,-1.1661615019351244,-0.345488677161932,-2.0619383752703664
1783170469472140500,5.888140625,-1.3476733766004443,-0.8130722866415977,-1.9990882436037063
1783170469482209800,5.898209716796875,-1.5862784268409014,-1.1655471694290638,-1.929320879894495
1783170469492279600,5.908279541015625,-1.7580667798712848,-1.3541034096479414,-1.8412743476510047
1783170469502349600,5.918349609375,-1.791218815627694,-1.2645774525016547,-1.6160709230363368
1783170469512418800,5.928418701171875,-1.796352963645756,-1.0321996062129735,-1.3265075467139482
1783170469522488600,5.938488525390625,-1.7873865439884364,-0.8513228145807981,-0.9307342049479485
1783170469532558600,5.94855859375,-1.7738304584532976,-0.6560545095026493,-0.6695224783629179
1783170469542627600,5.958627685546875,-1.832064620757103,-0.6081324823766946,-0.4957926358759403
1783170469552697600,5.968697509765625,-1.8376818761169909,-0.6291513050079345,-0.31811317898035046
1783170469562766600,5.9787666015625,-1.9370587806701658,-0.7280459790021181,-0.2981061637401581
1783170469572836600,5.988836669921875,-2.0778356171041725,-0.7914467302888631,-0.3736690619856119
1783170469582906600,5.99890673828125,-2.093813376828283,-0.8035159382671118,-0.4953314481049776
1783170469592975600,6.0089755859375,-2.0385218438476325,-0.7411918763011693,-0.5008481656998396
1783170469603045600,6.019045654296875,-1.976055012410134,-0.6487175907433033,-0.4177268148988485
1783170469613114600,6.029114501953125,-2.001471193217486,-0.5688812529623508,-0.28865619834959505
1783170469623184600,6.0391845703125,-2.161622153815627,-0.44109132387340066,-0.10717793369293212
1783170469633254700,6.049254638671875,-2.3126824838548896,-0.2762391998469829,0.09531973811686038
1783170469643323600,6.05932373046875,-2.5459640009850264,-0.033002105891704554,0.30045009651780125
1783170469653393700,6.0693935546875,-2.802527609503269,0.13668693677186966,0.46997371948659417
1783170469663463700,6.079463623046875,-3.000636106443405,0.25022739123404025,0.6866033770233392
1783170469673532700,6.08953271484375,-3.163055450364947,0.3121522247493267,0.7786345949888229
1783170469683602700,6.099602783203125,-3.1170863108724354,0.2901841385692358,0.8345861993134022
1783170469693671700,6.109671630859375,-2.977825724220276,0.14581599964499473,0.8514104928642511
1783170469703741400,6.119741455078125,-2.882608861956,-0.02364917113482952,0.781221104350686
1783170469713811700,6.129811767578125,-2.9067940396636724,-0.03711947808265686,0.7307166595160961
1783170469723880400,6.13988037109375,-2.975928366166353,-0.013071078497171401,0.7042097608625888
1783170469733950700,6.14995068359375,-2.8857418992847204,-0.0032563714474439617,0.7255074004352092
1783170469744019700,6.160019775390625,-2.7008061876505614,-0.009981295788288116,0.7138122864663601
1783170469754089500,6.17008935546875,-2.5453560982197523,-0.010538929671049118,0.7037760456204414
1783170469764159700,6.18015966796875,-2.379274578528851,0.02059972043633461,0.7955787155270576
1783170469774228500,6.190228515625,-2.2594043365232643,0.05151449865996837,0.8071002264946698
1783170469784298800,6.200298828125,-2.151173678907007,0.023432898035645484,0.7579039416491985
1783170469794367500,6.210367431640625,-2.022512227680534,-0.04107902936339378,0.6714853028684854
1783170469804437800,6.220437744140625,-1.9817630147933958,-0.1574982541322708,0.5061614696770906
1783170469814507800,6.2305078125,-2.0711765976063905,-0.21602000120580195,0.31274609898924827
1783170469824576500,6.240576416015625,-2.2177672348856925,-0.14967910481393337,0.20746669239401816
1783170469834646800,6.250646728515625,-2.375345714647323,-0.11448445731401442,0.20100947907865047
1783170469844716500,6.260716552734375,-2.4198908126860856,-0.053231239449977874,0.19843758276402948
1783170469854785800,6.270785888671875,-2.37372352027297,0.09128069185912609,0.22246552408337592
1783170469864855600,6.28085546875,-2.3280646157734095,0.1740203498661518,0.29251287377774715
1783170469874924500,6.290924560546875,-2.303452298694849,0.21653847212195396,0.3095242143332958
1783170469884994800,6.300994873046875,-2.2219641020536423,0.19446166487038136,0.2711135273963213
1783170469895064600,6.311064697265625,-2.1631208679407834,0.0881780496686697,0.2266319961130619
1783170469905133800,6.3211337890625,-2.0805203261435032,-0.027691724523901937,0.23500410313904285
1783170469915203600,6.33120361328125,-2.083872413050383,-0.012974632385373115,0.22203999214768408
1783170469925272600,6.3412724609375,-2.069050106971711,0.06487491549253463,0.24837562588751314
1783170469935342600,6.351342529296875,-2.095191679444164,0.1121592292368412,0.30667233203351496
1783170469945412600,6.36141259765625,-2.1757114694446322,0.08652326819896697,0.34576866314709187
1783170469955481600,6.371481689453125,-2.2289714965976772,-0.019231354692578313,0.3107517103016376
1783170469965551600,6.381551513671875,-2.241803505641967,-0.16025427484214305,0.27416414713859555
1783170469975621600,6.39162158203125,-2.174358301270008,-0.3180459589630365,0.23932255086004733
1783170469985690600,6.401690673828125,-2.0788941862463948,-0.44744449229240413,0.23839783723056315
1783170469995760600,6.4117607421875,-1.9740765519440173,-0.4929541975796222,0.247031225541234
1783170470005829600,6.42182958984375,-1.9196330140948294,-0.481199462378025,0.22997195419073105
1783170470015899600,6.431899658203125,-1.9005572883553803,-0.5083528422415257,0.22379297329485415
1783170470025969700,6.4419697265625,-1.834939445541054,-0.5465180299848318,0.23889000466167926
1783170470036038700,6.45203857421875,-1.794696282479912,-0.5840355674743652,0.2409276479691267
1783170470046108700,6.462108642578125,-1.7933698561817406,-0.57753626858294,0.284213831987977
1783170470056177700,6.472177734375,-1.8041051852077246,-0.4917793085813522,0.3509323295205831
1783170470066247700,6.48224755859375,-1.7700234673857689,-0.3855535610467195,0.43692309827804565
1783170470076317400,6.4923173828125,-1.7190344539046287,-0.3197849115848541,0.43629824437797066
1783170470086386700,6.50238671875,-1.6970073310136795,-0.2690285378158092,0.42360593606531616
1783170470096456400,6.51245654296875,-1.6352749513305722,-0.22526538393497467,0.3868213890254497
1783170470106525700,6.522525634765625,-1.6326288207359612,-0.19330138891935347,0.35424773767888545
1783170470116595700,6.532595703125,-1.6464325974218545,0.004663315635919571,0.28497078783512114
1783170470126665500,6.54266552734375,-1.6743049392096698,0.34834757372438907,0.21291443640589713
1783170470136734700,6.552734619140625,-1.7478735948979853,0.8156511972188949,0.270360663202405
1783170470146804500,6.562804443359375,-1.8960135074459015,1.2543272766441107,0.4355991561979055
1783170470156874800,6.572874755859375,-2.108964768730849,1.656435082128644,0.6479740788996219
1783170470166943500,6.582943603515625,-2.334625435593724,1.8647732966601847,0.8382710253059864
1783170470177013800,6.593013671875,-2.292672546005249,1.88619251678586,1.0065350036025047
1783170470187082500,6.60308251953125,-1.9919296040207146,2.0319138238847256,0.9899643925517797
1783170470197152500,6.613152587890625,-1.8310902227669954,2.161902139800787,1.11544136852324
1783170470207222800,6.623222900390625,-1.9183155017554758,2.1716624863147733,1.3581021238952875
1783170470217291500,6.63329150390625,-2.0296439792566,2.1073516344457865,1.6027052455067634
1783170470227361800,6.64336181640625,-2.0509766901426016,1.8733985016644,1.8409394166082143
1783170470237430500,6.653430419921875,-1.9385754688434302,1.5166928494393825,2.022500098851323
1783170470247500500,6.66350048828125,-1.6731225975573063,1.1114011532217263,2.0525439394593237
1783170470257570800,6.67357080078125,-1.3552543332487343,0.6778776342540979,1.9776842210471628
1783170470267639600,6.6836396484375,-0.940582229745388,0.2950859391361475,1.8209663036376236
1783170470277709800,6.693709716796875,-0.5840145246863365,0.08035539321899414,1.7028034500718117
1783170470287778600,6.703778564453125,-0.22872093121632933,0.0326911402463913,1.6532780794024466
1783170470297848600,6.7138486328125,0.061808659789711236,0.017389526218175886,1.5066197837144135
1783170470307918600,6.723918701171875,0.2952246169544756,-0.0010322656571865082,1.321354986256361
1783170470317987600,6.733987548828125,0.5432904462404549,0.02092646817266941,1.1816694521903992
1783170470328057600,6.7440576171875,0.8483715635597705,0.09492050966620445,1.0758563771098852
1783170470338126600,6.754126708984375,1.067207937360555,0.2703594941586256,0.9678051677137612
1783170470348196900,6.76419677734375,1.250138738913089,0.4860661916315555,0.9188952985942364
1783170470358266600,6.7742666015625,1.4199271502979098,0.6179255621165036,0.8641209213554859
1783170470368335600,6.784335693359375,1.4945292406871915,0.6818026987433433,0.9182985017448663
1783170470378405600,6.794405517578125,1.5407361344583332,0.6783844147324561,0.9746721308737992
1783170470388475600,6.8044755859375,1.4768557829611002,0.6706377461284398,1.021918450695276
1783170470398544600,6.814544677734375,1.3616589395940304,0.6645850219607353,1.023233624947071
1783170470408614700,6.82461474609375,1.1972317629814146,0.7988689892441034,0.9249924464255571
1783170470418683600,6.83468359375,0.7469212137334048,0.9161351862311363,0.9142518567025661
1783170470428753700,6.844753662109375,0.41020124169960615,0.971847136580944,0.8965402589231729
1783170470438823700,6.85482373046875,0.22320962044894693,1.0261357761293648,0.7547533686637878
1783170470448892700,6.864892578125,0.10223536272421478,1.035221584382653,0.6946592577069998
1783170470458962700,6.874962646484375,0.06197334883213043,1.017090299886465,0.6144383045226335
1783170470469031700,6.88503173828125,0.04518690307363867,1.000695045402646,0.5481441698819398
1783170470479101700,6.895101806640625,-0.09871332607790827,0.8802209922850132,0.48583004478812214
1783170470489171700,6.905171630859375,-0.21842004808485507,0.7672083610892295,0.37494273518323895
1783170470499240700,6.91524072265625,-0.34382790434286,0.6841857944875955,0.34813246966898437
1783170470509310700,6.925310791015625,-0.37119302726089953,0.6016764381051063,0.3768880240321159
1783170470519379700,6.935379638671875,-0.2863945370279252,0.61153556881845,0.38376960023939605
1783170470529449700,6.94544970703125,-0.19435586640834807,0.6304436829060316,0.4316828595370054
1783170470539519500,6.95551953125,-0.0368942910246551,0.5876619412779808,0.47378538672924037
1783170470549588700,6.965588623046875,0.20734569636285305,0.5780179146200418,0.5278010545551777
1783170470559658500,6.975658447265625,0.37141616849228737,0.5304214661866427,0.5359340921282768
1783170470569728500,6.985728515625,0.4895866208426654,0.3776140002191066,0.47799978955388067
1783170470579797800,6.9957978515625,0.5305582443088293,0.20561200443804262,0.342388957580924
1783170470589867500,7.005867431640625,0.5315348342560231,0.02097089183628559,0.18814707489609717
1783170470599936800,7.015936767578125,0.6208290284730493,-0.11785714861750601,0.11715455330610275
1783170470610006500,7.026006591796875,0.8079813932433724,-0.14337094458043576,0.08637479963898659
1783170470620076500,7.03607666015625,1.0205655747815967,-0.08177753497660159,0.08275368653237819
1783170470630145500,7.0461455078125,1.184911941242963,-0.05356617049276829,0.1874193451434374
1783170470640215600,7.056215576171875,1.3040414478838442,-0.05287000492215156,0.25489246043562885
1783170470650284500,7.066284423828125,1.2350960680820047,-0.171228088799119,0.14894845245182514
1783170470660354600,7.0763544921875,1.110060844528675,-0.3899123407781124,-0.04023556427657604
1783170470670424600,7.086424560546875,1.0259680183470248,-0.6083581078261137,-0.24073241765797138
1783170470680493600,7.09649365234375,0.9482306986719369,-0.7617424968987703,-0.40985096695721146
1783170470690563600,7.1065634765625,0.7303551327273249,-0.8829968867391348,-0.5254857633501291
1783170470700632600,7.116632568359375,0.6596198007687926,-0.9933411755084991,-0.5643114608287811
1783170470710702600,7.12670263671875,0.7943032887637614,-1.0967249776154755,-0.4648673362582922
1783170470720772900,7.13677294921875,0.9340425988435744,-1.0778870061546564,-0.41779461943805213
1783170470730841600,7.146841552734375,0.9847755917370319,-1.0582535004019737,-0.37675124590992926
1783170470740911600,7.15691162109375,0.9050076430171727,-1.1740484557926654,-0.3296376125574112
1783170470750980600,7.166980712890625,0.8514223294325173,-1.2528221327781677,-0.4301607645362615
1783170470761050600,7.177050537109375,0.712178547784686,-1.281126436242461,-0.5493652361094952
1783170470771120600,7.18712060546875,0.5229673507884145,-1.2808499573886394,-0.68512862829566
1783170470781189600,7.197189697265625,0.3407707087293267,-1.2414555201113224,-0.8219792311966418
1783170470791259600,7.207259765625,0.1677203729391098,-1.2453273931086062,-0.9948509955495596
1783170470801328600,7.21732861328125,0.03524798512235284,-1.2704711867153644,-1.185065524369478
1783170470811398700,7.227398681640625,-0.02169277637004852,-1.281160338512063,-1.3746955312997102
1783170470821468700,7.23746875,-0.036788930954039095,-1.2335603829473256,-1.557173912909627
1783170470831537700,7.24753759765625,-0.11314297957718372,-1.1416788025856017,-1.7291040124982595
1783170470841607700,7.257607666015625,-0.24799568665921687,-1.0819839200794696,-1.8548077829629182
1783170470851677700,7.267677734375,-0.37700843554139135,-1.07815997787714,-2.0473896254360673
1783170470861746400,7.277746337890625,-0.46116015230342744,-1.0592740756213663,-2.1694524090498684
1783170470871816700,7.287816650390625,-0.4368362967774272,-1.0674936224341391,-2.424547114059329
1783170470881885400,7.297885498046875,-0.3921186186507344,-0.9530290388643741,-2.7070582337826488
1783170470891955700,7.307955810546875,-0.25861732617765665,-0.6147556999087334,-2.9514181942880153
1783170470902025700,7.318025634765625,-0.07628112951740622,-0.13252514091730117,-2.9948662908703088
1783170470912094700,7.3280947265625,-0.048051498724520206,0.3580892155379057,-2.8606869530051946
1783170470922164700,7.338164794921875,-0.09921586877256632,0.8567740657240152,-2.6880390605360267
1783170470932233500,7.3482333984375,-0.22018033575564622,1.1846253793865442,-2.5838994716256853
1783170470942303700,7.3583037109375,-0.3710661860108375,1.3868226069450378,-2.566048173114657
1783170470952373800,7.368373779296875,-0.5591165225341915,1.3938766171097754,-2.4891782839238643
1783170470962442800,7.37844287109375,-0.7629238156378269,1.1293775394171475,-2.406967033705115
1783170470972512800,7.3885126953125,-0.9904002997510135,0.7006617129921913,-2.356741405811906
1783170470982581500,7.39858154296875,-1.258065878650546,0.10172142185270786,-2.2312767048001287
1783170470992651800,7.40865185546875,-1.3458356397792697,-0.45455052490532394,-2.043162363129854
1783170471002721500,7.418721435546875,-1.275028119367361,-0.869752789762616,-1.7565853091418742
1783170471012790800,7.428790771484375,-1.246217327685654,-1.1868705279648304,-1.3831529785215855
1783170471022859800,7.43885986328125,-1.3179016309320926,-1.3464800751626491,-0.9974638083964585
1783170471032929000,7.448928955078125,-1.3544925550960003,-1.4488041390836237,-0.6574170300275087
1783170471042999000,7.4589990234375,-1.2866589359283447,-1.4412275663495062,-0.41640871803760526
1783170471053068800,7.46906884765625,-1.1156626100584863,-1.2987082701623438,-0.24105682730674743
1783170471063138000,7.479137939453125,-0.7658148609042167,-1.2333973013401032,-0.1444189923286438
1783170471073207800,7.489207763671875,-0.23906010053157806,-1.2165952196210623,-0.12240940509438514
1783170471083277000,7.499277099609375,0.3087403704792261,-1.0888362701922654,-0.12161854697763919
1783170471093346800,7.509346923828125,0.6492781472355127,-0.8375567395567893,-0.08023556623160838
1783170471103416800,7.519416748046875,0.8780945016503333,-0.3999105877012014,0.08976444207727909
1783170471113485800,7.52948583984375,0.824456581095606,0.2350099483579397,0.2578571554601192
1783170471123555800,7.539555908203125,0.6520055263727903,0.8388789280712604,0.5423159021198749
1783170471133625000,7.549625,0.4995489196695387,1.2536492312520742,0.8095873671352862
1783170471143694800,7.55969482421875,0.37123219022750853,1.6692524781256912,1.0412842454224824
1783170471153764900,7.569764892578125,0.051150926044583316,1.6919634916275739,1.2968389691591262
1783170471163833900,7.579833740234375,-0.07202405659481882,1.6373995422691106,1.3880752373546361
1783170471173904000,7.58990380859375,-0.07325637486875057,1.2983400213718415,1.1228355704277753
1783170471183974100,7.59997412109375,-0.012921148632466793,0.8697931217730045,0.930173648455739
1783170471194043000,7.61004296875,0.06336874871328473,0.5469599285334348,0.7326847447186708
1783170471204113000,7.62011279296875,0.19169044659137724,0.5900830309450626,0.728877753651142
1783170471214182000,7.630181884765625,0.01226575346365571,0.6287409706413746,0.7704717467993497
1783170471224252000,7.640251953125,-0.08483794546052813,0.8893763586431741,0.8813643171012401
1783170471234322000,7.650322021484375,-0.20535013863146304,1.1530904234379529,1.0596598600685596
1783170471244391000,7.660390869140625,-0.14096432183012367,1.558712374523282,1.443145382669568
1783170471254461000,7.6704609375,-0.06812310363352299,1.8223083658963442,1.8336527667313813
1783170471264530000,7.680530029296875,-0.10968144094645976,2.0163415762215853,2.202529333743453
1783170471274600000,7.690599853515625,-0.31097952770814297,2.1027520316958426,2.313771448135376
1783170471284670000,7.700669921875,-0.38198096325695513,2.1062971569567916,2.3201801461338993
1783170471294739000,7.710739013671875,-0.38708676196336744,1.92608496671319,2.1001018094480037
1783170471304809000,7.72080908203125,-0.248647282435745,1.642605878740549,1.91282450312376
1783170471314878000,7.7308779296875,-0.09763079153820872,1.3896487702816724,1.831545565319061
1783170471324947700,7.74094775390625,0.01891220574080944,1.2219763281375169,1.8768331522881985
1783170471335018000,7.75101806640625,0.007257716043293476,1.0526455973923206,1.8429595242589711
1783170471345086700,7.761086669921875,-0.09013327538967132,1.0098720390707254,1.8512006983816622
1783170471355157000,7.771156982421875,-0.009791326174139976,1.0084528199225664,1.9675299067795275
1783170471365226000,7.78122607421875,0.07545213134735822,1.0804513036847114,2.1287954044908286
1783170471375296000,7.7912958984375,0.2699029825627804,1.173801203033328,2.1319939082711934
1783170471385366000,7.801365966796875,0.5478738285079598,1.1881442011624574,2.0880057134628296
1783170471395434800,7.811434814453125,0.8445408993557095,1.0524626420408487,1.8171634042233227
1783170471405505000,7.821505126953125,1.0555024481281639,0.9526263032823801,1.6789672319322824
1783170471415573800,7.83157373046875,1.082833522646129,0.854799550780654,1.7295277908682822
1783170471425644000,7.84164404296875,1.0772063304141164,0.8301315579921007,1.8094407010167837
1783170471435714000,7.851714111328125,0.9877347338035702,0.8755459862112999,1.8980735087156295
1783170471445782800,7.86178271484375,0.8371502045825123,0.9634633391171693,1.9824357994884252
1783170471455853000,7.87185302734375,0.6770052353337407,1.0214368046581745,2.043380389794707
1783170471465921800,7.881921875,0.5079787482321262,1.0117296496361494,1.9435674319118261
1783170471475992000,7.891991943359375,0.536120262350142,1.1834633498698472,1.6545079134583471
1783170471486061800,7.902061767578125,0.6246235984504223,1.352433430609107,1.362161043897271
1783170471496130800,7.912130859375,0.7001081707626581,1.3257792324393987,1.1240320867359637
1783170471506201000,7.922201171875,0.779967889419198,1.2077730307400225,0.9057792119115591
1783170471516269800,7.932269775390625,0.8327350184887647,1.161212355095148,0.6785287916392088
1783170471526340000,7.942340087890625,0.807425366795808,1.1475415571391583,0.5649912597864866
1783170471536409900,7.952409912109375,0.589212239459902,1.1037491771638392,0.46117374243736264
1783170471546479000,7.96247900390625,0.3316226488947868,1.0261176559507845,0.29093992537260055
1783170471556548900,7.972548828125,0.15425503442734478,0.9142845899283886,0.15207447551786898
1783170471566619000,7.982618896484375,-0.017826164069771767,0.8368851239055395,-0.12168927412629127
1783170471576687900,7.99268798828125,-0.1402288471624255,0.6298790347605944,-0.2446697571069002
1783170471586758000,8.0027578125,-0.047478375011682505,0.23515315622091293,-0.30506665040254594
1783170471596827100,8.0128271484375,0.25699118628054857,-0.019215572601556777,-0.482872364026308
1783170471606897000,8.02289697265625,0.5966974806487559,0.4657756832748651,-0.5469178429573774
1783170471616967000,8.032966796875,0.5816080480664968,1.3989625420719385,-0.12650281188786028
1783170471627036000,8.043035888671875,0.06873480579107999,2.1482634905487297,0.3523404427528381
1783170471637106000,8.05310595703125,-0.5005439220562578,2.5062252803146836,0.6006634616702795
1783170471647175000,8.0631748046875,-0.9750830497622489,2.620180160796642,0.606149199604988
1783170471657245000,8.073244873046875,-1.110100007495284,2.9051152927964923,0.2887584896802902
1783170471667315000,8.08331494140625,-1.158941925945133,2.7445021215140817,0.33425767357349395
1783170471677384000,8.093384033203124,-1.10342155264467,2.4117373168468474,0.2779331442832947
1783170471687454000,8.103453857421876,-0.9735656309366225,1.954699651300907,0.10517828430831432
1783170471697523000,8.11352294921875,-0.9014337300531565,1.3007383146852254,0.019207389295101164
1783170471707593000,8.123593017578125,-0.8391574527516961,0.6257698458760976,-0.016133388677239416
1783170471717662700,8.133662841796875,-0.8236492102354764,-0.017326982375979422,-0.026185996136069298
1783170471727732000,8.14373193359375,-0.8793249202281236,-0.6195353354007005,-0.002451484805345535
1783170471737802000,8.153802001953125,-0.8555255269676446,-1.109214456832409,-0.05736848538517952
1783170471747871000,8.16387109375,-0.7636525683037936,-1.4139140274882316,-0.15072072282135485
1783170471757941000,8.17394091796875,-0.5513894354134797,-1.6149527326613664,-0.2151467255026102
1783170471768010800,8.1840107421875,-0.3507335920780897,-1.6578069550037382,-0.18662264180779456
1783170471778080000,8.194080078125,-0.046774902917444704,-1.5788427238821983,-0.07380757901072502
1783170471788149800,8.204149658203125,0.3564750583395362,-1.3770032237201928,0.022538579544425008
1783170471798219000,8.214218994140625,0.660306467858702,-1.0367039318948983,-0.010424363380670546
1783170471808288800,8.224288818359375,0.881048236889392,-0.6083066698998213,-0.22487843044400213
1783170471818358800,8.23435888671875,1.1960920914269983,-0.18942308618128298,-0.5479968703657389
1783170471828428000,8.244427978515626,1.4948513122484086,0.16903204005956649,-0.8746633581578731
1783170471838497800,8.254497802734376,1.5155232211381195,0.5947241347491741,-0.7627110496699809
1783170471848567000,8.264567138671875,1.6785685880035162,0.9725070617944002,-0.682187314146757
1783170471858636800,8.27463671875,1.562839683586359,1.0585369935184716,-0.2774076591044664
1783170471868706800,8.284706787109375,1.276320497265458,1.1847522206366061,0.03592646890580654
1783170471878775800,8.29477587890625,0.8761763930693268,1.2744599640905856,0.3133510791450739
1783170471888845800,8.304845703125,0.24290888491421936,1.3260218090236187,0.6012327859908342
1783170471898914800,8.314914794921876,-0.39559447806775566,1.3018296170532702,0.8730109147757291
1783170471908984800,8.32498486328125,-0.8189414709359407,1.064966734305024,1.1678472630649805
1783170471919055000,8.33505517578125,-0.9950168536357581,0.8477940559327601,1.442207225036621
1783170471929123800,8.345123779296875,-1.1170710155516863,0.6851642841309309,1.6053040298283099
1783170471939193900,8.35519384765625,-1.0051057014517486,0.5108206936597823,1.7311983544290064
1783170471949262800,8.365262939453125,-0.751059336451441,0.45199791781306264,1.798893588039279
1783170471959332900,8.375332763671874,-0.5417227585323154,0.4901929161727428,1.8139678230524061
1783170471969403100,8.385403076171874,-0.4671143845327198,0.5468652359873056,1.8471254117667675
1783170471979472000,8.395471923828126,-0.3575333352208137,0.5568149675935506,1.8532745820462702
1783170471989542000,8.4055419921875,-0.20671908889710902,0.45861645916998384,1.848489685857296
1783170471999611000,8.41561083984375,0.00773746238425374,0.26783435959517954,1.8438731319725512
1783170472009681000,8.425680908203125,0.22774565644338726,0.11901099482774734,1.780306960991025
1783170472019751000,8.4357509765625,0.27040800947546956,0.02543079385459423,1.6720359713643789
1783170472029820700,8.445820556640625,0.16229571754187344,-0.0973755016028881,1.5706009652376174
1783170472039890400,8.455890380859374,0.04061842611432075,-0.22455986601412295,1.4607488438993692
1783170472049959700,8.465959716796876,0.015021920304000376,-0.28223054921627044,1.2748907567232846
1783170472060029700,8.47602978515625,0.0454003996938467,-0.2565741299122572,1.0710931082308293
1783170472070099700,8.486099609375,0.11616627292111516,-0.31290275085568425,0.9330518342405557
1783170472080168700,8.496168701171875,0.23990721888020633,-0.35693244671821595,0.8061392725080251
1783170472090238500,8.506238525390625,0.28998437821343537,-0.3765478322923183,0.6269961728006601
1783170472100307700,8.5163076171875,0.23165903049483894,-0.4148655802488327,0.4065729681998491
1783170472110377500,8.52637744140625,0.2231546753913164,-0.47763738598227495,0.1537514688193798
1783170472120447700,8.53644775390625,0.16178148440942167,-0.4546054699629545,-0.116868722102046
1783170472130516500,8.5465166015625,0.016544307565689087,-0.38858898321986196,-0.43674189649224276
1783170472140586500,8.55658642578125,-0.15802826935574413,-0.4158148437976837,-0.6540431696802377
1783170472150655700,8.56665576171875,-0.30328488155230876,-0.5046504805922508,-0.8396434827029704
1783170472160725500,8.5767255859375,-0.38837095655500886,-0.6206242996811866,-1.0191834727734326
1783170472170795800,8.586795654296875,-0.4745538868837058,-0.806867002260685,-1.1886807922571896
1783170472180864500,8.596864501953124,-0.5694504311524331,-0.9393985729187726,-1.3067758412837982
1783170472190934800,8.606934814453124,-0.6526641364119946,-0.9982225178092717,-1.3494190512239932
1783170472201003500,8.61700341796875,-0.6296696297936141,-1.0457640211850403,-1.3729939880788324
1783170472211073500,8.627073486328126,-0.5349924273639917,-1.0552812065929174,-1.3977841459423304
1783170472221143800,8.637143798828125,-0.4203595014899969,-1.0793296061784028,-1.4163894776910542
1783170472231212500,8.647212646484375,-0.3485423656441271,-1.1504314333617687,-1.4534873284637928
1783170472241282800,8.65728271484375,-0.2827227166473865,-1.2604448827415704,-1.503806479859352
1783170472251351600,8.6673515625,-0.21846914792358874,-1.342459149083495,-1.5522475624233483
1783170472261421600,8.677421630859374,-0.16616028401553629,-1.3905045103281735,-1.614102837833762
1783170472271491600,8.68749169921875,-0.1568009195178747,-1.3984715436846018,-1.5981874758213757
1783170472281560600,8.697560546875,-0.08638006033599376,-1.3750474134773014,-1.5857108560860156
1783170472291630800,8.707630859375,-0.06678688659369945,-1.3371850080728531,-1.60778415620625
1783170472301699600,8.717699462890625,-0.12183949625194072,-1.346849492996931,-1.6645745494425295
1783170472311769600,8.72776953125,-0.0655079526990652,-1.2749392720401287,-1.8592583326309917
1783170472321839600,8.737839599609375,0.13925298786759377,-0.9280243614673614,-2.119873846888542
1783170472331908600,8.74790869140625,0.13294132050275803,-0.47567456147670745,-2.1525047813802956
1783170472341978600,8.757978515625,-0.07698606291636824,-0.38042788859605786,-2.1421020453095436
1783170472352047600,8.768047607421876,-0.22700959725379943,-0.5392419015020131,-2.38802852447927
1783170472362117600,8.77811767578125,-0.2613208860479295,-0.8100853797852993,-2.521558458524942
1783170472372187600,8.788187744140625,-0.22047975709363818,-1.107529864746332,-2.5567414155870676
1783170472382256600,8.798256591796875,-0.07336041976511477,-1.1482464905381202,-2.6776626279503106
1783170472392326700,8.80832666015625,0.02088555164039135,-0.9714940853595733,-2.7635429220706222
1783170472402395600,8.818395751953124,-0.042336189817637204,-0.8229132971763611,-2.7541800504416227
1783170472412465700,8.828465576171874,-0.17718612042069434,-0.6382230847358703,-2.775486457842588
1783170472422535700,8.83853564453125,-0.27094109343886374,-0.5068026901900768,-2.8558833521157503
1783170472432604700,8.848604736328125,-0.3050245648264885,-0.5669634366422891,-2.920056841340661
1783170472442674700,8.8586748046875,-0.28796280925795437,-0.7462105812460184,-3.0560820993334055
1783170472452743400,8.868743408203125,-0.23636311653256414,-0.9874351663351059,-3.17854878757298
1783170472462813700,8.878813720703125,-0.19752339052855966,-1.2272031228750944,-3.2019770094335076
1783170472472883700,8.8888837890625,-0.1650565605573356,-1.484192263329029,-3.105369569593668
1783170472482952700,8.89895263671875,-0.14079831761345266,-1.8101754450321197,-2.9240187307089567
1783170472493022700,8.909022705078126,-0.08412453649416565,-2.114808380192518,-2.7970751893162724
1783170472503091500,8.919091552734375,-0.018633973321318626,-2.255950542807579,-2.689463540381193
1783170472513161700,8.92916162109375,-0.04362243023589253,-2.2392349703282117,-2.60912451377511
1783170472523231700,8.939231689453125,-0.04446560306176543,-2.109412658628821,-2.462458619302511
1783170472533300700,8.94930078125,0.027295418682694434,-2.1006839932501316,-2.1568892800748345
1783170472543370800,8.959370849609375,0.1328384446501732,-2.083227831536531,-1.8930442823767661
1783170472553439700,8.969439697265624,0.1932826842188835,-1.9850819300830362,-1.6151327654033898
1783170472563509800,8.979509765625,0.23689868471398948,-1.793516571176052,-1.5149720169961451
1783170472573579500,8.98957958984375,0.2262723690204322,-1.5164900203436613,-1.4900351441383362
1783170472583648800,8.999648681640625,0.26107319489717484,-1.2588146511912346,-1.429428407484293
1783170472593718500,9.009718505859375,0.32082419150471686,-1.0019213723272085,-1.3770306962490082
1783170472603787800,9.019787841796875,0.26593992415070533,-0.7860358111560344,-1.4427017305552958
1783170472613857800,9.02985791015625,0.11460355364903807,-0.6317535964608192,-1.5348089363664388
1783170472623927600,9.039927490234374,-0.08715703605785965,-0.5603595083326101,-1.6455729118525981
1783170472633996800,9.049996826171874,-0.17501111446917056,-0.4575041140139103,-1.6620646124482155
1783170472644066600,9.060066650390626,-0.23059286256805062,-0.32085867829620834,-1.5102064100295305
1783170472654135800,9.0701357421875,-0.34483503555878997,-0.15768530113697052,-1.3352426418334244
1783170472664205600,9.08020556640625,-0.3862717923186719,0.024819968479871748,-1.0773995148986577
1783170472674275600,9.090275634765625,-0.4472213510610163,0.27053894237875936,-0.7966524822384119
1783170472684344600,9.100344482421875,-0.7372264798015356,0.5994195990890264,-0.6026034898221493
1783170472694414600,9.11041455078125,-1.0096113423079252,0.9068903880238532,-0.45511868018209933
1783170472704483800,9.12048388671875,-0.9899380890667437,1.3053770804017781,0.1005079544097185
1783170472714553600,9.1305537109375,-1.0604232456564902,1.2195879716962574,0.3874544262319803
1783170472724623600,9.14062353515625,-1.0536737713962794,1.4435001874566078,0.8519184423863887
1783170472734692600,9.150692626953125,-1.1789882502824067,1.4177929147481918,0.7890490214973688
1783170472744762600,9.1607626953125,-1.4056630626238882,1.1560913588196038,0.6454436836391687
1783170472754831600,9.17083154296875,-1.4838001952715216,0.7112327913671731,0.326609204646945
1783170472764901600,9.180901611328125,-1.324278326357156,0.3957721727222204,0.17034546074569223
1783170472774971600,9.1909716796875,-1.1493128045953809,0.16632745727598666,0.14740999083817005
1783170472785040600,9.20104052734375,-1.0148375525236129,0.11517068601250648,0.31944179723560806
1783170472795110700,9.211110595703126,-1.057481785377115,0.20525953773856162,0.5853986725211143
1783170472805179600,9.2211796875,-1.1355278787404297,0.2854009959459305,0.8339128300964832
1783170472815249700,9.231249755859375,-1.1849350298576056,0.3154495127290487,0.9824661457508802
1783170472825319400,9.2413193359375,-1.1792957087963818,0.34717210020422934,1.1068664324015378
1783170472835388700,9.251388671875,-1.1333550647459925,0.38581834946274757,1.1998112580806015
1783170472845458700,9.261458740234374,-1.1523486651599406,0.4508604382157326,1.3234002283483743
1783170472855527700,9.271527587890626,-1.1576625536590814,0.5899877538770437,1.4116414063811302
1783170472865597700,9.28159765625,-1.149545736568421,0.586348520591855,1.5480542023867367
1783170472875667500,9.29166748046875,-1.047777114573121,0.47491234493255613,1.625211091825366
1783170472885736700,9.30173681640625,-0.8824807539105415,0.33129064046144485,1.595035149270296
1783170472895806500,9.311806396484375,-0.717234662130475,0.2553530636847019,1.5307675520211457
1783170472905875700,9.321875732421875,-0.5910973225541413,0.34276188254654405,1.4704986690193413
1783170472915945500,9.331945556640624,-0.6761620625078678,0.4251946665614843,1.4766770653933285
1783170472926015500,9.342015380859374,-0.7669868272930384,0.44718730266094203,1.52242291752398
1783170472936084700,9.352084716796876,-0.8793481549732387,0.5333797314703465,1.5647972473949192
1783170472946154500,9.362154541015625,-0.9605202714025973,0.5255068061381578,1.5857938581943511
1783170472956223700,9.3722236328125,-0.9808781459070741,0.4345896868944168,1.5363514896333217
1783170472966293500,9.38229345703125,-0.8653377497993409,0.3249906635344028,1.4533604872137307
1783170472976363800,9.39236376953125,-0.7286294779784978,0.26654958048164845,1.3637468517839908
1783170472986432500,9.4024326171875,-0.6080364746563136,0.29080022464096544,1.2505752306342124
1783170472996502500,9.41250244140625,-0.4684896184086799,0.40839667649567124,1.1325263588368892
1783170473006571500,9.422571533203126,-0.4488981982320547,0.5663987884968519,1.0275503191024065
1783170473016641500,9.4326416015625,-0.4999216985046863,0.6368167250692844,0.894134366825223
1783170473026711600,9.442711669921875,-0.5351432340115309,0.607204846137762,0.7296066524475813
1783170473036780300,9.4527802734375,-0.5162631769746542,0.5745978770434856,0.5732260041683912
1783170473046850600,9.4628505859375,-0.27484190026968713,0.7693740146905184,0.29237317304611204
1783170473056919300,9.472919189453124,0.07264321140646934,1.2701368401944637,0.0881517461836338
1783170473066989300,9.4829892578125,0.025903525932878254,1.612116632452607,0.0836637871146202
1783170473077059600,9.4930595703125,-0.21686711955443022,1.7164169648826122,0.05017009831368923
1783170473087128300,9.50312841796875,-0.479936895096302,1.6572364616394042,-0.07184533902704715
1783170473097198600,9.513198486328125,-0.7304017483480274,1.4805337408214807,-0.28089608574211594
1783170473107267300,9.523267333984375,-0.8938328996606171,1.3417138836741447,-0.4498369403868913
1783170473117337300,9.53333740234375,-1.0139566780358553,1.0981102944940329,-0.44730011538565156
1783170473127406300,9.54340625,-1.0937433314561844,0.7841238400548696,-0.458356931450963
1783170473137476400,9.553476318359374,-1.1513332045070825,0.5182803620159626,-0.5361959579348564
1783170473147546600,9.563546630859374,-1.1353465308241546,0.28160920244753357,-0.5387175853669643
1783170473157615400,9.573615478515626,-0.9901900180011987,0.054660979992151255,-0.47251580518484115
1783170473167685600,9.583685546875,-0.930837007735297,-0.29578794992566104,-0.45224750865995883
1783170473177754400,9.59375439453125,-0.9890647402983158,-0.8285860821157693,-0.6076262864202261
1783170473187824400,9.603824462890625,-1.0002888026893137,-1.4233867892324923,-0.7720920414775609
1783170473197894400,9.613894287109375,-1.0158061052948235,-1.9034096090465782,-0.8668898015469312
1783170473207963400,9.62396337890625,-0.928625176904723,-2.254553535491228,-0.9284978241980075
1783170473218033400,9.634033447265624,-0.8018044581741094,-2.516780576598644,-0.9454448673456907
1783170473228102400,9.644102294921876,-0.6658037501007318,-2.686686476883292,-1.0291934101343154
1783170473238172400,9.65417236328125,-0.43512335537970065,-2.7328409098148345,-0.9892185426205397
1783170473248242400,9.664242431640625,-0.19216442077867685,-2.5736609862059354,-0.9008522769033909
1783170473258311400,9.6743115234375,0.012854878463223576,-2.2180127340793607,-0.7669295441478491
1783170473268381400,9.68438134765625,0.18515739156082273,-1.8725246414393186,-0.5659937148272991
1783170473278450400,9.694450439453124,0.238553393118456,-1.544657545685768,-0.33850130249261856
1783170473288520400,9.7045205078125,0.20444946346469223,-1.1855839952856302,-0.22397709769010543
1783170473298590500,9.714590576171876,0.148184555407241,-0.8311217380732298,-0.1409890178799629
1783170473308659200,9.7246591796875,0.06875570244863628,-0.5201151762276888,0.04137129030823707
1783170473318729500,9.7347294921875,-0.11550554399006067,-0.1996756001263857,0.14641688814759254
1783170473328798500,9.744798583984375,-0.3767220198154449,0.12982874144017695,0.22453239348530768
1783170473338868500,9.754868408203125,-0.5800548272751271,0.33484394902884956,0.2948807719528675
1783170473348938500,9.7649384765625,-0.7665383528731763,0.48488487289249893,0.2990174333661795
1783170473359007200,9.77500732421875,-1.015190749875456,0.5717933410167694,0.25784312693476674
1783170473369077500,9.785077392578126,-1.2835662306100128,0.6224813257247209,0.2664075416624546
1783170473379146200,9.795146240234375,-1.5461100825816392,0.6402502066493034,0.3384685692667961
1783170473389216500,9.805216552734375,-1.8005764265596866,0.6696925742328167,0.3030015345662832
1783170473399286500,9.81528662109375,-1.9567747040092944,0.6762456491380929,0.23034546367824077
1783170473409355500,9.82535546875,-2.0418968732386826,0.631237463632226,0.16225392422676085
1783170473419425500,9.835425537109375,-2.0690882470250127,0.57697688113451,0.11198270362615585
1783170473429494300,9.845494384765624,-2.010411601650715,0.45081601455211634,0.10317688135802745
1783170473439564500,9.855564453125,-1.980022893127799,0.3065139266014099,0.16790800446569917
1783170473449634300,9.86563427734375,-2.012121912699938,0.18775953688323496,0.2621551449149847
1783170473459703600,9.87570361328125,-2.0984587184160945,0.07093816105425357,0.3454658808082342
1783170473469773600,9.885773681640625,-2.2138024229079485,0.040323242560029025,0.4604869292169809
1783170473479842300,9.89584228515625,-2.2604817564964295,0.03112929775714874,0.5503086544394493
1783170473489912600,9.90591259765625,-2.2635136715382336,0.06397124465107917,0.5997983692735434
1783170473499982300,9.915982421875,-2.217394894441962,0.13318681969642637,0.6269862359285354
1783170473510051600,9.926051513671876,-2.18310157969594,0.2071516350954771,0.6496224306285381
1783170473520121300,9.936121337890626,-2.060970553151518,0.23673837958574293,0.6774743141502142
1783170473530190600,9.946190673828125,-1.8640905750930308,0.25865795044898987,0.7203717911124229
1783170473540260400,9.95626025390625,-1.6943964178629218,0.31902561765015125,0.7849737348824739
1783170473550330400,9.966330322265625,-1.5512977143526077,0.3732242408275604,0.8257757008701563
1783170473560399600,9.976399658203125,-1.405778067305684,0.3784878604441881,0.8760849153935909
1783170473570469400,9.986469482421874,-1.317634942819923,0.36526772886514663,0.9035118515014647
1783170473580538600,9.99653857421875,-1.251805064690113,0.36814123847484587,0.8886351848870515
1783170473590608400,10.0066083984375,-1.184094048988819,0.38059915350973605,0.8371160100519657
1783170473600678400,10.016678466796876,-1.1080869141072034,0.3553314412623644,0.7865431761562823
1783170473610747400,10.026747314453125,-1.1085551161408425,0.3258113322675228,0.7190384966820478
1783170473620817400,10.0368173828125,-1.1975287001013755,0.29415011959075926,0.6252952141016721
1783170473630886400,10.046886474609375,-1.1951438507914542,0.2415063246399164,0.556178423255682
1783170473640956400,10.056956298828124,-1.1767623909264802,0.12581541414558886,0.5499187783390284
1783170473651026400,10.0670263671875,-1.2637643825531004,0.011276596295833587,0.6227730021476745
1783170473661095400,10.077095458984376,-1.3843392656967044,-0.009657470661401749,0.6341144803732633
1783170473671165400,10.08716552734375,-1.6029979448430238,-0.03284954567849636,0.709770902121067
1783170473681234400,10.097234375,-1.826874066376686,-0.1000111108034849,0.7439233470916747
1783170473691304400,10.107304443359375,-2.0131882267571983,-0.09505904135406017,0.7093675820171833
1783170473701374500,10.11737451171875,-2.1269185047030446,-0.026471827340126035,0.7199830840557814
1783170473711443500,10.127443359375,-2.2538392497420308,0.06521802984178066,0.707764238473773
1783170473721513500,10.137513427734374,-2.251687040144205,0.2793862657010555,0.6711217302531004
1783170473731582500,10.14758251953125,-2.1706758133649826,0.5069231016993523,0.7032172426939011
1783170473741652500,10.157652587890626,-2.1696143216133117,0.6181587863504886,0.7128811430960893
1783170473751721500,10.167721435546875,-2.148163537305593,0.706152711623907,0.6117074182540178
1783170473761791500,10.17779150390625,-2.104733122510463,0.7749146976828575,0.487840800088644
1783170473771861200,10.187861328125,-2.085167859688401,0.9095686673223972,0.3958925842314958
1783170473781930500,10.197930419921875,-2.098165288427472,0.996381273856759,0.3523001107424497
1783170473792000500,10.20800048828125,-2.213903545194864,1.035554177337885,0.3420487658411264
1783170473802069500,10.218069580078126,-2.367982930794358,0.9496715451300144,0.40002106233835216
1783170473812139500,10.228139404296876,-2.545343238738179,0.7613549588859081,0.4000041112035513
1783170473822209300,10.238209228515625,-2.534157243335247,0.507376690685749,0.43709260962605473
1783170473832278500,10.248278564453125,-2.3006213130526243,0.25741584143340585,0.5510445674985647
1783170473842348300,10.258348388671875,-1.9931100459769366,-0.002450315761566162,0.6392834074437618
1783170473852417500,10.26841748046875,-1.7186194433629511,-0.22521043887734413,0.7181243044465779
1783170473862487300,10.2784873046875,-1.479582139185071,-0.36092823835611343,0.856487065476179
1783170473872557300,10.288557373046874,-1.3829437196850776,-0.4718032730013132,0.9927624988377094
1783170473882626600,10.29862646484375,-1.385716107007861,-0.539659834653139,1.1154963135808706
1783170473892696300,10.3086962890625,-1.3669966473601758,-0.5368079523533582,1.248194472977519
1783170473902765600,10.318765625,-1.2564530366264284,-0.48859366428256035,1.2834142549186944
1783170473912835300,10.32883544921875,-1.1526263130575418,-0.4386100284516811,1.1367039367824792
1783170473922905300,10.3389052734375,-1.0207098055578767,-0.3821832078307867,0.9638514616519213
1783170473932974300,10.348974365234374,-0.8577114927046,-0.08568331024348735,0.9069698830008506
1783170473943044400,10.35904443359375,-0.7359773565232753,0.4020271414637565,0.9700900637805462
1783170473953113300,10.36911328125,-0.7675150889508425,0.9093354430884122,1.159265312680602
1783170473963183400,10.379183349609375,-0.9479697096481918,1.2303197935909032,1.2894997123122214
1783170473973253400,10.38925341796875,-1.1949997661456464,1.3769634762316942,1.3798252954035997
1783170473983322400,10.399322265625,-1.458979496139288,1.4378589666992425,1.348330086943507
1783170473993392400,10.409392333984375,-1.7283515866957604,1.3582213663607834,1.1101046836704016
1783170474003461400,10.41946142578125,-1.969883630298823,1.160936460763216,0.7293354342907666
1783170474013531400,10.429531494140624,-2.158175228232145,0.8709849619060754,0.4056067535161972
1783170474023601400,10.439601318359376,-2.301802047269791,0.5663099411696195,-0.01352642104923725
1783170474033670400,10.44967041015625,-2.2626396651826797,0.25961715086996556,-0.4210393004477024
1783170474043740400,10.459740478515625,-2.0907249092936513,-0.004373392778635025,-0.7153302898138761
1783170474053809400,10.469809326171875,-1.8774778799325227,-0.1474596751987934,-0.9285381562083959
1783170474063879400,10.47987939453125,-1.730721969088912,-0.24308044208884239,-1.046245667222142
1783170474073949400,10.489949462890625,-1.9822585432253776,-0.3860147488176822,-1.2599427784383297
1783170474084018400,10.500018310546874,-2.460153264969587,-0.5845809263974427,-1.6075012476116417
1783170474094088200,10.510088134765626,-2.9370272653639313,-0.8170780151516198,-1.7893629586279391
1783170474104157400,10.520157470703126,-3.2368142217978835,-0.9886708456099033,-1.8973089540839194
1783170474114227500,10.5302275390625,-3.377816975942254,-1.0339636932760476,-2.2475381037712094
1783170474124296400,10.54029638671875,-3.7409976694002745,-1.1250550000429154,-2.424846973788738
1783170474134366500,10.550366455078125,-4.015065078166127,-1.3088123155474662,-2.5674241376429796
1783170474144436500,10.5604365234375,-4.058317944437265,-1.404949799787998,-2.8294325675636527
1783170474154505500,10.57050537109375,-3.911649711877107,-1.397980545297265,-2.8924416891843077
1783170474164575200,10.5805751953125,-4.024037196911872,-1.4221610468298196,-2.8223814800083638
1783170474174644500,10.59064453125,-4.171112548968195,-1.4772195017069578,-2.786216526171565
1783170474184714200,10.60071435546875,-4.060656031996012,-1.0392395878523588,-2.6604332607299086
1783170474194784500,10.610784423828125,-3.9893864470303058,-0.6621487347245216,-2.7010218762278555
1783170474204853500,10.620853515625,-3.6344010427266356,-0.23130583314299583,-2.5239602589696646
1783170474214923300,10.63092333984375,-3.640551089788973,-0.06061375091671943,-2.209703755417466
1783170474224992500,10.640992431640624,-3.852263164667785,0.21085224317908285,-2.3860136775255203
1783170474235062300,10.651062255859374,-4.187907031902671,0.43693361967206,-2.737401934120059
1783170474245132500,10.661132568359376,-4.377586138671636,0.479360556513071,-2.6867998741298913
1783170474255201300,10.671201171875,-4.195788725063204,0.6083107615530491,-2.987638677704334
1783170474265271600,10.681271484375,-4.106196716943383,0.5608601513311267,-3.0738135708570478
1783170474275340300,10.69134033203125,-4.125886921319365,0.38490912566334007,-2.8447371042013168
1783170474285410300,10.701410400390625,-4.458242852924764,0.09549451016187667,-2.542200849059224
1783170474295480600,10.71148046875,-4.75964425881803,-0.06892331410050392,-2.337876546344161
1783170474305549300,10.72154931640625,-4.917421914413571,0.07424538590610028,-2.202370928311348
1783170474315619600,10.73161962890625,-4.935035312515497,0.2348573881447315,-2.0045166983932257
1783170474325688300,10.741688232421875,-4.5339352227687835,0.47178749091029165,-1.6791268064081668
1783170474335758300,10.75175830078125,-3.886217164456844,0.7979691177949308,-1.3677338755935429
1783170474345828600,10.76182861328125,-3.26500951192975,1.0540675930194556,-1.2743337073624132
1783170474355897300,10.7718974609375,-2.6406308281511066,1.2309107452213763,-1.113430613222718
1783170474365967600,10.781967529296875,-2.158478010571003,1.364452515835315,-0.8486322603225708
1783170474376036400,10.792036376953124,-1.4968752192914485,1.5607010641224681,-0.5461889441609382
1783170474386106400,10.8021064453125,-0.8620750947415828,1.6530281962946056,-0.1320885030657053
1783170474396175400,10.81217529296875,-0.17625556157231329,1.9518211732551454,0.36245442501008507
1783170474406245400,10.822245361328125,0.5876993506789208,2.2685823531046507,0.6512158372998237
1783170474416315400,10.8323154296875,0.9216741156578063,2.3870957736738023,0.6371627620279788
1783170474426384400,10.84238427734375,1.0645125607967376,2.5124773264467715,0.4422615366965532
1783170474436454700,10.85245458984375,1.3190326807886361,2.6660212899953124,0.4134440230131149
1783170474446523400,10.8625234375,1.333462188157439,2.904429064098,0.40662791325747966
1783170474456593400,10.872593505859374,0.9399263961851596,3.0593741266161203,0.2135784532725811
1783170474466663400,10.882663330078126,0.5947077681362628,2.7833845176160334,0.04806377368420362
1783170474476732400,10.892732421875,0.4567454046010971,2.498518651460111,-0.09039952511042355
1783170474486802400,10.902802490234375,0.854706027278304,2.5044994794353843,0.034683483107388016
1783170474496871400,10.912871337890625,1.1557084969818592,2.638698691044748,0.1906087888345122
1783170474506941400,10.92294140625,1.2184966693282127,2.811194315561652,0.26194091764241456
1783170474517011500,10.933011474609375,1.1821604505777359,2.9295705196172,0.38024756359308953
1783170474527080400,10.94308056640625,0.9025736938685178,2.819499202570319,0.3861906899064779
1783170474537150500,10.953150390625,0.5531465082138777,2.476642627477646,0.3880021232426166
1783170474547219500,10.963219482421875,0.16086860734820366,2.399104045245051,0.06820756704658269
1783170474557289500,10.97328955078125,-0.19446400295794009,2.6238758004441856,-0.3347071709066629
1783170474567359500,10.983359375,-0.17700258054733276,3.0032378133743998,-0.2553609547302127
1783170474577428200,10.99342822265625,0.26928455840349197,3.4922266144543883,-0.207334590446949
1783170474587498500,11.00349853515625,0.8536924663215875,3.508601702933013,-0.05227934555262327
1783170474597567200,11.013567138671876,1.1332973432093858,3.386367946666479,-0.02350362518429756
1783170474607637500,11.023637451171876,1.489278188291192,3.522121401980519,-0.29610037687569857
1783170474617706500,11.03370654296875,1.7856389696687458,3.8137843809306617,-0.6733890906631946
1783170474627776500,11.043776611328125,2.022158153545856,3.908811858102679,-1.033336501288414
1783170474637846500,11.053846435546875,2.1275492038220167,3.817748608386516,-1.1531075207032262
1783170474647915300,11.063915283203125,1.9870120213627813,3.548305936811864,-1.2489958524882794
1783170474657985500,11.073985595703125,1.7149246804982423,3.274318023023009,-1.3587411524511872
1783170474668054300,11.08405419921875,1.5141864195764063,3.107210229024291,-1.68456212932989
1783170474678124500,11.09412451171875,1.589371132159233,2.972529955899715,-1.987624600303173
1783170474688194600,11.104194580078126,1.9976684399336575,2.914319758993387,-1.9755936785086987
1783170474698263300,11.11426318359375,2.3852573062002658,2.81563726644516,-1.8260519363388419
1783170474708333600,11.12433349609375,2.6593261762708424,2.636902455277741,-1.7571204389318822
1783170474718402300,11.13440234375,2.5327239956617356,2.518285135942697,-1.7729112977817654
1783170474728472600,11.14447265625,2.1864865459591147,2.3415286391109227,-1.784671732071787
1783170474738542300,11.154542236328124,1.914232616356015,2.2537160617537797,-1.8560124825775621
1783170474748611300,11.164611328125,1.7663702055752277,2.250599829429388,-2.0207715214930473
1783170474758681600,11.174681640625,1.9419605812370775,2.2616508002758025,-2.056342162698507
1783170474768750300,11.184750244140625,2.3263825079053637,2.009669404981285,-2.067926948160678
1783170474778820600,11.194820556640625,2.701302446734905,1.721818970056623,-2.1260959362737832
1783170474788890400,11.204890380859375,2.928238394230604,1.4765107689157126,-2.12509041249305
1783170474798959600,11.214959716796875,3.019101737460494,1.142477405617386,-2.047875070865452
1783170474809029400,11.225029296875,2.871857750838995,0.9439122509509325,-1.9823478289440273
1783170474819098400,11.235098388671876,2.403205635344982,0.9651612290762365,-1.9073318970568478
1783170474829168400,11.24516845703125,2.099093509188294,0.9072428547233342,-1.7542160957925022
1783170474839237400,11.2552373046875,2.036692290332913,0.8014740571759641,-1.7020339270040392
1783170474849307600,11.2653076171875,2.180400504043698,0.7684478397563099,-1.7421582859911025
1783170474859377400,11.27537744140625,2.3023738558083773,0.6569593493878841,-1.71048567513749
1783170474869446400,11.2854462890625,2.342702943587303,0.603384264936298,-1.6053804560653864
1783170474879516400,11.295516357421874,2.353279282659292,0.5728636005967855,-1.502870075792074
1783170474889585400,11.30558544921875,2.185869290843606,0.5779306747280061,-1.5015477411471307
1783170474899655400,11.315655517578126,1.9091782555758952,0.5988157879769802,-1.430773100091517
1783170474909725400,11.325725341796876,1.5459768115907906,0.48444750438854095,-1.3703500494413077
1783170474919794400,11.33579443359375,1.3733318417310714,0.3500095155872404,-1.2951707436859607
1783170474929864400,11.345864501953125,1.4234002332359552,0.3150457542337477,-1.3061299445956944
1783170474939933400,11.355933349609375,1.5784686298727988,0.4083613129213452,-1.310841775548458
1783170474950003500,11.36600341796875,1.6971493698328732,0.4818117490574717,-1.129781517108157
1783170474960073500,11.376073486328124,1.6186545097887515,0.46660015140026806,-0.7856317603997885
1783170474970142500,11.386142578125,1.3293775491923092,0.4423950268831104,-0.7885436292584985
1783170474980212500,11.39621240234375,0.5622445914268493,0.7277682580392807,-1.081653080689907
1783170474990281200,11.40628125,0.36828912251293655,0.5086814166087656,-0.7816727205757051
1783170475000351500,11.4163515625,0.19098843580186367,0.10679441426806151,0.011617952512833289
1783170475010420200,11.426420166015625,-0.255668120983243,0.2777299498613924,-0.6537624530427157
1783170475020490500,11.436490478515625,0.00008534019589424133,0.4350544548619538,-0.9265883373148739
1783170475030560300,11.446560302734374,0.09028174394965172,0.5087773512639105,-0.7482564809251576
