time,seconds_elapsed,z,y,x
1783170463651892200,0.067892333984375,0.10397739708423615,-0.12832990288734436,0.13935525715351105
1783170463661961200,0.077961181640625,0.11638985574245453,-0.11481063067913055,0.1486654132604599
1783170463672031200,0.08803125,0.12757502496242523,-0.07965544611215591,0.13969223201274872
1783170463682101200,0.098101318359375,0.13539832830429077,-0.07291871309280396,0.1569921225309372
1783170463692170200,0.108170166015625,0.15106353163719177,-0.08068488538265228,0.2527175843715668
1783170463702240300,0.118240234375,0.17954498529434204,-0.11426974833011627,0.361937016248703
1783170463712310300,0.128310302734375,0.22245290875434875,-0.18791653215885162,0.4303370416164398
1783170463722379300,0.138379150390625,0.27393633127212524,-0.2555570900440216,0.45088574290275574
1783170463732449300,0.14844921875,0.3007299602031708,-0.29810962080955505,0.4260280132293701
1783170463742519000,0.15851904296875,0.2349245846271515,-0.2853701412677765,0.326138436794281
1783170463752588300,0.16858837890625,0.2925322353839874,-0.2205132246017456,0.24304455518722534
1783170463762658300,0.178658203125,0.4146392345428467,-0.17565228044986725,0.15797759592533112
1783170463772728300,0.188728271484375,0.53162682056427,-0.14750239253044128,0.05699317529797554
1783170463782797300,0.19879736328125,0.6515143513679504,-0.18969273567199707,-0.029329728335142136
1783170463792867000,0.2088671875,0.7946439981460571,-0.3446800410747528,-0.046088896691799164
1783170463802937300,0.218937255859375,0.9377220273017883,-0.5988388061523438,-0.04593363404273987
1783170463813006000,0.229006103515625,0.9917483925819397,-0.7892126441001892,-0.09827887266874313
1783170463823076400,0.239076416015625,0.9795636534690857,-0.8521887063980103,-0.14811301231384277
1783170463833146400,0.249146484375,0.9845460057258606,-0.9025598168373108,-0.20416542887687683
1783170463843215000,0.259215087890625,0.9972471594810486,-0.9662945866584778,-0.270988404750824
1783170463853285400,0.269285400390625,1.0072654485702515,-1.0327556133270264,-0.34561362862586975
1783170463863355100,0.279355224609375,0.9848701357841492,-1.052882194519043,-0.40216854214668274
1783170463873424400,0.28942431640625,0.9403197169303894,-1.0238312482833862,-0.4282003343105316
1783170463883494100,0.299494140625,0.8951261639595032,-1.000383973121643,-0.4208100438117981
1783170463893564200,0.309564208984375,0.8223269581794739,-0.993237316608429,-0.3604321777820587
1783170463903633400,0.31963330078125,0.735799252986908,-1.0133321285247803,-0.27599000930786133
1783170463913703200,0.329703125,0.6331771016120911,-1.0662575960159302,-0.18074747920036316
1783170463923772400,0.3397724609375,0.5195882320404053,-1.105850338935852,-0.08001954108476639
1783170463933842200,0.34984228515625,0.4387839734554291,-1.148753046989441,0.013760572299361229
1783170463943912200,0.359912109375,0.4456101953983307,-1.2257860898971558,0.12852443754673004
1783170463953982500,0.369982421875,0.4766843914985657,-1.2390875816345215,0.2630188763141632
1783170463964051200,0.38005126953125,0.4483107924461365,-1.115344762802124,0.34893831610679626
1783170463974121200,0.390121337890625,0.32815021276474,-0.9585570693016052,0.30847448110580444
1783170463984190200,0.400190185546875,0.18791347742080688,-0.8318643569946289,0.17034748196601868
1783170463994260200,0.41026025390625,0.09024100005626678,-0.7031094431877136,0.030136805027723312
1783170464004330200,0.420330322265625,0.04784347862005234,-0.5281118154525757,-0.028291618451476097
1783170464014399500,0.4303994140625,0.03551776334643364,-0.32149431109428406,-0.012197698466479778
1783170464024469500,0.440469482421875,0.04428861662745476,-0.1878960281610489,0.05400156229734421
1783170464034539500,0.45053955078125,0.09545242041349411,-0.13199880719184875,0.1351637840270996
1783170464044608500,0.4606083984375,0.14402581751346588,-0.1485902965068817,0.24109715223312378
1783170464054678500,0.470678466796875,0.16584670543670654,-0.25197088718414307,0.356544554233551
1783170464064748500,0.48074853515625,0.16458196938037872,-0.29604673385620117,0.4237864315509796
1783170464074817500,0.490817626953125,0.09066815674304962,-0.42007413506507874,0.4085371792316437
1783170464084887600,0.500887451171875,0.02008000947535038,-0.6475195288658142,0.3631651699542999
1783170464094957600,0.51095751953125,-0.014038948342204094,-0.811951220035553,0.34351181983947754
1783170464105026600,0.521026611328125,-0.0023641828447580338,-0.851840615272522,0.35127466917037964
1783170464115096600,0.5310966796875,0.04554769769310951,-0.8283860087394714,0.3717937171459198
1783170464125166600,0.54116650390625,0.09332773834466934,-0.754225492477417,0.39363136887550354
1783170464135235600,0.551235595703125,0.12758274376392365,-0.6519293189048767,0.421185165643692
1783170464145305600,0.5613056640625,0.15251898765563965,-0.5280334949493408,0.44297727942466736
1783170464155375400,0.571375244140625,0.1480005979537964,-0.4022325575351715,0.4254447817802429
1783170464165444600,0.581444580078125,0.14487245678901672,-0.27075842022895813,0.3926548659801483
1783170464175514400,0.591514404296875,0.14743070304393768,-0.16730938851833344,0.3383185863494873
1783170464185584600,0.601584716796875,0.16353856027126312,-0.16419854760169983,0.2650696635246277
1783170464195653400,0.6116533203125,0.18621741235256195,-0.20190759003162384,0.1734505295753479
1783170464205723600,0.6217236328125,0.2085762470960617,-0.23918917775154114,0.08183566480875015
1783170464215793700,0.631793701171875,0.28097960352897644,-0.3708040714263916,0.03438407927751541
1783170464225862400,0.6418623046875,0.4180738031864166,-0.4877663850784302,0.06600086390972137
1783170464235932700,0.6519326171875,0.4602181315422058,-0.3938997983932495,0.09528516978025436
1783170464246002400,0.66200244140625,0.42387235164642334,-0.3856000602245331,0.10777965933084488
1783170464256071700,0.67207177734375,0.4023590087890625,-0.4489801228046417,0.12780563533306122
1783170464266141700,0.6821416015625,0.4012894928455353,-0.460916668176651,0.16542252898216248
1783170464276211500,0.69221142578125,0.38724806904792786,-0.4549880623817444,0.19484363496303558
1783170464286280700,0.70228076171875,0.3816053569316864,-0.4684450030326843,0.1787986159324646
1783170464296350500,0.7123505859375,0.39965903759002686,-0.45435357093811035,0.11124592274427414
1783170464306420500,0.72242041015625,0.43830686807632446,-0.3814500570297241,0.00040035974234342575
1783170464316489500,0.732489501953125,0.48690342903137207,-0.32056647539138794,-0.11382173001766205
1783170464326559500,0.7425595703125,0.5449108481407166,-0.27702778577804565,-0.18966296315193176
1783170464336629500,0.75262939453125,0.5818504691123962,-0.2423577904701233,-0.20407329499721527
1783170464346698500,0.762698486328125,0.5987955927848816,-0.2277764528989792,-0.1899297833442688
1783170464356768500,0.7727685546875,0.6118003129959106,-0.24279561638832092,-0.17214848101139069
1783170464366837500,0.78283740234375,0.6132088303565979,-0.2314036786556244,-0.1705215573310852
1783170464376907500,0.792907470703125,0.6018328666687012,-0.2179374098777771,-0.16799341142177582
1783170464386977500,0.8029775390625,0.5961320996284485,-0.19780844449996948,-0.1655806005001068
1783170464397047600,0.813047607421875,0.5895746350288391,-0.19423209130764008,-0.1534678339958191
1783170464407116500,0.823116455078125,0.5765352249145508,-0.18851055204868317,-0.13808834552764893
1783170464417186600,0.8331865234375,0.559902012348175,-0.16988906264305115,-0.13472585380077362
1783170464427255600,0.843255615234375,0.5372278690338135,-0.13174274563789368,-0.14241865277290344
1783170464437325600,0.85332568359375,0.5007870197296143,-0.08805106580257416,-0.1579749882221222
1783170464447395600,0.8633955078125,0.45302054286003113,-0.04000364616513252,-0.1848854273557663
1783170464457464600,0.873464599609375,0.3626960813999176,0.021467175334692,-0.25025084614753723
1783170464467534600,0.88353466796875,0.2359919250011444,0.09487108886241913,-0.3718867301940918
1783170464477604600,0.8936044921875,0.13481737673282623,0.16982655227184296,-0.5043595433235168
1783170464487673600,0.903673583984375,0.11154800653457642,0.2291271686553955,-0.6089410781860352
1783170464497743600,0.91374365234375,0.14183452725410461,0.25236910581588745,-0.6670384407043457
1783170464507813400,0.9238134765625,0.17763566970825195,0.23834702372550964,-0.6706284284591675
1783170464517882600,0.933882568359375,0.1983843594789505,0.2146848440170288,-0.6213119626045227
1783170464527952400,0.943952392578125,0.2051762193441391,0.20390009880065918,-0.5335144996643066
1783170464538022400,0.9540224609375,0.19904649257659912,0.20502528548240662,-0.44249680638313293
1783170464548091600,0.964091552734375,0.18083420395851135,0.24577964842319489,-0.37050142884254456
1783170464558161400,0.974161376953125,0.16110195219516754,0.3647703230381012,-0.33118581771850586
1783170464568231700,0.984231689453125,0.16370385885238647,0.5100772380828857,-0.3254286050796509
1783170464578300400,0.994300537109375,0.14541476964950562,0.6748446822166443,-0.36371785402297974
1783170464588370700,1.00437060546875,0.1342848837375641,0.7698090672492981,-0.41817283630371094
1783170464598440700,1.014440673828125,0.13791663944721222,0.7942438125610352,-0.44799330830574036
1783170464608509400,1.024509521484375,0.16202837228775024,0.7819043397903442,-0.4313381612300873
1783170464618579700,1.034579833984375,0.17093248665332794,0.7788420915603638,-0.3997955322265625
1783170464628649500,1.0446494140625,0.14258232712745667,0.770000696182251,-0.3502740263938904
1783170464638718700,1.05471875,0.047599807381629944,0.7909147143363953,-0.3262224793434143
1783170464648788500,1.06478857421875,-0.09767642617225647,0.8292213678359985,-0.32721585035324097
1783170464658858500,1.0748583984375,-0.25595730543136597,0.8630797266960144,-0.34399235248565674
1783170464668927500,1.084927490234375,-0.38805487751960754,0.8892921805381775,-0.3576602339744568
1783170464678997500,1.09499755859375,-0.49656346440315247,0.9170596599578857,-0.3584018051624298
1783170464689067500,1.105067626953125,-0.579718828201294,0.90598464012146,-0.36333346366882324
1783170464699136500,1.115136474609375,-0.6073540449142456,0.8642314672470093,-0.4024561047554016
1783170464709206500,1.12520654296875,-0.6217638850212097,0.9512182474136353,-0.45516031980514526
1783170464719275500,1.135275634765625,-0.6532543897628784,1.0846143960952759,-0.5127782225608826
1783170464729345500,1.145345458984375,-0.6780503392219543,1.1895506381988525,-0.6169296503067017
1783170464739415600,1.15541552734375,-0.6830461621284485,1.2737032175064087,-0.7528393268585205
1783170464749484500,1.165484619140625,-0.6571900844573975,1.3391972780227661,-0.8876293897628784
1783170464759554600,1.175554443359375,-0.5987820029258728,1.369335651397705,-1.0081734657287598
1783170464769624600,1.18562451171875,-0.516871452331543,1.349977731704712,-1.0744009017944336
1783170464779693600,1.195693603515625,-0.40688952803611755,1.3059407472610474,-1.095686674118042
1783170464789763300,1.205763427734375,-0.2963275909423828,1.2818593978881836,-1.0763587951660156
1783170464799833600,1.21583349609375,-0.21191273629665375,1.2882850170135498,-1.0053740739822388
1783170464809902300,1.22590234375,-0.17247718572616577,1.306711196899414,-0.8995828628540039
1783170464819972600,1.23597265625,-0.1816720813512802,1.2954953908920288,-0.7739917635917664
1783170464830042600,1.246042724609375,-0.23212087154388428,1.336673378944397,-0.6605768203735352
1783170464840111600,1.256111572265625,-0.30096250772476196,1.3641316890716553,-0.575063169002533
1783170464850181600,1.266181640625,-0.35896191000938416,1.4206441640853882,-0.546576976776123
1783170464860251400,1.27625146484375,-0.3925222158432007,1.5074756145477295,-0.5890061855316162
1783170464870320600,1.286320556640625,-0.3839905261993408,1.553029179573059,-0.6873322129249573
1783170464880390700,1.296390625,-0.34365513920783997,1.5421298742294312,-0.7776973247528076
1783170464890460400,1.30646044921875,-0.31905895471572876,1.5191377401351929,-0.799048125743866
1783170464900529700,1.31652978515625,-0.33916687965393066,1.4413158893585205,-0.731225311756134
1783170464910599400,1.326599365234375,-0.3667747974395752,1.3881562948226929,-0.6608355641365051
1783170464920668700,1.336668701171875,-0.385030061006546,1.379947543144226,-0.6550837159156799
1783170464930738400,1.346738525390625,-0.39192259311676025,1.3667668104171753,-0.7007853984832764
1783170464940808400,1.356808349609375,-0.39195066690444946,1.350019097328186,-0.7366960048675537
1783170464950877400,1.36687744140625,-0.40273353457450867,1.332249402999878,-0.740019679069519
1783170464960947500,1.376947509765625,-0.4184841215610504,1.310716986656189,-0.7093058228492737
1783170464971017500,1.387017578125,-0.43262097239494324,1.28189218044281,-0.6824731826782227
1783170464981086500,1.39708642578125,-0.4430900812149048,1.2273058891296387,-0.6762475371360779
1783170464991156500,1.407156494140625,-0.4644315838813782,1.165662169456482,-0.6531640887260437
1783170465001226800,1.417226806640625,-0.5035914778709412,1.0995763540267944,-0.6212974190711975
1783170465011295500,1.42729541015625,-0.5317367911338806,1.027722954750061,-0.6596535444259644
1783170465021365800,1.43736572265625,-0.5337745547294617,0.9702733159065247,-0.7549509406089783
1783170465031435800,1.447435791015625,-0.4991433024406433,0.9486348628997803,-0.8507519960403442
1783170465041504500,1.45750439453125,-0.4328117072582245,0.9589278101921082,-0.907531201839447
1783170465051574800,1.46757470703125,-0.3544039726257324,1.0401852130889893,-0.9268960952758789
1783170465061644500,1.47764453125,-0.29419413208961487,1.1745084524154663,-0.9046473503112793
1783170465071713800,1.4877138671875,-0.2577309310436249,1.3073512315750122,-0.8819950222969055
1783170465081783600,1.497783447265625,-0.2427697628736496,1.4037015438079834,-0.8662202954292297
1783170465091853600,1.507853515625,-0.2383856624364853,1.4488615989685059,-0.8636606931686401
1783170465101922600,1.517922607421875,-0.21822066605091095,1.4555774927139282,-0.8677917122840881
1783170465111992600,1.52799267578125,-0.18554368615150452,1.4140156507492065,-0.8532817363739014
1783170465122061800,1.538061767578125,-0.13441868126392365,1.3168141841888428,-0.8059298396110535
1783170465132131600,1.548131591796875,-0.08143721520900726,1.1939213275909424,-0.7293200492858887
1783170465142201600,1.55820166015625,-0.032271504402160645,1.070010781288147,-0.6619454622268677
1783170465152270600,1.5682705078125,0.0008760602213442326,0.9243789911270142,-0.6325592994689941
1783170465162340600,1.578340576171875,-0.017020197585225105,0.8426654934883118,-0.6287376284599304
1783170465172410600,1.58841064453125,-0.10054944455623627,0.8096279501914978,-0.6255927085876465
1783170465182479600,1.598479736328125,-0.22260449826717377,0.7704644203186035,-0.627978503704071
1783170465192549600,1.608549560546875,-0.32361021637916565,0.7187743186950684,-0.64613938331604
1783170465202619600,1.61861962890625,-0.3578284978866577,0.6919854879379272,-0.674170732498169
1783170465212688600,1.628688720703125,-0.33304938673973083,0.7113503813743591,-0.7412155866622925
1783170465222758700,1.638758544921875,-0.2884172201156616,0.7484889626502991,-0.8385016918182373
1783170465232828700,1.64882861328125,-0.2110350877046585,0.7653438448905945,-0.9103649258613586
1783170465242897400,1.6588974609375,-0.10106848925352097,0.7522785067558289,-0.9303207993507385
1783170465252967700,1.6689677734375,-0.004477770067751408,0.7003055810928345,-0.8780261278152466
1783170465263037700,1.67903759765625,0.05469647794961929,0.625592827796936,-0.7645520567893982
1783170465273106700,1.689106689453125,0.07158065587282181,0.5501476526260376,-0.6265558004379272
1783170465283176700,1.6991767578125,0.04443173110485077,0.5037399530410767,-0.5216550827026367
1783170465293245400,1.709245361328125,-0.014661682769656181,0.5265222191810608,-0.48190897703170776
1783170465303315700,1.719315673828125,-0.09065026789903641,0.6009763479232788,-0.4916653037071228
1783170465313385700,1.7293857421875,-0.17127640545368195,0.6987934112548828,-0.5263055562973022
1783170465323454700,1.739454833984375,-0.24469877779483795,0.7894797921180725,-0.5499085187911987
1783170465333524700,1.749524658203125,-0.3024939000606537,0.8331631422042847,-0.5484169125556946
1783170465343594500,1.759594482421875,-0.35110005736351013,0.8156594634056091,-0.5065224766731262
1783170465353663700,1.769663818359375,-0.4026157259941101,0.74737948179245,-0.415622353553772
1783170465363733500,1.7797333984375,-0.4699871838092804,0.635381281375885,-0.2998352348804474
1783170465373803500,1.789803466796875,-0.5240895748138428,0.5355537533760071,-0.1816617250442505
1783170465383872800,1.799872802734375,-0.5522936582565308,0.52295982837677,-0.08859896659851074
1783170465393942500,1.809942626953125,-0.5414383411407471,0.5640649199485779,-0.0959618091583252
1783170465404012800,1.8200126953125,-0.523472249507904,0.4762154817581177,-0.0851803869009018
1783170465414081500,1.83008154296875,-0.527128279209137,0.4303726255893707,-0.039858974516391754
1783170465424151600,1.840151611328125,-0.527908444404602,0.34483402967453003,0.02339920587837696
1783170465434221800,1.850221923828125,-0.5171343088150024,0.25586023926734924,0.08675208687782288
1783170465444290600,1.86029052734375,-0.4496361315250397,0.134002223610878,0.1298227459192276
1783170465454360800,1.87036083984375,-0.3512725234031677,-0.017917264252901077,0.16958293318748474
1783170465464429600,1.8804296875,-0.2549462914466858,-0.16926616430282593,0.24492667615413666
1783170465474499600,1.89049951171875,-0.2033291906118393,-0.3256658911705017,0.3570905029773712
1783170465484569600,1.900569580078125,-0.17824028432369232,-0.448930025100708,0.47148969769477844
1783170465494638600,1.910638671875,-0.11843714118003845,-0.5733681321144104,0.5077861547470093
1783170465504708600,1.92070849609375,-0.015934297814965248,-0.711596667766571,0.4068269431591034
1783170465514778600,1.930778564453125,0.08922114968299866,-0.7910020351409912,0.26628100872039795
1783170465524847900,1.940847900390625,0.15283039212226868,-0.7771125435829163,0.16002486646175385
1783170465534917600,1.950917724609375,0.15108494460582733,-0.7482327222824097,0.09685255587100983
1783170465544987600,1.960987548828125,0.0971403419971466,-0.7186976075172424,0.12093997746706009
1783170465555056600,1.971056640625,0.029115483164787292,-0.6605898141860962,0.25018665194511414
1783170465565126700,1.981126708984375,-0.031137768179178238,-0.5905569195747375,0.4144633710384369
1783170465575196700,1.99119677734375,-0.0714295282959938,-0.5113574266433716,0.5266415476799011
1783170465585265700,2.001265625,-0.0860251858830452,-0.40412142872810364,0.5625064373016357
1783170465595335700,2.011335693359375,-0.09176190197467804,-0.30734696984291077,0.516313910484314
1783170465605404700,2.02140478515625,-0.08621673285961151,-0.21836739778518677,0.42839837074279785
1783170465615474700,2.031474609375,-0.08097243309020996,-0.1705828309059143,0.3617088198661804
1783170465625544400,2.04154443359375,-0.06970060616731644,-0.14341486990451813,0.31958720088005066
1783170465635613700,2.05161376953125,-0.08059319853782654,-0.13378727436065674,0.29397743940353394
1783170465645683500,2.061683349609375,-0.11618246138095856,-0.13200868666172028,0.27326929569244385
1783170465655753700,2.071753662109375,-0.1537862867116928,-0.10458557307720184,0.24947449564933777
1783170465665822700,2.08182275390625,-0.18670402467250824,-0.04723360389471054,0.2081960290670395
1783170465675892500,2.091892578125,-0.20540234446525574,0.0005682720802724361,0.1515870839357376
1783170465685962800,2.101962646484375,-0.20237751305103302,0.004068198148161173,0.10401938855648041
1783170465696031500,2.112031494140625,-0.18667444586753845,-0.021276839077472687,0.08745746314525604
1783170465706101800,2.122101806640625,-0.1571461707353592,-0.021519456058740616,0.08178579062223434
1783170465716171800,2.132171875,-0.10846012830734253,-0.08933418989181519,0.10003617405891418
1783170465726240500,2.142240478515625,-0.05884828791022301,-0.14084172248840332,0.155348539352417
1783170465736310800,2.152310791015625,0.01580757461488247,-0.19013337790966034,0.1883150190114975
1783170465746379500,2.162379638671875,0.07956894487142563,-0.22944602370262146,0.19357024133205414
1783170465756449800,2.17244970703125,0.13388597965240479,-0.19613680243492126,0.17021432518959045
1783170465766519600,2.18251953125,0.18004395067691803,-0.15170209109783173,0.10879018157720566
1783170465776588800,2.1925888671875,0.2035796344280243,-0.12001260370016098,0.06420460343360901
1783170465786658600,2.202658447265625,0.21049116551876068,-0.10822958499193192,0.050572026520967484
1783170465796728600,2.212728515625,0.21734002232551575,-0.11943349987268448,0.0321541391313076
1783170465806797800,2.2227978515625,0.22310590744018555,-0.16578449308872223,0.01265255268663168
1783170465816867600,2.23286767578125,0.22406278550624847,-0.2007824182510376,-0.015551388263702393
1783170465826937600,2.2429375,0.22149108350276947,-0.22942817211151123,-0.0676662027835846
1783170465837006600,2.253006591796875,0.21293407678604126,-0.2643156051635742,-0.12500964105129242
1783170465847076600,2.26307666015625,0.20067495107650757,-0.2833296060562134,-0.15797722339630127
1783170465857146600,2.273146728515625,0.19321250915527344,-0.25824129581451416,-0.17676609754562378
1783170465867215600,2.283215576171875,0.1916763186454773,-0.25827956199645996,-0.18320952355861664
1783170465877285600,2.29328564453125,0.20059603452682495,-0.25356149673461914,-0.17217151820659637
1783170465887354600,2.303354736328125,0.20080283284187317,-0.24852237105369568,-0.17360877990722656
1783170465897424600,2.313424560546875,0.19927072525024414,-0.2640264928340912,-0.18861916661262512
1783170465907494700,2.32349462890625,0.18490542471408844,-0.30291369557380676,-0.21618720889091492
1783170465917563600,2.333563720703125,0.1784786880016327,-0.3495376706123352,-0.2456047534942627
1783170465927633400,2.34363330078125,0.19363711774349213,-0.37164950370788574,-0.26066938042640686
1783170465937703700,2.35370361328125,0.20449109375476837,-0.38446730375289917,-0.2774166762828827
1783170465947772700,2.363772705078125,0.20135577023029327,-0.3890365958213806,-0.3104599118232727
1783170465957842700,2.3738427734375,0.16220198571681976,-0.35338300466537476,-0.3665759265422821
1783170465967912700,2.38391259765625,0.10724735260009766,-0.28558772802352905,-0.455023854970932
1783170465977981400,2.3939814453125,0.0733461081981659,-0.2067384421825409,-0.5745651721954346
1783170465988051700,2.4040517578125,0.08013784140348434,-0.11346230655908585,-0.7148406505584717
1783170465998121700,2.414121826171875,0.15419290959835052,-0.025115128606557846,-0.8238145709037781
1783170466008190700,2.424190673828125,0.27898797392845154,0.06442234665155411,-0.8646593689918518
1783170466018260500,2.434260498046875,0.42435768246650696,0.1491588056087494,-0.8288939595222473
1783170466028329500,2.44432958984375,0.5456022620201111,0.2617203891277313,-0.7436026334762573
1783170466038399500,2.4543994140625,0.5837885141372681,0.3824707567691803,-0.6279756426811218
1783170466048469200,2.46446923828125,0.5480943322181702,0.5095036625862122,-0.5430524349212646
1783170466058538500,2.47453857421875,0.4717140793800354,0.6309363842010498,-0.4843273162841797
1783170466068608300,2.484608154296875,0.40763792395591736,0.7129812836647034,-0.424007773399353
1783170466078678300,2.49467822265625,0.35881686210632324,0.7265805006027222,-0.3601454198360443
1783170466088747300,2.504747314453125,0.32053977251052856,0.6934823989868164,-0.2993021011352539
1783170466098817300,2.5148173828125,0.28059396147727966,0.602211058139801,-0.21003615856170654
1783170466108887600,2.524887451171875,0.23534148931503296,0.4651363492012024,-0.11039455980062485
1783170466118956300,2.534956298828125,0.17335322499275208,0.3261222839355469,0.000342613086104393
1783170466129026300,2.5450263671875,0.10986915975809097,0.18128372728824615,0.10408246517181396
1783170466139095300,2.55509521484375,0.07668484002351761,0.03841444477438927,0.21021822094917297
1783170466149165300,2.565165283203125,0.06245473772287369,-0.1230708584189415,0.3167365789413452
1783170466159235600,2.575235595703125,0.06404969841241837,-0.28592050075531006,0.38656628131866455
1783170466169304300,2.58530419921875,0.07598207145929337,-0.41611695289611816,0.4267878234386444
1783170466179374300,2.595374267578125,0.08107616752386093,-0.4692329168319702,0.4050617516040802
1783170466189444400,2.6054443359375,0.08331222832202911,-0.3971901535987854,0.3179105222225189
1783170466199513300,2.615513427734375,0.06180213764309883,-0.25852999091148376,0.18766412138938904
1783170466209583400,2.625583251953125,0.037240710109472275,-0.07785264402627945,0.0639193207025528
1783170466219653400,2.6356533203125,0.01477055437862873,0.098166324198246,-0.01554727554321289
1783170466229722400,2.645722412109375,0.002067010384052992,0.23344425857067108,-0.053795330226421356
1783170466239792400,2.65579248046875,-0.004634035285562277,0.29802563786506653,-0.03672127425670624
1783170466249861400,2.665861328125,-0.012259557843208313,0.32275640964508057,0.028510060161352158
1783170466259931400,2.675931396484375,-0.03919290378689766,0.3147270083427429,0.10942354798316956
1783170466270001400,2.68600146484375,-0.07117438316345215,0.3093579411506653,0.1880374699831009
1783170466280070400,2.6960703125,-0.1024305671453476,0.30081266164779663,0.22977159917354584
1783170466290140400,2.706140380859375,-0.10647646337747574,0.303335577249527,0.23196053504943848
1783170466300210400,2.71621044921875,-0.09022798389196396,0.32667312026023865,0.22405412793159485
1783170466310279400,2.726279541015625,-0.059290338307619095,0.3109793961048126,0.2374689131975174
1783170466320349400,2.736349365234375,-0.014817149378359318,0.2685256600379944,0.28305184841156006
1783170466330419200,2.746419189453125,0.017614169046282768,0.21805784106254578,0.32696688175201416
1783170466340488400,2.756488525390625,0.02521642856299877,0.17248210310935974,0.36324524879455566
1783170466350558200,2.76655810546875,0.018491916358470917,0.16180947422981262,0.35497552156448364
1783170466360628500,2.77662841796875,0.018648510798811913,0.16026857495307922,0.29579609632492065
1783170466370697200,2.786697265625,0.03695634752511978,0.15289562940597534,0.22069820761680603
1783170466380767200,2.796767333984375,0.049140043556690216,0.1385563611984253,0.14504766464233398
1783170466390836500,2.80683642578125,0.05821676924824715,0.10285481065511703,0.09430685639381409
1783170466400906200,2.81690625,0.06846941262483597,0.05194583162665367,0.08533493429422379
1783170466410976500,2.8269765625,0.0809156745672226,-0.007061552256345749,0.09357418864965439
1783170466421045200,2.837045166015625,0.09964648634195328,-0.08190250396728516,0.11656499654054642
1783170466431115300,2.847115234375,0.1263090819120407,-0.15373022854328156,0.15235748887062073
1783170466441185500,2.857185546875,0.13549111783504486,-0.19902180135250092,0.1815878003835678
1783170466451254300,2.867254150390625,0.12685561180114746,-0.2111068218946457,0.1928471475839615
1783170466461324500,2.877324462890625,0.1059388816356659,-0.21461553871631622,0.19310733675956726
1783170466471394300,2.887394287109375,0.08333460241556168,-0.1916981190443039,0.1895655244588852
1783170466481463600,2.897463623046875,0.06124421954154968,-0.17300166189670563,0.18433135747909546
1783170466491533300,2.907533203125,0.048340167850255966,-0.16614867746829987,0.18691295385360718
1783170466501602300,2.917602294921875,0.031299933791160583,-0.16756628453731537,0.20234598219394684
1783170466511672600,2.927672607421875,0.0047874292358756065,-0.15764521062374115,0.22731037437915802
1783170466521742300,2.937742431640625,-0.03295302391052246,-0.1294945329427719,0.23969140648841858
1783170466531811600,2.9478115234375,-0.0760149136185646,-0.08547141402959824,0.23398934304714203
1783170466541881300,2.95788134765625,-0.10521247982978821,-0.030387651175260544,0.21747508645057678
1783170466551951400,2.967951416015625,-0.12193349748849869,0.006937346421182156,0.196492001414299
1783170466562020400,2.978020263671875,-0.14195780456066132,0.01147723663598299,0.19081734120845795
1783170466572090400,2.98809033203125,-0.15930770337581635,-0.004744341596961021,0.19761766493320465
1783170466582160400,2.998160400390625,-0.1770893633365631,-0.055926837027072906,0.21550185978412628
1783170466592229400,3.0082294921875,-0.19410115480422974,-0.07457895576953888,0.22032667696475983
1783170466602299400,3.01829931640625,-0.2056606113910675,-0.07613610476255417,0.20074951648712158
1783170466612368400,3.028368408203125,-0.21402019262313843,-0.06503111869096756,0.16800101101398468
1783170466622438400,3.0384384765625,-0.2233111560344696,-0.04355671629309654,0.135659322142601
1783170466632508200,3.048508056640625,-0.23918475210666656,-0.01905963197350502,0.11305277794599533
1783170466642577400,3.058577392578125,-0.25884580612182617,-0.011786540038883686,0.08760520815849304
1783170466652647400,3.0686474609375,-0.2883170247077942,-0.0319189690053463,0.054124865680933
1783170466662717400,3.078717529296875,-0.30246853828430176,-0.08352969586849213,0.018361009657382965
1783170466672786400,3.088786376953125,-0.284383088350296,-0.1567758172750473,0.0074102492071688175
1783170466682856400,3.0988564453125,-0.2392590194940567,-0.23716892302036285,0.01962110958993435
1783170466692926500,3.108926513671875,-0.20934201776981354,-0.3096087872982025,0.04281755909323692
1783170466702995200,3.1189951171875,-0.21117852628231049,-0.3650893568992615,0.06736338138580322
1783170466713065500,3.1290654296875,-0.23472298681735992,-0.3826413154602051,0.061144549399614334
1783170466723134200,3.13913427734375,-0.2624872326850891,-0.38297873735427856,0.024437399581074715
1783170466733204500,3.14920458984375,-0.27404558658599854,-0.36651840806007385,-0.008376726880669594
1783170466743274500,3.1592744140625,-0.2668454647064209,-0.3616062104701996,-0.02019450254738331
1783170466753343200,3.16934326171875,-0.2557350993156433,-0.38792648911476135,0.007844125851988792
1783170466763413500,3.17941357421875,-0.26330938935279846,-0.4315600097179413,0.07036396116018295
1783170466773483300,3.189483154296875,-0.27739372849464417,-0.4731124937534332,0.1498802900314331
1783170466783552500,3.199552490234375,-0.29884016513824463,-0.5409008860588074,0.26050135493278503
1783170466793622500,3.20962255859375,-0.3147904872894287,-0.6277702450752258,0.4004705548286438
1783170466803691300,3.219691162109375,-0.34259283542633057,-0.7374019026756287,0.5455877780914307
1783170466813761500,3.229761474609375,-0.39325448870658875,-0.8359057307243347,0.67530357837677
1783170466823831300,3.239831298828125,-0.4486902952194214,-0.909785807132721,0.7591611742973328
1783170466833900500,3.249900634765625,-0.4787529408931732,-0.9808381795883179,0.7887570261955261
1783170466843970300,3.25997021484375,-0.4987849295139313,-1.0244196653366089,0.7736552953720093
1783170466854040300,3.270040283203125,-0.5087822079658508,-1.0177429914474487,0.7469407320022583
1783170466864109300,3.280109375,-0.5210772752761841,-0.9974470138549805,0.7143431305885315
1783170466874179300,3.290179443359375,-0.5228767991065979,-0.9828401803970337,0.6637606024742126
1783170466884249300,3.300249267578125,-0.5170655250549316,-0.9239555597305298,0.5876312255859375
1783170466894318300,3.310318359375,-0.5146191120147705,-0.8489512205123901,0.5044922232627869
1783170466904388400,3.320388427734375,-0.503080427646637,-0.7731906771659851,0.4196394383907318
1783170466914457300,3.330457275390625,-0.5159252882003784,-0.6962203979492188,0.37319427728652954
1783170466924527400,3.34052734375,-0.5367735624313354,-0.6879936456680298,0.3422214388847351
1783170466934597400,3.350597412109375,-0.5643354058265686,-0.7003459334373474,0.33874040842056274
1783170466944666400,3.360666259765625,-0.5644179582595825,-0.6969146728515625,0.3500266373157501
1783170466954736400,3.370736328125,-0.5495650768280029,-0.6866239905357361,0.35683801770210266
1783170466964806400,3.380806396484375,-0.5104336142539978,-0.6488534212112427,0.33647680282592773
1783170466974875400,3.39087548828125,-0.44182997941970825,-0.5880951285362244,0.3091760575771332
1783170466984945400,3.4009453125,-0.3532574772834778,-0.53229820728302,0.2799987196922302
1783170466995015400,3.411015380859375,-0.2711876928806305,-0.4762797951698303,0.27753564715385437
1783170467005084200,3.421084228515625,-0.20270663499832153,-0.45770689845085144,0.30240610241889954
1783170467015155000,3.431155029296875,-0.16117888689041138,-0.4241068959236145,0.33038637042045593
1783170467025224000,3.441223876953125,-0.15771304070949554,-0.4022819995880127,0.34328165650367737
1783170467035293700,3.451293701171875,-0.1637774407863617,-0.35775700211524963,0.31845706701278687
1783170467045364000,3.461364013671875,-0.1671580672264099,-0.35436147451400757,0.29812008142471313
1783170467055433000,3.471432861328125,-0.19303041696548462,-0.37771302461624146,0.297323077917099
1783170467065503000,3.4815029296875,-0.18674856424331665,-0.3827269375324249,0.3284255862236023
1783170467075573000,3.491572998046875,-0.19905272126197815,-0.3903654217720032,0.37096771597862244
1783170467085642000,3.50164208984375,-0.22435835003852844,-0.37099865078926086,0.4090101718902588
1783170467095712000,3.5117119140625,-0.25587767362594604,-0.3169146180152893,0.42115628719329834
1783170467105780700,3.52178076171875,-0.2907528281211853,-0.2624143660068512,0.42488446831703186
1783170467115851000,3.53185107421875,-0.31665101647377014,-0.21727989614009857,0.4301804304122925
1783170467125921000,3.541921142578125,-0.3133694529533386,-0.19946148991584778,0.43313440680503845
1783170467135990000,3.551989990234375,-0.286720871925354,-0.22350983321666718,0.4504956305027008
1783170467146060000,3.56206005859375,-0.2542886435985565,-0.2781352698802948,0.48078376054763794
1783170467156129800,3.5721298828125,-0.22686101496219635,-0.345738023519516,0.5116757750511169
1783170467166199000,3.582198974609375,-0.1987825185060501,-0.411299467086792,0.5398269891738892
1783170467176268800,3.592268798828125,-0.16801418364048004,-0.47509509325027466,0.5570541024208069
1783170467186338800,3.6023388671875,-0.12294179201126099,-0.528262197971344,0.5732091069221497
1783170467196408000,3.612407958984375,-0.07380350679159164,-0.5711912512779236,0.5870701670646667
1783170467206477800,3.622477783203125,-0.024966193363070488,-0.6026860475540161,0.6137712597846985
1783170467216547000,3.632547119140625,0.02826082333922386,-0.621246874332428,0.6124372482299805
1783170467226616800,3.642616943359375,0.07495642453432083,-0.6319823265075684,0.5920225381851196
1783170467236686800,3.652686767578125,0.1212330088019371,-0.6252679228782654,0.5681376457214355
1783170467246755800,3.662755859375,0.16694004833698273,-0.6132906079292297,0.5411515235900879
1783170467256825900,3.672825927734375,0.21013638377189636,-0.5820803642272949,0.4977013170719147
1783170467266896100,3.682896240234375,0.24816499650478363,-0.5414871573448181,0.4405094087123871
1783170467276964900,3.69296484375,0.27255529165267944,-0.5050168633460999,0.38609445095062256
1783170467287035000,3.703034912109375,0.29620763659477234,-0.4672194719314575,0.3660309910774231
1783170467297104000,3.713103759765625,0.29237014055252075,-0.4537295997142792,0.3867589831352234
1783170467307174000,3.723173828125,0.2835204601287842,-0.4510453939437866,0.4547281861305237
1783170467317244000,3.733243896484375,0.3038552701473236,-0.438233882188797,0.5259768962860107
1783170467327313000,3.74331298828125,0.32656803727149963,-0.4099116921424866,0.5632289052009583
1783170467337383000,3.7533828125,0.34657490253448486,-0.3479864001274109,0.5348643064498901
1783170467347453000,3.763452880859375,0.3753948211669922,-0.2837786376476288,0.4683782458305359
1783170467357522000,3.77352197265625,0.40914908051490784,-0.2424963265657425,0.3862936496734619
1783170467367592000,3.783592041015625,0.4451715350151062,-0.21556536853313446,0.3035527169704437
1783170467377662000,3.793661865234375,0.4637261927127838,-0.19096949696540833,0.22073893249034882
1783170467387731000,3.80373095703125,0.44966921210289,-0.19900824129581451,0.12790460884571075
1783170467397801000,3.813801025390625,0.38822004199028015,-0.22837412357330322,0.013249055482447147
1783170467407869700,3.82386962890625,0.3121436536312103,-0.26747944951057434,-0.13329803943634033
1783170467417940000,3.83393994140625,0.2624216675758362,-0.3302958309650421,-0.2981404960155487
1783170467428010000,3.844010009765625,0.24679583311080933,-0.40069568157196045,-0.42771607637405396
1783170467438079000,3.854078857421875,0.2648584544658661,-0.456161767244339,-0.49762478470802307
1783170467448149000,3.86414892578125,0.3153999447822571,-0.5052539110183716,-0.475371390581131
1783170467458218800,3.87421875,0.394330769777298,-0.5257700085639954,-0.4003655016422272
1783170467468288000,3.8842880859375,0.4873715043067932,-0.48590192198753357,-0.29728996753692627
1783170467478358000,3.89435791015625,0.5602633357048035,-0.3917641043663025,-0.1868225634098053
1783170467488427000,3.904427001953125,0.6063594222068787,-0.256895512342453,-0.0712118074297905
1783170467498497000,3.9144970703125,0.6164543628692627,-0.110228031873703,0.014777906239032745
1783170467508566800,3.92456689453125,0.6029326915740967,0.028566598892211914,0.07356905192136765
1783170467518636000,3.934635986328125,0.5682768821716309,0.13332656025886536,0.09773340821266174
1783170467528705800,3.944705810546875,0.5230332612991333,0.16891704499721527,0.11254271119832993
1783170467538775800,3.95477587890625,0.47792935371398926,0.1423196643590927,0.13087713718414307
1783170467548844800,3.9648447265625,0.4361022710800171,0.03066343441605568,0.14073510468006134
1783170467558914800,3.974914794921875,0.38157281279563904,-0.14781801402568817,0.1463129222393036
1783170467568985000,3.984985107421875,0.353927880525589,-0.3683741092681885,0.19011420011520386
1783170467579053800,3.9950537109375,0.363525390625,-0.6024034023284912,0.26408296823501587
1783170467589123800,4.005123779296875,0.40585634112358093,-0.8378838300704956,0.366248220205307
1783170467599192800,4.01519287109375,0.4750874936580658,-1.0346956253051758,0.4547552466392517
1783170467609262800,4.025262939453125,0.5588103532791138,-1.1502892971038818,0.504335880279541
1783170467619333000,4.0353330078125,0.6332740187644958,-1.1856943368911743,0.5000897645950317
1783170467629401900,4.04540185546875,0.6831957697868347,-1.1645339727401733,0.441834419965744
1783170467639472000,4.05547216796875,0.7229090332984924,-1.1196779012680054,0.35448139905929565
1783170467649542000,4.0655419921875,0.7486205101013184,-1.0607548952102661,0.2783117890357971
1783170467659611000,4.07561083984375,0.7749825716018677,-0.9892475008964539,0.21289299428462982
1783170467669681000,4.085680908203125,0.7865971922874451,-0.9283545613288879,0.18884626030921936
1783170467679750000,4.09575,0.7902175784111023,-0.8750134706497192,0.20999568700790405
1783170467689820000,4.10581982421875,0.778509259223938,-0.8331531286239624,0.25047972798347473
1783170467699890000,4.115889892578125,0.7499555349349976,-0.8066296577453613,0.3092055022716522
1783170467709959000,4.125958984375,0.7164084911346436,-0.7737531661987305,0.3771422207355499
1783170467720029000,4.13602880859375,0.678103506565094,-0.7887364625930786,0.4628939628601074
1783170467730099000,4.146098876953125,0.6530897617340088,-0.8518041372299194,0.5640496015548706
1783170467740168000,4.15616796875,0.6504881978034973,-0.9381089210510254,0.6765405535697937
1783170467750238000,4.166238037109375,0.654323160648346,-1.0386048555374146,0.7741885185241699
1783170467760307000,4.176306884765625,0.6481801867485046,-1.1486072540283203,0.8422993421554565
1783170467770377000,4.186376953125,0.6402775645256042,-1.256624460220337,0.9182801246643066
1783170467780447000,4.196447021484375,0.6418931484222412,-1.337273120880127,0.9818247556686401
1783170467790516000,4.206515869140625,0.642805278301239,-1.3921061754226685,1.0194344520568848
1783170467800586000,4.2165859375,0.6417403221130371,-1.4313112497329712,1.0426042079925537
1783170467810655700,4.22665576171875,0.6529053449630737,-1.4458822011947632,1.064571499824524
1783170467820725000,4.23672509765625,0.6690151691436768,-1.4407001733779907,1.066603183746338
1783170467830794800,4.246794677734375,0.6841760277748108,-1.4161421060562134,1.0466352701187134
1783170467840864000,4.256864013671875,0.6889988780021667,-1.3799006938934326,1.0015788078308105
1783170467850934000,4.26693408203125,0.6928495168685913,-1.350160837173462,0.9496508836746216
1783170467861003800,4.277003662109375,0.7084307670593262,-1.334784984588623,0.9007879495620728
1783170467871073000,4.287072998046875,0.7279842495918274,-1.360330581665039,0.8591156005859375
1783170467881142800,4.297142822265625,0.746488094329834,-1.4247483015060425,0.8445615768432617
1783170467891213000,4.307213134765625,0.756350040435791,-1.5280771255493164,0.8613251447677612
1783170467901281800,4.31728173828125,0.758772611618042,-1.6231703758239746,0.8909767866134644
1783170467911351800,4.327351806640625,0.737703263759613,-1.6828696727752686,0.8975577354431152
1783170467921420800,4.3374208984375,0.7046598196029663,-1.7026445865631104,0.8876394629478455
1783170467931490800,4.34749072265625,0.6731341481208801,-1.6891999244689941,0.8729875087738037
1783170467941561000,4.35756103515625,0.6332424283027649,-1.6636492013931274,0.8762314319610596
1783170467951629800,4.3676298828125,0.5834953784942627,-1.6456140279769897,0.8900266289710999
1783170467961699800,4.377699951171875,0.5234379172325134,-1.6458791494369507,0.8905943036079407
1783170467971769900,4.387769775390625,0.4684702754020691,-1.6541112661361694,0.877495527267456
1783170467981838800,4.3978388671875,0.43233931064605713,-1.6589040756225586,0.8724798560142517
1783170467991909000,4.4079091796875,0.4198125898838043,-1.6860533952713013,0.8864462971687317
1783170468001979000,4.417978759765625,0.40898963809013367,-1.7277162075042725,0.933384895324707
1783170468012048100,4.428048095703125,0.37988847494125366,-1.764116883277893,0.9718760848045349
1783170468022117600,4.43811767578125,0.3332059979438782,-1.7837108373641968,0.9740228056907654
1783170468032186600,4.4481865234375,0.30540764331817627,-1.769727349281311,0.9381377696990967
1783170468042256600,4.458256591796875,0.3029143512248993,-1.7391870021820068,0.9057909250259399
1783170468052326400,4.468326416015625,0.31079572439193726,-1.7108573913574219,0.9332302808761597
1783170468062395600,4.478395751953125,0.31209078431129456,-1.6843533515930176,1.0192044973373413
1783170468072465400,4.48846533203125,0.2704557180404663,-1.6388721466064453,1.1132234334945679
1783170468082535400,4.498535400390625,0.19068455696105957,-1.5671213865280151,1.1565804481506348
1783170468092604400,4.5086044921875,0.08221746981143951,-1.4857605695724487,1.1557650566101074
1783170468102674400,4.51867431640625,-0.037032175809144974,-1.3869457244873047,1.1187623739242554
1783170468112743700,4.52874365234375,-0.13160209357738495,-1.2744463682174683,1.0455254316329956
1783170468122813400,4.5388134765625,-0.18872220814228058,-1.1954967975616455,0.9706852436065674
1783170468132883500,4.548883544921875,-0.21728435158729553,-1.1862612962722778,0.9261473417282104
1783170468142952400,4.558952392578125,-0.23047968745231628,-1.2269575595855713,0.9357200860977173
1783170468153022500,4.5690224609375,-0.23191434144973755,-1.3209260702133179,0.9788861870765686
1783170468163092700,4.5790927734375,-0.21331988275051117,-1.4287993907928467,1.0458382368087769
1783170468173161500,4.589161376953125,-0.19830630719661713,-1.529356598854065,1.0922586917877197
1783170468183231500,4.5992314453125,-0.197241872549057,-1.6216797828674316,1.11582350730896
1783170468193300500,4.609300537109375,-0.1870558112859726,-1.6600404977798462,1.119562029838562
1783170468203370500,4.61937060546875,-0.1610453575849533,-1.6594985723495483,1.1137027740478516
1783170468213440500,4.6294404296875,-0.15168674290180206,-1.650938868522644,1.0934611558914185
1783170468223509500,4.639509521484375,-0.15628428757190704,-1.6378484964370728,1.075195550918579
1783170468233579500,4.64957958984375,-0.18165223300457,-1.6307828426361084,1.063617467880249
1783170468243649500,4.6596494140625,-0.2213902622461319,-1.6430851221084595,1.0889509916305542
1783170468253718500,4.669718505859375,-0.24593821167945862,-1.6725130081176758,1.150388240814209
1783170468263788500,4.67978857421875,-0.2516888976097107,-1.6940659284591675,1.209757924079895
1783170468273857500,4.689857421875,-0.24357397854328156,-1.6796467304229736,1.2425209283828735
1783170468283927600,4.699927490234375,-0.23903357982635498,-1.6267614364624023,1.249476432800293
1783170468293997600,4.70999755859375,-0.25012218952178955,-1.5376056432724,1.232591986656189
1783170468304066300,4.72006640625,-0.2805522084236145,-1.4260121583938599,1.195137619972229
1783170468314136600,4.730136474609375,-0.3299064338207245,-1.3304022550582886,1.1269670724868774
1783170468324206600,4.74020654296875,-0.3932064175605774,-1.2884498834609985,1.0417660474777222
1783170468334275600,4.750275634765625,-0.43799519538879395,-1.273608684539795,0.9708998203277588
1783170468344345600,4.760345703125,-0.45536816120147705,-1.270350694656372,0.9391890168190002
1783170468354414300,4.770414306640625,-0.44871851801872253,-1.2350674867630005,0.9354307651519775
1783170468364484600,4.780484619140625,-0.43020662665367126,-1.1972962617874146,0.934779703617096
1783170468374554400,4.790554443359375,-0.4186437129974365,-1.1526238918304443,0.9253244400024414
1783170468384623600,4.80062353515625,-0.4098183810710907,-1.0757601261138916,0.8733000159263611
1783170468394693600,4.810693603515625,-0.4071861207485199,-0.9962946176528931,0.8195185661315918
1783170468404763400,4.820763427734375,-0.40557706356048584,-0.9429890513420105,0.7747278213500977
1783170468414832600,4.83083251953125,-0.395477831363678,-0.9103735685348511,0.7454594373703003
1783170468424902400,4.84090234375,-0.39008229970932007,-0.8988425135612488,0.7203545570373535
1783170468434971600,4.8509716796875,-0.3814230263233185,-0.9050346612930298,0.6951916813850403
1783170468445041400,4.86104150390625,-0.3754837214946747,-0.924562394618988,0.6673484444618225
1783170468455111400,4.871111328125,-0.37325891852378845,-0.9329063296318054,0.632925808429718
1783170468465180400,4.881180419921875,-0.36442169547080994,-0.9251275062561035,0.5904099941253662
1783170468475250400,4.89125048828125,-0.34739983081817627,-0.8854104280471802,0.5476601123809814
1783170468485319700,4.901319580078125,-0.33122631907463074,-0.8323222994804382,0.5153535604476929
1783170468495389400,4.911389404296875,-0.31675446033477783,-0.7636050581932068,0.4930245280265808
1783170468505459500,4.92145947265625,-0.29514971375465393,-0.6780045628547668,0.4643804728984833
1783170468515528400,4.931528564453125,-0.26838254928588867,-0.5937722325325012,0.4232495427131653
1783170468525598500,4.941598388671875,-0.2446054369211197,-0.5339634418487549,0.36807334423065186
1783170468535668700,4.951668701171875,-0.22518140077590942,-0.5019346475601196,0.31877025961875916
1783170468545737500,4.961737548828125,-0.20272716879844666,-0.4845716953277588,0.27343013882637024
1783170468555807500,4.971807373046875,-0.16976335644721985,-0.48074471950531006,0.24984730780124664
1783170468565876500,4.98187646484375,-0.13218466937541962,-0.484599232673645,0.24192124605178833
1783170468575946500,4.991946533203125,-0.09210249781608582,-0.4874240458011627,0.24437855184078217
1783170468586016500,5.0020166015625,-0.04959200695157051,-0.46257156133651733,0.2448510080575943
1783170468596085500,5.01208544921875,-0.011215590871870518,-0.40129223465919495,0.23372910916805267
1783170468606155500,5.022155517578125,0.024901920929551125,-0.31412869691848755,0.21427161991596222
1783170468616225500,5.0322255859375,0.055228669196367264,-0.23832477629184723,0.2121799737215042
1783170468626294500,5.04229443359375,0.0734727680683136,-0.19114141166210175,0.21295437216758728
1783170468636364500,5.052364501953125,0.08456563204526901,-0.18368828296661377,0.22519958019256592
1783170468646433500,5.06243359375,0.08778174966573715,-0.22108452022075653,0.23506085574626923
1783170468656503600,5.072503662109375,0.09555312246084213,-0.27704232931137085,0.24814710021018982
1783170468666573600,5.082573486328125,0.0853436067700386,-0.3419026732444763,0.2475370466709137
1783170468676642300,5.092642333984375,0.06543887406587601,-0.40550535917282104,0.19770024716854095
1783170468686712600,5.102712646484375,0.07726119458675385,-0.4538906216621399,0.12511438131332397
1783170468696782600,5.112782470703125,0.1237165778875351,-0.4692373275756836,0.05967038869857788
1783170468706851600,5.1228515625,0.20476390421390533,-0.46182775497436523,0.0224881824105978
1783170468716921600,5.132921630859375,0.3068031966686249,-0.43806570768356323,0.03425376117229462
1783170468726990300,5.142990234375,0.3956924080848694,-0.38527441024780273,0.06052231788635254
1783170468737060600,5.153060546875,0.4847288131713867,-0.30484241247177124,0.07320161908864975
1783170468747130400,5.16313037109375,0.5702627301216125,-0.20111720263957977,0.06943117082118988
1783170468757199600,5.17319970703125,0.6318065524101257,-0.07829407602548599,0.05402771383523941
1783170468767269600,5.18326953125,0.6512079834938049,0.027578551322221756,0.04676228016614914
1783170468777338600,5.193338623046875,0.6462901830673218,0.1217212900519371,0.047025132924318314
1783170468787408600,5.20340869140625,0.6290286183357239,0.1920291632413864,0.05454428493976593
1783170468797478400,5.213478515625,0.6070671081542969,0.22761990129947662,0.06698150932788849
1783170468807547600,5.223547607421875,0.594184935092926,0.21776126325130463,0.09143564105033875
1783170468817617400,5.233617431640625,0.5796581506729126,0.15964017808437347,0.13912245631217957
1783170468827687400,5.2436875,0.5587427020072937,0.06466266512870789,0.21039104461669922
1783170468837756400,5.25375634765625,0.5316370129585266,-0.052306029945611954,0.3100976347923279
1783170468847826400,5.263826416015625,0.5089296102523804,-0.1696692854166031,0.4148302674293518
1783170468857895700,5.273895751953125,0.49298256635665894,-0.26162394881248474,0.5043948292732239
1783170468867965400,5.28396533203125,0.47275087237358093,-0.3212587833404541,0.5551359057426453
1783170468878035500,5.294035400390625,0.44739678502082825,-0.34188151359558105,0.569495439529419
1783170468888104400,5.3041044921875,0.40983790159225464,-0.31305453181266785,0.5384386777877808
1783170468898174500,5.314174560546875,0.35835981369018555,-0.25749433040618896,0.4853197932243347
1783170468908244700,5.32424462890625,0.29873210191726685,-0.21400664746761322,0.41952770948410034
1783170468918311700,5.334311767578125,0.24428564310073853,-0.18175284564495087,0.34630995988845825
1783170468928381400,5.34438134765625,0.19488736987113953,-0.1602141261100769,0.282063752412796
1783170468938450700,5.35445068359375,0.15880393981933594,-0.17998863756656647,0.23319661617279053
1783170468948520400,5.3645205078125,0.13305233418941498,-0.20455895364284515,0.2025894671678543
1783170468958589400,5.37458935546875,0.1071310043334961,-0.20165345072746277,0.18400725722312927
1783170468968659500,5.384659423828125,0.08480080217123032,-0.19750170409679413,0.18004480004310608
1783170468978729500,5.3947294921875,0.06431577354669571,-0.16798615455627441,0.1810368299484253
1783170468988798700,5.404798828125,0.02738538384437561,-0.09658574312925339,0.1802416741847992
1783170468998868500,5.414868408203125,-0.006090017035603523,-0.013702046126127243,0.17069609463214874
1783170469008938500,5.4249384765625,-0.019221367314457893,0.04403715953230858,0.1681428998708725
1783170469019007500,5.435007568359375,-0.018612835556268692,0.08624400198459625,0.17861232161521912
1783170469029077500,5.445077392578125,-0.001954643754288554,0.08375273644924164,0.22189609706401825
1783170469039146800,5.455146728515625,0.018297897651791573,0.04790632426738739,0.29147571325302124
1783170469049216800,5.465216796875,0.05691356956958771,-0.017427947372198105,0.3864632248878479
1783170469059286500,5.47528662109375,0.08992451429367065,-0.11968827247619629,0.47953087091445923
1783170469069355800,5.485355712890625,0.13296763598918915,-0.24915556609630585,0.5725183486938477
1783170469079425500,5.495425537109375,0.16539828479290009,-0.4113575220108032,0.6569168567657471
1783170469089495600,5.50549560546875,0.19318488240242004,-0.5756405591964722,0.7361848950386047
1783170469099564500,5.515564453125,0.20891351997852325,-0.7066891193389893,0.8088691830635071
1783170469109634600,5.525634521484375,0.21633292734622955,-0.8163338303565979,0.8635656833648682
1783170469119703600,5.53570361328125,0.21432411670684814,-0.8568947911262512,0.8975468277931213
1783170469129773600,5.545773681640625,0.2127646505832672,-0.8060122728347778,0.8931586146354675
1783170469139843600,5.555843505859375,0.20620687305927277,-0.6995806097984314,0.8534689545631409
1783170469149912600,5.56591259765625,0.22080588340759277,-0.563133716583252,0.7909497618675232
1783170469159982600,5.575982666015625,0.2566498816013336,-0.43700268864631653,0.7057608366012573
1783170469170051600,5.586051513671875,0.3181319832801819,-0.36047276854515076,0.6266884207725525
1783170469180121600,5.59612158203125,0.3848894536495209,-0.3635450005531311,0.5840144753456116
1783170469190191900,5.60619189453125,0.4395374059677124,-0.44746094942092896,0.5723831057548523
1783170469200260600,5.616260498046875,0.48487961292266846,-0.5614599585533142,0.5804814696311951
1783170469210330600,5.62633056640625,0.5177821516990662,-0.6556198596954346,0.5923048853874207
1783170469220400600,5.636400634765625,0.5402791500091553,-0.7056989669799805,0.5961808562278748
1783170469230469600,5.6464697265625,0.5589428544044495,-0.7042474746704102,0.5731372833251953
1783170469240539600,5.65653955078125,0.5725257396697998,-0.6685112714767456,0.5246691107749939
1783170469250608600,5.666608642578125,0.5831230282783508,-0.6302868127822876,0.47179552912712097
1783170469260678700,5.6766787109375,0.5884261727333069,-0.6035686135292053,0.4393528997898102
1783170469270748700,5.686748779296875,0.5951614379882812,-0.5987012982368469,0.4382297396659851
1783170469280817700,5.696817626953125,0.604900598526001,-0.630658745765686,0.45971396565437317
1783170469290887700,5.7068876953125,0.6067825555801392,-0.6915889978408813,0.4852202534675598
1783170469300956700,5.716956787109375,0.6082230806350708,-0.7645189166069031,0.5058102607727051
1783170469311026700,5.727026611328125,0.6131899356842041,-0.8448960185050964,0.5254110097885132
1783170469321096700,5.7370966796875,0.6226342916488647,-0.9375631213188171,0.5425947904586792
1783170469331165400,5.74716552734375,0.6404221057891846,-1.0283010005950928,0.5635956525802612
1783170469341235700,5.757235595703125,0.6606416702270508,-1.1120312213897705,0.5791045427322388
1783170469351305700,5.7673056640625,0.6722931861877441,-1.1953537464141846,0.6086233258247375
1783170469361374700,5.777374755859375,0.6721147894859314,-1.2500745058059692,0.6569746136665344
1783170469371444700,5.78744482421875,0.6536926031112671,-1.2711803913116455,0.7166047096252441
1783170469381513500,5.797513427734375,0.6059642434120178,-1.2864125967025757,0.759502649307251
1783170469391583700,5.807583740234375,0.5352759957313538,-1.3150895833969116,0.7795902490615845
1783170469401653500,5.817653564453125,0.4636119306087494,-1.3505103588104248,0.7816480994224548
1783170469411722800,5.82772265625,0.43248212337493896,-1.400022029876709,0.7478177547454834
1783170469421792800,5.837792724609375,0.4677969515323639,-1.4692045450210571,0.7108581066131592
1783170469431861800,5.84786181640625,0.5384477972984314,-1.5417875051498413,0.7093549370765686
1783170469441931800,5.857931884765625,0.594743549823761,-1.5687354803085327,0.7422292828559875
1783170469452001500,5.86800146484375,0.593450129032135,-1.5825004577636719,0.7649480104446411
1783170469462070800,5.87807080078125,0.5428170561790466,-1.621712327003479,0.8006415367126465
1783170469472140500,5.888140625,0.4614255428314209,-1.645275592803955,0.8456994891166687
1783170469482209800,5.898209716796875,0.3602360785007477,-1.6129162311553955,0.8642891645431519
1783170469492279600,5.908279541015625,0.27163422107696533,-1.527982234954834,0.8362730145454407
1783170469502349600,5.918349609375,0.22378680109977722,-1.434428095817566,0.8043960332870483
1783170469512418800,5.928418701171875,0.21579015254974365,-1.380735993385315,0.787467360496521
1783170469522488600,5.938488525390625,0.21973907947540283,-1.392927885055542,0.8179829120635986
1783170469532558600,5.94855859375,0.2504718601703644,-1.4758485555648804,0.8845940828323364
1783170469542627600,5.958627685546875,0.2726306915283203,-1.6085402965545654,0.9713393449783325
1783170469552697600,5.968697509765625,0.26739948987960815,-1.7612758874893188,1.0692046880722046
1783170469562766600,5.9787666015625,0.22709065675735474,-1.9120163917541504,1.1669671535491943
1783170469572836600,5.988836669921875,0.1644221991300583,-2.0155625343322754,1.2196688652038574
1783170469582906600,5.99890673828125,0.08858948945999146,-2.0550918579101562,1.2117552757263184
1783170469592975600,6.0089755859375,0.01598948799073696,-2.0500400066375732,1.164229154586792
1783170469603045600,6.019045654296875,-0.0437055341899395,-2.0116288661956787,1.0909565687179565
1783170469613114600,6.029114501953125,-0.09188304841518402,-1.9603793621063232,1.0147407054901123
1783170469623184600,6.0391845703125,-0.13291144371032715,-1.9012621641159058,0.9571062326431274
1783170469633254700,6.049254638671875,-0.15246301889419556,-1.8683993816375732,0.9223973751068115
1783170469643323600,6.05932373046875,-0.15410058200359344,-1.83554208278656,0.9182984828948975
1783170469653393700,6.0693935546875,-0.1288229525089264,-1.7867610454559326,0.9461357593536377
1783170469663463700,6.079463623046875,-0.09724610298871994,-1.7342957258224487,0.9869127869606018
1783170469673532700,6.08953271484375,-0.06325455754995346,-1.665619969367981,1.0093897581100464
1783170469683602700,6.099602783203125,-0.04838345944881439,-1.5851621627807617,1.0071393251419067
1783170469693671700,6.109671630859375,-0.05721263960003853,-1.5141963958740234,1.0084635019302368
1783170469703741400,6.119741455078125,-0.07400920242071152,-1.4644994735717773,1.0313459634780884
1783170469713811700,6.129811767578125,-0.07841343432664871,-1.414805293083191,1.0736289024353027
1783170469723880400,6.13988037109375,-0.077327661216259,-1.3645216226577759,1.098722219467163
1783170469733950700,6.14995068359375,-0.08254597336053848,-1.297588586807251,1.088180422782898
1783170469744019700,6.160019775390625,-0.07996350526809692,-1.236185908317566,1.059791922569275
1783170469754089500,6.17008935546875,-0.0727202519774437,-1.190844178199768,1.0251901149749756
1783170469764159700,6.18015966796875,-0.05970006436109543,-1.1804474592208862,0.9986605048179626
1783170469774228500,6.190228515625,-0.044518131762742996,-1.1974332332611084,0.9803395867347717
1783170469784298800,6.200298828125,-0.04269679635763168,-1.2434422969818115,0.9590534567832947
1783170469794367500,6.210367431640625,-0.05760350450873375,-1.3048744201660156,0.9455513954162598
1783170469804437800,6.220437744140625,-0.06628195196390152,-1.3398833274841309,0.9426872134208679
1783170469814507800,6.2305078125,-0.07102952152490616,-1.3364144563674927,0.9307147264480591
1783170469824576500,6.240576416015625,-0.06923055648803711,-1.2650350332260132,0.9044602513313293
1783170469834646800,6.250646728515625,-0.05907200649380684,-1.1587198972702026,0.8572587370872498
1783170469844716500,6.260716552734375,-0.04221180081367493,-1.0585061311721802,0.8159928321838379
1783170469854785800,6.270785888671875,-0.015339838340878487,-1.0000979900360107,0.7818602323532104
1783170469864855600,6.28085546875,0.02085891179740429,-0.9682418704032898,0.7758598923683167
1783170469874924500,6.290924560546875,0.05161206051707268,-0.9777817726135254,0.7929271459579468
1783170469884994800,6.300994873046875,0.06371240317821503,-1.0413572788238525,0.8244912028312683
1783170469895064600,6.311064697265625,0.07102417945861816,-1.1406346559524536,0.8695970773696899
1783170469905133800,6.3211337890625,0.08489365130662918,-1.2275309562683105,0.9131290912628174
1783170469915203600,6.33120361328125,0.11528148502111435,-1.28152596950531,0.9422973990440369
1783170469925272600,6.3412724609375,0.14810174703598022,-1.302985429763794,0.9508240222930908
1783170469935342600,6.351342529296875,0.186476469039917,-1.301485300064087,0.9607611298561096
1783170469945412600,6.36141259765625,0.21517015993595123,-1.2848209142684937,0.9706771373748779
1783170469955481600,6.371481689453125,0.22701886296272278,-1.268005132675171,0.9857043623924255
1783170469965551600,6.381551513671875,0.2267695963382721,-1.2657618522644043,1.0007456541061401
1783170469975621600,6.39162158203125,0.22248762845993042,-1.284514307975769,1.007605791091919
1783170469985690600,6.401690673828125,0.2112850397825241,-1.3202195167541504,1.017299771308899
1783170469995760600,6.4117607421875,0.19947971403598785,-1.36129891872406,1.0314233303070068
1783170470005829600,6.42182958984375,0.18513673543930054,-1.4050194025039673,1.0474454164505005
1783170470015899600,6.431899658203125,0.16570506989955902,-1.4325008392333984,1.0485048294067383
1783170470025969700,6.4419697265625,0.1411171704530716,-1.4399720430374146,1.0427489280700684
1783170470036038700,6.45203857421875,0.11575397849082947,-1.42057204246521,1.023950219154358
1783170470046108700,6.462108642578125,0.10233218222856522,-1.3860268592834473,0.9992159008979797
1783170470056177700,6.472177734375,0.09414008259773254,-1.337282657623291,0.9692524075508118
1783170470066247700,6.48224755859375,0.08303923159837723,-1.2851572036743164,0.9328973293304443
1783170470076317400,6.4923173828125,0.07694776356220245,-1.2120026350021362,0.8825860023498535
1783170470086386700,6.50238671875,0.0624132938683033,-1.1367502212524414,0.8222030401229858
1783170470096456400,6.51245654296875,0.03422202169895172,-1.0797172784805298,0.7611086368560791
1783170470106525700,6.522525634765625,-0.0010238499380648136,-1.0370526313781738,0.6966739892959595
1783170470116595700,6.532595703125,-0.04105617105960846,-0.9978219866752625,0.6249276399612427
1783170470126665500,6.54266552734375,-0.06227383762598038,-0.9673314094543457,0.5620331168174744
1783170470136734700,6.552734619140625,-0.06317615509033203,-0.9252476096153259,0.5061162114143372
1783170470146804500,6.562804443359375,-0.027894064784049988,-0.8469608426094055,0.4814630448818207
1783170470156874800,6.572874755859375,0.02498050220310688,-0.7330837845802307,0.48376184701919556
1783170470166943500,6.582943603515625,0.06958365440368652,-0.631013035774231,0.4627186059951782
1783170470177013800,6.593013671875,0.09405682235956192,-0.5486762523651123,0.4060361683368683
1783170470187082500,6.60308251953125,0.12644538283348083,-0.4665941596031189,0.35488030314445496
1783170470197152500,6.613152587890625,0.18098868429660797,-0.40198907256126404,0.34046700596809387
1783170470207222800,6.623222900390625,0.2571689486503601,-0.356975257396698,0.37725403904914856
1783170470217291500,6.63329150390625,0.33653131127357483,-0.33673298358917236,0.46391040086746216
1783170470227361800,6.64336181640625,0.41367802023887634,-0.36162155866622925,0.5763517618179321
1783170470237430500,6.653430419921875,0.4776018261909485,-0.40778836607933044,0.696439266204834
1783170470247500500,6.66350048828125,0.5132719874382019,-0.44807717204093933,0.7947099208831787
1783170470257570800,6.67357080078125,0.5093104243278503,-0.47260916233062744,0.8652861714363098
1783170470267639600,6.6836396484375,0.4953594505786896,-0.4893511235713959,0.9081425070762634
1783170470277709800,6.693709716796875,0.48099127411842346,-0.5116599202156067,0.922184944152832
1783170470287778600,6.703778564453125,0.4656029939651489,-0.5185806751251221,0.928309977054596
1783170470297848600,6.7138486328125,0.435356080532074,-0.5150784850120544,0.9265736937522888
1783170470307918600,6.723918701171875,0.40064311027526855,-0.4965437054634094,0.9009588956832886
1783170470317987600,6.733987548828125,0.36009839177131653,-0.4802335500717163,0.8449683785438538
1783170470328057600,6.7440576171875,0.3242192268371582,-0.4357462227344513,0.7665939331054688
1783170470338126600,6.754126708984375,0.2963235080242157,-0.36724749207496643,0.6653145551681519
1783170470348196900,6.76419677734375,0.2630177438259125,-0.28817638754844666,0.5417832732200623
1783170470358266600,6.7742666015625,0.24231365323066711,-0.21871207654476166,0.40470948815345764
1783170470368335600,6.784335693359375,0.22906894981861115,-0.1728183478116989,0.27370086312294006
1783170470378405600,6.794405517578125,0.22504985332489014,-0.1366889625787735,0.1462327092885971
1783170470388475600,6.8044755859375,0.22520272433757782,-0.10503409802913666,0.023497996851801872
1783170470398544600,6.814544677734375,0.22134052217006683,-0.11358669400215149,-0.05934053659439087
1783170470408614700,6.82461474609375,0.23266029357910156,-0.14002203941345215,-0.06994311511516571
1783170470418683600,6.83468359375,0.24071364104747772,-0.19132106006145477,-0.044119805097579956
1783170470428753700,6.844753662109375,0.24450784921646118,-0.24147184193134308,0.000026886118575930595
1783170470438823700,6.85482373046875,0.253910630941391,-0.25587499141693115,0.04098621383309364
1783170470448892700,6.864892578125,0.26679474115371704,-0.26047641038894653,0.05840914696455002
1783170470458962700,6.874962646484375,0.2864541709423065,-0.25299638509750366,0.07406629621982574
1783170470469031700,6.88503173828125,0.2996176481246948,-0.23349033296108246,0.09711169451475143
1783170470479101700,6.895101806640625,0.29838088154792786,-0.20370090007781982,0.13225920498371124
1783170470489171700,6.905171630859375,0.29112350940704346,-0.16404296457767487,0.18510350584983826
1783170470499240700,6.91524072265625,0.275802880525589,-0.1301177591085434,0.24540120363235474
1783170470509310700,6.925310791015625,0.27492403984069824,-0.11986937373876572,0.3027345538139343
1783170470519379700,6.935379638671875,0.29114219546318054,-0.12445733696222305,0.36655694246292114
1783170470529449700,6.94544970703125,0.3057655990123749,-0.13503088057041168,0.41888272762298584
1783170470539519500,6.95551953125,0.33519047498703003,-0.14970862865447998,0.4501015245914459
1783170470549588700,6.965588623046875,0.37609344720840454,-0.15240055322647095,0.46092087030410767
1783170470559658500,6.975658447265625,0.40741270780563354,-0.15547330677509308,0.4635615646839142
1783170470569728500,6.985728515625,0.42558690905570984,-0.18604452908039093,0.48679766058921814
1783170470579797800,6.9957978515625,0.41974136233329773,-0.2300436943769455,0.5204784274101257
1783170470589867500,7.005867431640625,0.40214160084724426,-0.2460024207830429,0.5428223013877869
1783170470599936800,7.015936767578125,0.3789209723472595,-0.23732663691043854,0.5206395387649536
1783170470610006500,7.026006591796875,0.3841184079647064,-0.1985779106616974,0.45864567160606384
1783170470620076500,7.03607666015625,0.42169177532196045,-0.15425877273082733,0.3885739743709564
1783170470630145500,7.0461455078125,0.4640008807182312,-0.15100997686386108,0.3248666226863861
1783170470640215600,7.056215576171875,0.500558614730835,-0.17222566902637482,0.2956351339817047
1783170470650284500,7.066284423828125,0.5097776651382446,-0.21099437773227692,0.2865140736103058
1783170470660354600,7.0763544921875,0.5029539465904236,-0.25352942943573,0.2734529972076416
1783170470670424600,7.086424560546875,0.4813658595085144,-0.2622976303100586,0.2514832317829132
1783170470680493600,7.09649365234375,0.44885900616645813,-0.2118895798921585,0.23583388328552246
1783170470690563600,7.1065634765625,0.4056854546070099,-0.12832197546958923,0.20893462002277374
1783170470700632600,7.116632568359375,0.3733847439289093,-0.04508540779352188,0.15068106353282928
1783170470710702600,7.12670263671875,0.3548896014690399,0.026962952688336372,0.0727686882019043
1783170470720772900,7.13677294921875,0.3621031939983368,0.07376840710639954,0.0029696791898459196
1783170470730841600,7.146841552734375,0.3657029867172241,0.08567912876605988,-0.0454428605735302
1783170470740911600,7.15691162109375,0.35363101959228516,0.059409577399492264,-0.0721878632903099
1783170470750980600,7.166980712890625,0.3404686152935028,0.013105461373925209,-0.08481311053037643
1783170470761050600,7.177050537109375,0.3368464410305023,-0.03744799643754959,-0.07861045002937317
1783170470771120600,7.18712060546875,0.3349694311618805,-0.08106471598148346,-0.05634375289082527
1783170470781189600,7.197189697265625,0.3261054456233978,-0.10928995907306671,-0.032693617045879364
1783170470791259600,7.207259765625,0.3096148669719696,-0.11656039208173752,-0.01127807330340147
1783170470801328600,7.21732861328125,0.28821393847465515,-0.11190226674079895,-0.004533735103905201
1783170470811398700,7.227398681640625,0.2599535286426544,-0.10005839169025421,-0.001278287498280406
1783170470821468700,7.23746875,0.2302941530942917,-0.10194483399391174,0.004488087259232998
1783170470831537700,7.24753759765625,0.19658918678760529,-0.10654518008232117,0.03147070109844208
1783170470841607700,7.257607666015625,0.1625952124595642,-0.1181819885969162,0.06691576540470123
1783170470851677700,7.267677734375,0.12192236632108688,-0.11616970598697662,0.09946198761463165
1783170470861746400,7.277746337890625,0.055384498089551926,-0.09212096780538559,0.11419010907411575
1783170470871816700,7.287816650390625,-0.043242476880550385,-0.033790018409490585,0.10492336750030518
1783170470881885400,7.297885498046875,-0.15079808235168457,0.030896708369255066,0.059097353368997574
1783170470891955700,7.307955810546875,-0.24016471207141876,0.08064348995685577,-0.010662020184099674
1783170470902025700,7.318025634765625,-0.2918292284011841,0.107392817735672,-0.08417432010173798
1783170470912094700,7.3280947265625,-0.31001490354537964,0.10153491795063019,-0.14178994297981262
1783170470922164700,7.338164794921875,-0.3086969256401062,0.059769488871097565,-0.17620404064655304
1783170470932233500,7.3482333984375,-0.2967579662799835,0.019590109586715698,-0.20404259860515594
1783170470942303700,7.3583037109375,-0.27761417627334595,-0.003167390823364258,-0.20365369319915771
1783170470952373800,7.368373779296875,-0.26919353008270264,-0.02483726665377617,-0.1925182193517685
1783170470962442800,7.37844287109375,-0.29395076632499695,-0.062264662235975266,-0.1460043340921402
1783170470972512800,7.3885126953125,-0.3512239158153534,-0.08073209226131439,-0.07733738422393799
1783170470982581500,7.39858154296875,-0.4341083765029907,-0.037199005484580994,-0.044649139046669006
1783170470992651800,7.40865185546875,-0.520011305809021,0.06622059643268585,-0.05538700520992279
1783170471002721500,7.418721435546875,-0.5889582633972168,0.20315329730510712,-0.06820589303970337
1783170471012790800,7.428790771484375,-0.6346895694732666,0.3332021236419678,-0.04545290395617485
1783170471022859800,7.43885986328125,-0.6720200181007385,0.4211866557598114,0.03338244557380676
1783170471032929000,7.448928955078125,-0.6893684267997742,0.4461918771266937,0.15824635326862335
1783170471042999000,7.4589990234375,-0.6946006417274475,0.412319153547287,0.31370416283607483
1783170471053068800,7.46906884765625,-0.7030367255210876,0.33193618059158325,0.45714494585990906
1783170471063138000,7.479137939453125,-0.7318059802055359,0.23940369486808777,0.5479760766029358
1783170471073207800,7.489207763671875,-0.779313325881958,0.13327352702617645,0.5841314196586609
1783170471083277000,7.499277099609375,-0.8370352387428284,0.02451762929558754,0.567052960395813
1783170471093346800,7.509346923828125,-0.8826583623886108,-0.07333356142044067,0.5253769159317017
1783170471103416800,7.519416748046875,-0.904253363609314,-0.15850704908370972,0.49669185280799866
1783170471113485800,7.52948583984375,-0.881916344165802,-0.24462488293647766,0.4841952323913574
1783170471123555800,7.539555908203125,-0.8304834365844727,-0.3097273111343384,0.477385938167572
1783170471133625000,7.549625,-0.7470380663871765,-0.3905542492866516,0.4821876287460327
1783170471143694800,7.55969482421875,-0.629885733127594,-0.4527031183242798,0.5257137417793274
1783170471153764900,7.569764892578125,-0.5355704426765442,-0.4654889404773712,0.5628185272216797
1783170471163833900,7.579833740234375,-0.4757992923259735,-0.44867801666259766,0.5579407215118408
1783170471173904000,7.58990380859375,-0.47163864970207214,-0.43280503153800964,0.5430011749267578
1783170471183974100,7.59997412109375,-0.4887406527996063,-0.40802299976348877,0.4867674708366394
1783170471194043000,7.61004296875,-0.5212147235870361,-0.3345988392829895,0.41553083062171936
1783170471204113000,7.62011279296875,-0.5514591336250305,-0.27709293365478516,0.36438679695129395
1783170471214182000,7.630181884765625,-0.5853797793388367,-0.2701881527900696,0.3665887117385864
1783170471224252000,7.640251953125,-0.6056061387062073,-0.29840487241744995,0.4136028587818146
1783170471234322000,7.650322021484375,-0.5958682894706726,-0.38050827383995056,0.47545528411865234
1783170471244391000,7.660390869140625,-0.5472444295883179,-0.49389728903770447,0.5223470330238342
1783170471254461000,7.6704609375,-0.4721403121948242,-0.6192285418510437,0.5827512741088867
1783170471264530000,7.680530029296875,-0.37874361872673035,-0.712591826915741,0.6447485685348511
1783170471274600000,7.690599853515625,-0.2811558246612549,-0.7772954702377319,0.6985558867454529
1783170471284670000,7.700669921875,-0.2155701369047165,-0.7658835649490356,0.7165428996086121
1783170471294739000,7.710739013671875,-0.18091095983982086,-0.6960482597351074,0.6765060424804688
1783170471304809000,7.72080908203125,-0.15960246324539185,-0.5695267915725708,0.5993598699569702
1783170471314878000,7.7308779296875,-0.1367536038160324,-0.4653988182544708,0.5255995988845825
1783170471324947700,7.74094775390625,-0.11055735498666763,-0.30442938208580017,0.4506528973579407
1783170471335018000,7.75101806640625,-0.10163123160600662,-0.20801015198230743,0.4004499316215515
1783170471345086700,7.761086669921875,-0.08369479328393936,-0.19366677105426788,0.4141681492328644
1783170471355157000,7.771156982421875,-0.04907742887735367,-0.19396796822547913,0.43408671021461487
1783170471365226000,7.78122607421875,-0.014761368744075298,-0.19321881234645844,0.4323314130306244
1783170471375296000,7.7912958984375,0.04237036034464836,-0.15213502943515778,0.40119531750679016
1783170471385366000,7.801365966796875,0.07758111506700516,-0.051414553076028824,0.3032741844654083
1783170471395434800,7.811434814453125,0.08430106937885284,0.04999462515115738,0.19136229157447815
1783170471405505000,7.821505126953125,0.10174966603517532,0.10396519303321838,0.09582462161779404
1783170471415573800,7.83157373046875,0.11876913160085678,0.1071348786354065,0.02194293960928917
1783170471425644000,7.84164404296875,0.13927042484283447,0.07790681719779968,-0.027994340285658836
1783170471435714000,7.851714111328125,0.17687824368476868,0.03706618398427963,-0.05529467388987541
1783170471445782800,7.86178271484375,0.2274438887834549,-0.015364005230367184,-0.058460306376218796
1783170471455853000,7.87185302734375,0.2632916569709778,-0.07944897562265396,-0.044082701206207275
1783170471465921800,7.881921875,0.3098191022872925,-0.10976614058017731,-0.043102167546749115
1783170471475992000,7.891991943359375,0.356138676404953,-0.1183207556605339,-0.06336056441068649
1783170471486061800,7.902061767578125,0.38660553097724915,-0.128223717212677,-0.08536403626203537
1783170471496130800,7.912130859375,0.4002675414085388,-0.12441272288560867,-0.14830012619495392
1783170471506201000,7.922201171875,0.4010207951068878,-0.07124631106853485,-0.244241863489151
1783170471516269800,7.932269775390625,0.40108150243759155,-0.004014275968074799,-0.3525814116001129
1783170471526340000,7.942340087890625,0.4028671681880951,0.06714272499084473,-0.4448665976524353
1783170471536409900,7.952409912109375,0.4149951934814453,0.14599305391311646,-0.5264056324958801
1783170471546479000,7.96247900390625,0.4169914722442627,0.2554778754711151,-0.6042687892913818
1783170471556548900,7.972548828125,0.40198054909706116,0.3786032795906067,-0.6555296182632446
1783170471566619000,7.982618896484375,0.3704613149166107,0.5063998699188232,-0.6934517025947571
1783170471576687900,7.99268798828125,0.300392210483551,0.6113994717597961,-0.7527296543121338
1783170471586758000,8.0027578125,0.14806795120239258,0.6609746217727661,-0.858794093132019
1783170471596827100,8.0128271484375,-0.007327753119170666,0.6779400706291199,-1.0104557275772095
1783170471606897000,8.02289697265625,-0.04188305139541626,0.6870260834693909,-1.1417087316513062
1783170471616967000,8.032966796875,0.02508772723376751,0.6732242703437805,-1.183872938156128
1783170471627036000,8.043035888671875,0.13114701211452484,0.6166174411773682,-1.14736008644104
1783170471637106000,8.05310595703125,0.22257785499095917,0.5084031224250793,-1.0600075721740723
1783170471647175000,8.0631748046875,0.29096150398254395,0.4889530837535858,-0.9874283671379089
1783170471657245000,8.073244873046875,0.37630701065063477,0.5232332348823547,-0.9306691884994507
1783170471667315000,8.08331494140625,0.4506385922431946,0.561708927154541,-0.9048553705215454
1783170471677384000,8.093384033203124,0.5072643160820007,0.6210702657699585,-0.896436333656311
1783170471687454000,8.103453857421876,0.5380541086196899,0.687347948551178,-0.8828222155570984
1783170471697523000,8.11352294921875,0.5433061718940735,0.699380099773407,-0.8502823710441589
1783170471707593000,8.123593017578125,0.5253469347953796,0.6837559938430786,-0.7916567921638489
1783170471717662700,8.133662841796875,0.4907365143299103,0.689712405204773,-0.7184169292449951
1783170471727732000,8.14373193359375,0.4265114963054657,0.7152549028396606,-0.6339641213417053
1783170471737802000,8.153802001953125,0.3361571133136749,0.7546771764755249,-0.5464233160018921
1783170471747871000,8.16387109375,0.22778677940368652,0.7950474619865417,-0.47795262932777405
1783170471757941000,8.17394091796875,0.11737027019262314,0.8216527104377747,-0.4142223596572876
1783170471768010800,8.1840107421875,0.03343275934457779,0.8414503931999207,-0.3698471784591675
1783170471778080000,8.194080078125,-0.03823317214846611,0.8357352614402771,-0.3395579755306244
1783170471788149800,8.204149658203125,-0.10756950080394745,0.8012915253639221,-0.32763540744781494
1783170471798219000,8.214218994140625,-0.18846409022808075,0.7718787789344788,-0.34074267745018005
1783170471808288800,8.224288818359375,-0.2935815155506134,0.7387104034423828,-0.3982488214969635
1783170471818358800,8.23435888671875,-0.40033113956451416,0.7450836300849915,-0.49976322054862976
1783170471828428000,8.244427978515626,-0.509581446647644,0.7853060364723206,-0.6562296748161316
1783170471838497800,8.254497802734376,-0.6099397540092468,0.8894510865211487,-0.8703083992004395
1783170471848567000,8.264567138671875,-0.6636615991592407,1.0076029300689697,-1.1017478704452515
1783170471858636800,8.27463671875,-0.7036910653114319,1.1187243461608887,-1.3146204948425293
1783170471868706800,8.284706787109375,-0.726688027381897,1.224281907081604,-1.4862173795700073
1783170471878775800,8.29477587890625,-0.7412959933280945,1.361247181892395,-1.5826771259307861
1783170471888845800,8.304845703125,-0.7417417764663696,1.474635124206543,-1.5963151454925537
1783170471898914800,8.314914794921876,-0.7210692167282104,1.5547133684158325,-1.565517544746399
1783170471908984800,8.32498486328125,-0.6918257474899292,1.6279737949371338,-1.5011539459228516
1783170471919055000,8.33505517578125,-0.6639898419380188,1.6907790899276733,-1.4258877038955688
1783170471929123800,8.345123779296875,-0.6283369660377502,1.7430355548858643,-1.362027883529663
1783170471939193900,8.35519384765625,-0.5929709672927856,1.757845401763916,-1.3113945722579956
1783170471949262800,8.365262939453125,-0.5537551045417786,1.7355282306671143,-1.2622666358947754
1783170471959332900,8.375332763671874,-0.5006197094917297,1.6938273906707764,-1.2073708772659302
1783170471969403100,8.385403076171874,-0.43740901350975037,1.63982093334198,-1.1499372720718384
1783170471979472000,8.395471923828126,-0.3749504089355469,1.5766541957855225,-1.0944304466247559
1783170471989542000,8.4055419921875,-0.32145702838897705,1.5040994882583618,-1.0699273347854614
1783170471999611000,8.41561083984375,-0.26567232608795166,1.4531053304672241,-1.0656508207321167
1783170472009681000,8.425680908203125,-0.20697148144245148,1.3996562957763672,-1.0628914833068848
1783170472019751000,8.4357509765625,-0.156761035323143,1.3561029434204102,-1.0479559898376465
1783170472029820700,8.445820556640625,-0.11465109884738922,1.3280616998672485,-1.0264047384262085
1783170472039890400,8.455890380859374,-0.07747523486614227,1.312699556350708,-1.0159430503845215
1783170472049959700,8.465959716796876,-0.03718225285410881,1.3148376941680908,-1.0160545110702515
1783170472060029700,8.47602978515625,0.005241368431597948,1.3407344818115234,-1.0210464000701904
1783170472070099700,8.486099609375,0.04956800118088722,1.3422249555587769,-1.0434309244155884
1783170472080168700,8.496168701171875,0.09613523632287979,1.3039648532867432,-1.0478230714797974
1783170472090238500,8.506238525390625,0.13491208851337433,1.2413554191589355,-1.0360922813415527
1783170472100307700,8.5163076171875,0.16679757833480835,1.1637623310089111,-1.0158027410507202
1783170472110377500,8.52637744140625,0.1893721967935562,1.082646369934082,-1.0111805200576782
1783170472120447700,8.53644775390625,0.2107459306716919,1.0377342700958252,-0.9975551962852478
1783170472130516500,8.5465166015625,0.23029166460037231,1.0178582668304443,-0.9826366305351257
1783170472140586500,8.55658642578125,0.23770298063755035,1.023166298866272,-0.9738932251930237
1783170472150655700,8.56665576171875,0.23116545379161835,1.0599623918533325,-0.9704734683036804
1783170472160725500,8.5767255859375,0.2006930261850357,1.112377643585205,-0.9682497382164001
1783170472170795800,8.586795654296875,0.1663464903831482,1.1600310802459717,-0.9490823745727539
1783170472180864500,8.596864501953124,0.13744106888771057,1.1901754140853882,-0.9182403087615967
1783170472190934800,8.606934814453124,0.11426161229610443,1.2172925472259521,-0.891402006149292
1783170472201003500,8.61700341796875,0.10201825946569443,1.2460315227508545,-0.876681923866272
1783170472211073500,8.627073486328126,0.09565618634223938,1.2607548236846924,-0.863623321056366
1783170472221143800,8.637143798828125,0.0883769690990448,1.2571980953216553,-0.8485956192016602
1783170472231212500,8.647212646484375,0.07439135760068893,1.2334215641021729,-0.8240010142326355
1783170472241282800,8.65728271484375,0.049851395189762115,1.2028263807296753,-0.793552815914154
1783170472251351600,8.6673515625,0.030676286667585373,1.1685353517532349,-0.7651708722114563
1783170472261421600,8.677421630859374,0.01681826077401638,1.1398792266845703,-0.7385861277580261
1783170472271491600,8.68749169921875,0.011709785088896751,1.117201566696167,-0.7293713092803955
1783170472281560600,8.697560546875,0.010120410472154617,1.0914146900177002,-0.7142365574836731
1783170472291630800,8.707630859375,0.008799584582448006,1.0685688257217407,-0.6850088238716125
1783170472301699600,8.717699462890625,-0.016772354021668434,1.0241270065307617,-0.6764347553253174
1783170472311769600,8.72776953125,-0.039899829775094986,0.9579151272773743,-0.6851531863212585
1783170472321839600,8.737839599609375,-0.006711514666676521,0.8767925500869751,-0.667402982711792
1783170472331908600,8.74790869140625,0.047854989767074585,0.7940502762794495,-0.6133681535720825
1783170472341978600,8.757978515625,0.06885241717100143,0.7381327152252197,-0.5622797012329102
1783170472352047600,8.768047607421876,0.05417637154459953,0.7220231890678406,-0.5368313193321228
1783170472362117600,8.77811767578125,0.014677430503070354,0.7396064400672913,-0.5538041591644287
1783170472372187600,8.788187744140625,-0.02502775564789772,0.7947750091552734,-0.6155431270599365
1783170472382256600,8.798256591796875,-0.05802299082279205,0.8409281373023987,-0.6806212067604065
1783170472392326700,8.80832666015625,-0.06754834949970245,0.8187586665153503,-0.7022588849067688
1783170472402395600,8.818395751953124,-0.06871268153190613,0.725225567817688,-0.6737084984779358
1783170472412465700,8.828465576171874,-0.056120775640010834,0.5949802994728088,-0.6143839359283447
1783170472422535700,8.83853564453125,-0.04624604061245918,0.4618765711784363,-0.5466179251670837
1783170472432604700,8.848604736328125,-0.047223787754774094,0.36609065532684326,-0.48759591579437256
1783170472442674700,8.8586748046875,-0.06142589449882507,0.32196953892707825,-0.456180214881897
1783170472452743400,8.868743408203125,-0.08245591074228287,0.32056736946105957,-0.4384081959724426
1783170472462813700,8.878813720703125,-0.1059148982167244,0.3622722029685974,-0.4371897876262665
1783170472472883700,8.8888837890625,-0.14091292023658752,0.44004175066947937,-0.4456219971179962
1783170472482952700,8.89895263671875,-0.19423100352287292,0.5189043283462524,-0.45521923899650574
1783170472493022700,8.909022705078126,-0.25469231605529785,0.5721160173416138,-0.44176918268203735
1783170472503091500,8.919091552734375,-0.30919551849365234,0.6089941263198853,-0.3945654332637787
1783170472513161700,8.92916162109375,-0.33905285596847534,0.6371750235557556,-0.32144826650619507
1783170472523231700,8.939231689453125,-0.3502828776836395,0.6230320334434509,-0.24259820580482483
1783170472533300700,8.94930078125,-0.3589896559715271,0.5552759170532227,-0.16168847680091858
1783170472543370800,8.959370849609375,-0.34483602643013,0.423522412776947,-0.06482452899217606
1783170472553439700,8.969439697265624,-0.3389773964881897,0.25804221630096436,0.04838952049612999
1783170472563509800,8.979509765625,-0.3178686499595642,0.06388393044471741,0.18446266651153564
1783170472573579500,8.98957958984375,-0.2906784415245056,-0.1746913492679596,0.3270210325717926
1783170472583648800,8.999648681640625,-0.2624521255493164,-0.4611375033855438,0.4705131947994232
1783170472593718500,9.009718505859375,-0.24442559480667114,-0.7840349674224854,0.6324832439422607
1783170472603787800,9.019787841796875,-0.242120623588562,-1.0938490629196167,0.7996307015419006
1783170472613857800,9.02985791015625,-0.26233425736427307,-1.3285853862762451,0.9337654113769531
1783170472623927600,9.039927490234374,-0.28719645738601685,-1.4759173393249512,1.013435959815979
1783170472633996800,9.049996826171874,-0.303692489862442,-1.5303415060043335,1.0494840145111084
1783170472644066600,9.060066650390626,-0.3256443738937378,-1.5599122047424316,1.0553487539291382
1783170472654135800,9.0701357421875,-0.3392202854156494,-1.5613139867782593,1.036056637763977
1783170472664205600,9.08020556640625,-0.3511807918548584,-1.5681949853897095,1.0247669219970703
1783170472674275600,9.090275634765625,-0.3624301850795746,-1.6228861808776855,1.0785504579544067
1783170472684344600,9.100344482421875,-0.3867272734642029,-1.7111412286758423,1.1942722797393799
1783170472694414600,9.11041455078125,-0.4053788483142853,-1.8681951761245728,1.3323379755020142
1783170472704483800,9.12048388671875,-0.3765072524547577,-2.005692481994629,1.448885440826416
1783170472714553600,9.1305537109375,-0.2840590476989746,-2.0888869762420654,1.501964807510376
1783170472724623600,9.14062353515625,-0.15006957948207855,-2.0824615955352783,1.5150606632232666
1783170472734692600,9.150692626953125,-0.05950120836496353,-1.962165355682373,1.5049864053726196
1783170472744762600,9.1607626953125,-0.03453860059380531,-1.8013784885406494,1.4710676670074463
1783170472754831600,9.17083154296875,-0.06332738697528839,-1.653263807296753,1.40674889087677
1783170472764901600,9.180901611328125,-0.1095617264509201,-1.5360913276672363,1.3359562158584595
1783170472774971600,9.1909716796875,-0.1437663733959198,-1.4650392532348633,1.2754896879196167
1783170472785040600,9.20104052734375,-0.16132725775241852,-1.4468871355056763,1.2520062923431396
1783170472795110700,9.211110595703126,-0.15794534981250763,-1.4568315744400024,1.2487014532089233
1783170472805179600,9.2211796875,-0.1518046259880066,-1.4563937187194824,1.2473541498184204
1783170472815249700,9.231249755859375,-0.14700046181678772,-1.401161551475525,1.2127695083618164
1783170472825319400,9.2413193359375,-0.13552117347717285,-1.3066387176513672,1.144814133644104
1783170472835388700,9.251388671875,-0.11128684133291245,-1.1976408958435059,1.065488338470459
1783170472845458700,9.261458740234374,-0.06955217570066452,-1.0752301216125488,1.0000693798065186
1783170472855527700,9.271527587890626,-0.016440410166978836,-0.9674443602561951,0.9458048939704895
1783170472865597700,9.28159765625,0.031104207038879395,-0.8966522216796875,0.8944849967956543
1783170472875667500,9.29166748046875,0.04921986162662506,-0.8269444704055786,0.8243497014045715
1783170472885736700,9.30173681640625,0.05661013349890709,-0.7691789269447327,0.7358235716819763
1783170472895806500,9.311806396484375,0.06595796346664429,-0.7370465397834778,0.660868227481842
1783170472905875700,9.321875732421875,0.08355320245027542,-0.7326342463493347,0.6176823973655701
1783170472915945500,9.331945556640624,0.10371971875429153,-0.7626925110816956,0.6085286140441895
1783170472926015500,9.342015380859374,0.13526059687137604,-0.8209060430526733,0.6265656352043152
1783170472936084700,9.352084716796876,0.17704997956752777,-0.8664790987968445,0.6558214426040649
1783170472946154500,9.362154541015625,0.21275605261325836,-0.8756329417228699,0.6663206815719604
1783170472956223700,9.3722236328125,0.23621466755867004,-0.8310590982437134,0.643896222114563
1783170472966293500,9.38229345703125,0.25050148367881775,-0.7601441740989685,0.5902072191238403
1783170472976363800,9.39236376953125,0.25971683859825134,-0.7015308141708374,0.5247001051902771
1783170472986432500,9.4024326171875,0.2737368047237396,-0.657714307308197,0.46990638971328735
1783170472996502500,9.41250244140625,0.290713906288147,-0.6486545205116272,0.4342905879020691
1783170473006571500,9.422571533203126,0.3142924904823303,-0.6647948622703552,0.4220925271511078
1783170473016641500,9.4326416015625,0.3214010000228882,-0.6733149886131287,0.4246116876602173
1783170473026711600,9.442711669921875,0.31480008363723755,-0.6552686095237732,0.41545626521110535
1783170473036780300,9.4527802734375,0.28226107358932495,-0.6470422744750977,0.34795260429382324
1783170473046850600,9.4628505859375,0.2752300798892975,-0.6409848928451538,0.22924913465976715
1783170473056919300,9.472919189453124,0.30660560727119446,-0.623599112033844,0.12283286452293396
1783170473066989300,9.4829892578125,0.36528995633125305,-0.601335346698761,0.05315657705068588
1783170473077059600,9.4930595703125,0.41648614406585693,-0.5974685549736023,0.023231737315654755
1783170473087128300,9.50312841796875,0.4430983364582062,-0.6271263360977173,0.03374136984348297
1783170473097198600,9.513198486328125,0.47307446599006653,-0.6761749386787415,0.06904207170009613
1783170473107267300,9.523267333984375,0.5048198699951172,-0.7210854291915894,0.11330194026231766
1783170473117337300,9.53333740234375,0.546859860420227,-0.752770185470581,0.1569138765335083
1783170473127406300,9.54340625,0.5880861282348633,-0.7865869998931885,0.21276701986789703
1783170473137476400,9.553476318359374,0.6395737528800964,-0.8369042277336121,0.2878541350364685
1783170473147546600,9.563546630859374,0.7062462568283081,-0.9111299514770508,0.36742883920669556
1783170473157615400,9.573615478515626,0.7591384053230286,-1.0073009729385376,0.46116766333580017
1783170473167685600,9.583685546875,0.7716768383979797,-1.091404914855957,0.5771392583847046
1783170473177754400,9.59375439453125,0.7397559285163879,-1.1222699880599976,0.6803763508796692
1783170473187824400,9.603824462890625,0.6656923890113831,-1.114382266998291,0.7724934816360474
1783170473197894400,9.613894287109375,0.5584486126899719,-1.0858944654464722,0.8435752391815186
1783170473207963400,9.62396337890625,0.4384468197822571,-1.053170084953308,0.9117066264152527
1783170473218033400,9.634033447265624,0.2945724129676819,-1.0447372198104858,0.9722419381141663
1783170473228102400,9.644102294921876,0.13708850741386414,-1.0503737926483154,1.0033133029937744
1783170473238172400,9.65417236328125,-0.011180683970451355,-1.0350297689437866,0.99012690782547
1783170473248242400,9.664242431640625,-0.1286705732345581,-1.01632559299469,0.9589402675628662
1783170473258311400,9.6743115234375,-0.21271158754825592,-1.0382798910140991,0.9278425574302673
1783170473268381400,9.68438134765625,-0.2721591889858246,-1.0926142930984497,0.9113043546676636
1783170473278450400,9.694450439453124,-0.31697097420692444,-1.1518429517745972,0.900664746761322
1783170473288520400,9.7045205078125,-0.3468412458896637,-1.2053827047348022,0.8908243775367737
1783170473298590500,9.714590576171876,-0.36347880959510803,-1.2558391094207764,0.8615452647209167
1783170473308659200,9.7246591796875,-0.35552340745925903,-1.2795335054397583,0.8329708576202393
1783170473318729500,9.7347294921875,-0.3198939263820648,-1.2728307247161865,0.8115494251251221
1783170473328798500,9.744798583984375,-0.27026990056037903,-1.2566511631011963,0.789207398891449
1783170473338868500,9.754868408203125,-0.22524826228618622,-1.2469245195388794,0.758931577205658
1783170473348938500,9.7649384765625,-0.18683801591396332,-1.2256925106048584,0.7351285219192505
1783170473359007200,9.77500732421875,-0.14856667816638947,-1.2158501148223877,0.7406622171401978
1783170473369077500,9.785077392578126,-0.10400319844484329,-1.2237825393676758,0.76798415184021
1783170473379146200,9.795146240234375,-0.06141219288110733,-1.2576966285705566,0.8222392797470093
1783170473389216500,9.805216552734375,-0.027525337412953377,-1.2814298868179321,0.8930948376655579
1783170473399286500,9.81528662109375,-0.00293553713709116,-1.2996193170547485,0.9606694579124451
1783170473409355500,9.82535546875,0.01724589616060257,-1.3038904666900635,1.0102707147598267
1783170473419425500,9.835425537109375,0.03409172222018242,-1.2975438833236694,1.0476902723312378
1783170473429494300,9.845494384765624,0.047003526240587234,-1.2945752143859863,1.077640175819397
1783170473439564500,9.855564453125,0.061016909778118134,-1.3281188011169434,1.123980164527893
1783170473449634300,9.86563427734375,0.07336492836475372,-1.3894703388214111,1.1974849700927734
1783170473459703600,9.87570361328125,0.09559369832277298,-1.4697577953338623,1.2970607280731201
1783170473469773600,9.885773681640625,0.11086506396532059,-1.5694500207901,1.4070618152618408
1783170473479842300,9.89584228515625,0.12739549577236176,-1.6774743795394897,1.5239996910095215
1783170473489912600,9.90591259765625,0.14152170717716217,-1.7785767316818237,1.642523169517517
1783170473499982300,9.915982421875,0.15847675502300262,-1.8533583879470825,1.7464464902877808
1783170473510051600,9.926051513671876,0.176531121134758,-1.8928120136260986,1.8225220441818237
1783170473520121300,9.936121337890626,0.19067871570587158,-1.9234563112258911,1.8736051321029663
1783170473530190600,9.946190673828125,0.21379920840263367,-1.9465150833129883,1.9165445566177368
1783170473540260400,9.95626025390625,0.24078944325447083,-1.9809210300445557,1.9479846954345703
1783170473550330400,9.966330322265625,0.27173033356666565,-2.01511287689209,1.9626868963241577
1783170473560399600,9.976399658203125,0.29383212327957153,-2.0564310550689697,1.9871102571487427
1783170473570469400,9.986469482421874,0.31896063685417175,-2.084077835083008,2.002110719680786
1783170473580538600,9.99653857421875,0.3408454656600952,-2.1045494079589844,2.002347707748413
1783170473590608400,10.0066083984375,0.3620535433292389,-2.0980842113494873,1.981614589691162
1783170473600678400,10.016678466796876,0.3748012185096741,-2.0715739727020264,1.9541218280792236
1783170473610747400,10.026747314453125,0.3844674527645111,-2.0107719898223877,1.9132920503616333
1783170473620817400,10.0368173828125,0.3869732916355133,-1.9317374229431152,1.8515630960464478
1783170473630886400,10.046886474609375,0.3754841685295105,-1.8672112226486206,1.7797397375106812
1783170473640956400,10.056956298828124,0.36305105686187744,-1.8282133340835571,1.7216651439666748
1783170473651026400,10.0670263671875,0.36299753189086914,-1.8177926540374756,1.6853283643722534
1783170473661095400,10.077095458984376,0.3608784079551697,-1.8336507081985474,1.683744192123413
1783170473671165400,10.08716552734375,0.3491048514842987,-1.8603707551956177,1.7082295417785645
1783170473681234400,10.097234375,0.34095099568367004,-1.8898844718933105,1.7394520044326782
1783170473691304400,10.107304443359375,0.3283827304840088,-1.9144779443740845,1.7781966924667358
1783170473701374500,10.11737451171875,0.3062988817691803,-1.9520436525344849,1.8212168216705322
1783170473711443500,10.127443359375,0.29467469453811646,-1.9698141813278198,1.8434677124023438
1783170473721513500,10.137513427734374,0.29447850584983826,-1.976584792137146,1.8538460731506348
1783170473731582500,10.14758251953125,0.3032093942165375,-1.9831571578979492,1.8748576641082764
1783170473741652500,10.157652587890626,0.304880827665329,-2.003791570663452,1.8897063732147217
1783170473751721500,10.167721435546875,0.28962811827659607,-2.0261309146881104,1.897298812866211
1783170473761791500,10.17779150390625,0.2716602087020874,-2.0483222007751465,1.8933988809585571
1783170473771861200,10.187861328125,0.2579965889453888,-2.0499134063720703,1.887874722480774
1783170473781930500,10.197930419921875,0.2550939619541168,-2.015429973602295,1.878947377204895
1783170473792000500,10.20800048828125,0.25341618061065674,-1.938925862312317,1.8830777406692505
1783170473802069500,10.218069580078126,0.25373393297195435,-1.8119181394577026,1.8897384405136108
1783170473812139500,10.228139404296876,0.24128229916095734,-1.6459307670593262,1.8780487775802612
1783170473822209300,10.238209228515625,0.2191866934299469,-1.4742764234542847,1.8479020595550537
1783170473832278500,10.248278564453125,0.18634192645549774,-1.3370269536972046,1.8008290529251099
1783170473842348300,10.258348388671875,0.1521865874528885,-1.2303550243377686,1.7433639764785767
1783170473852417500,10.26841748046875,0.12106169015169144,-1.1801555156707764,1.6985204219818115
1783170473862487300,10.2784873046875,0.08937884867191315,-1.167366623878479,1.6894508600234985
1783170473872557300,10.288557373046874,0.05580996349453926,-1.1774600744247437,1.7012196779251099
1783170473882626600,10.29862646484375,0.04740048199892044,-1.183678388595581,1.7152918577194214
1783170473892696300,10.3086962890625,0.05415079742670059,-1.1789920330047607,1.7092361450195312
1783170473902765600,10.318765625,0.03984251990914345,-1.1584094762802124,1.6762529611587524
1783170473912835300,10.32883544921875,0.003049883060157299,-1.11728835105896,1.611798644065857
1783170473922905300,10.3389052734375,-0.03191729262471199,-1.0962477922439575,1.5274580717086792
1783170473932974300,10.348974365234374,-0.03221290186047554,-1.1205682754516602,1.4435410499572754
1783170473943044400,10.35904443359375,0.0032422931399196386,-1.1879981756210327,1.3838894367218018
1783170473953113300,10.36911328125,0.05781445652246475,-1.3070894479751587,1.3727308511734009
1783170473963183400,10.379183349609375,0.1284428983926773,-1.4607137441635132,1.4092073440551758
1783170473973253400,10.38925341796875,0.2108970284461975,-1.6249338388442993,1.4660173654556274
1783170473983322400,10.399322265625,0.2780974209308624,-1.7702195644378662,1.5225821733474731
1783170473993392400,10.409392333984375,0.33090683817863464,-1.8744317293167114,1.5753519535064697
1783170474003461400,10.41946142578125,0.3463223874568939,-1.91425621509552,1.6156387329101562
1783170474013531400,10.429531494140624,0.3329296112060547,-1.8594075441360474,1.6204334497451782
1783170474023601400,10.439601318359376,0.28440067172050476,-1.7060519456863403,1.5848063230514526
1783170474033670400,10.44967041015625,0.2309560775756836,-1.5114822387695312,1.5020304918289185
1783170474043740400,10.459740478515625,0.1861792802810669,-1.3437951803207397,1.3801136016845703
1783170474053809400,10.469809326171875,0.15060611069202423,-1.200517177581787,1.247310757637024
1783170474063879400,10.47987939453125,0.10431673377752304,-1.0772249698638916,1.1627287864685059
1783170474073949400,10.489949462890625,0.021624518558382988,-0.9943765997886658,1.151274561882019
1783170474084018400,10.500018310546874,-0.08989956229925156,-0.9088214039802551,1.1931673288345337
1783170474094088200,10.510088134765626,-0.2073361873626709,-0.7996925711631775,1.233276128768921
1783170474104157400,10.520157470703126,-0.3109893202781677,-0.6703406572341919,1.261182188987732
1783170474114227500,10.5302275390625,-0.4232540726661682,-0.4477698802947998,1.2901885509490967
1783170474124296400,10.54029638671875,-0.5688544511795044,-0.16252098977565765,1.3018332719802856
1783170474134366500,10.550366455078125,-0.7456060647964478,0.09337710589170456,1.2929712533950806
1783170474144436500,10.5604365234375,-0.9256341457366943,0.30858463048934937,1.2954766750335693
1783170474154505500,10.57050537109375,-1.1961830854415894,0.5670694708824158,1.429997444152832
1783170474164575200,10.5805751953125,-1.5022664070129395,0.6945846676826477,1.5990298986434937
1783170474174644500,10.59064453125,-1.6963213682174683,0.8435264825820923,1.5779606103897095
1783170474184714200,10.60071435546875,-1.9012657403945923,0.9957709908485413,1.5586092472076416
1783170474194784500,10.610784423828125,-2.109011173248291,1.083306074142456,1.5869168043136597
1783170474204853500,10.620853515625,-2.2454042434692383,1.2649649381637573,1.7144005298614502
1783170474214923300,10.63092333984375,-2.314030170440674,1.4316141605377197,1.9138708114624023
1783170474224992500,10.640992431640624,-2.160909414291382,1.482880711555481,2.052374839782715
1783170474235062300,10.651062255859374,-1.9026738405227661,1.5670167207717896,2.070199489593506
1783170474245132500,10.661132568359376,-1.6759405136108398,1.6578080654144287,1.9765570163726807
1783170474255201300,10.671201171875,-1.5220504999160767,1.7476035356521606,1.8193359375
1783170474265271600,10.681271484375,-1.436711311340332,1.8245577812194824,1.6446847915649414
1783170474275340300,10.69134033203125,-1.4687483310699463,2.0042083263397217,1.532341480255127
1783170474285410300,10.701410400390625,-1.5674554109573364,2.168091058731079,1.5217138528823853
1783170474295480600,10.71148046875,-1.698526382446289,2.4426822662353516,1.61985182762146
1783170474305549300,10.72154931640625,-1.825095295906067,2.804616928100586,1.7721573114395142
1783170474315619600,10.73161962890625,-1.9593287706375122,3.135824680328369,1.9427906274795532
1783170474325688300,10.741688232421875,-2.0758559703826904,3.2017242908477783,2.0969507694244385
1783170474335758300,10.75175830078125,-2.1739139556884766,3.0048952102661133,2.2050206661224365
1783170474345828600,10.76182861328125,-2.2478926181793213,2.8526711463928223,2.3219752311706543
1783170474355897300,10.7718974609375,-2.312278985977173,2.837189197540283,2.4230453968048096
1783170474365967600,10.781967529296875,-2.355574369430542,2.8472321033477783,2.4634857177734375
1783170474376036400,10.792036376953124,-2.308638095855713,2.8437578678131104,2.4224793910980225
1783170474386106400,10.8021064453125,-2.125199794769287,2.8636908531188965,2.2443137168884277
1783170474396175400,10.81217529296875,-1.900999903678894,2.8465001583099365,2.000091075897217
1783170474406245400,10.822245361328125,-1.699840784072876,2.8664448261260986,1.7756929397583008
1783170474416315400,10.8323154296875,-1.5262178182601929,2.805986166000366,1.5677729845046997
1783170474426384400,10.84238427734375,-1.3113144636154175,2.6704490184783936,1.2976458072662354
1783170474436454700,10.85245458984375,-1.0654090642929077,2.4138333797454834,0.971226155757904
1783170474446523400,10.8625234375,-0.8748429417610168,2.2082133293151855,0.6196392178535461
1783170474456593400,10.872593505859374,-0.8268301486968994,2.362773895263672,0.3188096284866333
1783170474466663400,10.882663330078126,-0.7913526296615601,2.6895925998687744,0.12251538038253784
1783170474476732400,10.892732421875,-0.6871034502983093,2.8999104499816895,0.01363443210721016
1783170474486802400,10.902802490234375,-0.557414710521698,2.872487783432007,0.006891042925417423
1783170474496871400,10.912871337890625,-0.4397556781768799,2.5973048210144043,0.08363243192434311
1783170474506941400,10.92294140625,-0.36312875151634216,2.163886070251465,0.1736762523651123
1783170474517011500,10.933011474609375,-0.3395557701587677,1.7451473474502563,0.26563331484794617
1783170474527080400,10.94308056640625,-0.3267439305782318,1.482487678527832,0.3401713967323303
1783170474537150500,10.953150390625,-0.30742084980010986,1.433609127998352,0.4589787423610687
1783170474547219500,10.963219482421875,-0.3079972565174103,1.5062403678894043,0.644378125667572
1783170474557289500,10.97328955078125,-0.2698589265346527,1.4897290468215942,0.8157206177711487
1783170474567359500,10.983359375,-0.1720406860113144,1.2930824756622314,0.9000380635261536
1783170474577428200,10.99342822265625,-0.012203078716993332,1.1849504709243774,0.9284225106239319
1783170474587498500,11.00349853515625,0.10267218202352524,1.2514568567276,0.9178289771080017
1783170474597567200,11.013567138671876,0.19790761172771454,1.3558844327926636,0.8573144674301147
1783170474607637500,11.023637451171876,0.27373626828193665,1.4069494009017944,0.7482833862304688
1783170474617706500,11.03370654296875,0.34185168147087097,1.4144991636276245,0.6328790187835693
1783170474627776500,11.043776611328125,0.4089784622192383,1.407730221748352,0.5616748332977295
1783170474637846500,11.053846435546875,0.4755697548389435,1.388314127922058,0.5356685519218445
1783170474647915300,11.063915283203125,0.5398634672164917,1.3700252771377563,0.5384752750396729
1783170474657985500,11.073985595703125,0.5688016414642334,1.3907045125961304,0.546983003616333
1783170474668054300,11.08405419921875,0.5827858448028564,1.3657971620559692,0.5400565266609192
1783170474678124500,11.09412451171875,0.6135927438735962,1.2965086698532104,0.5017949342727661
1783170474688194600,11.104194580078126,0.6532983779907227,1.2465293407440186,0.4641970992088318
1783170474698263300,11.11426318359375,0.6789177656173706,1.1780517101287842,0.407622754573822
1783170474708333600,11.12433349609375,0.6838415265083313,1.0459650754928589,0.37460729479789734
1783170474718402300,11.13440234375,0.676173210144043,0.901602029800415,0.3793778121471405
1783170474728472600,11.14447265625,0.6587759256362915,0.8374728560447693,0.4186175465583801
1783170474738542300,11.154542236328124,0.6388669610023499,0.8497686386108398,0.465099036693573
1783170474748611300,11.164611328125,0.626710057258606,0.892008364200592,0.48376062512397766
1783170474758681600,11.174681640625,0.6040449142456055,0.9294990301132202,0.41455334424972534
1783170474768750300,11.184750244140625,0.5590060949325562,0.9052087068557739,0.28406667709350586
1783170474778820600,11.194820556640625,0.4939083456993103,0.8586252331733704,0.13724340498447418
1783170474788890400,11.204890380859375,0.41868844628334045,0.8091317415237427,-0.006967248860746622
1783170474798959600,11.214959716796875,0.3396735191345215,0.7521123886108398,-0.10694337636232376
1783170474809029400,11.225029296875,0.28228962421417236,0.6618921756744385,-0.10240151733160019
1783170474819098400,11.235098388671876,0.24596810340881348,0.6307806372642517,-0.055986884981393814
1783170474829168400,11.24516845703125,0.20874075591564178,0.5906871557235718,-0.021598413586616516
1783170474839237400,11.2552373046875,0.1562192142009735,0.5083499550819397,-0.0390290692448616
1783170474849307600,11.2653076171875,0.10383038222789764,0.42345207929611206,-0.10814641416072845
1783170474859377400,11.27537744140625,0.06294792890548706,0.3540588915348053,-0.19489221274852753
1783170474869446400,11.2854462890625,0.03710436820983887,0.3170349597930908,-0.29500505328178406
1783170474879516400,11.295516357421874,0.015171905979514122,0.2837076187133789,-0.3601907193660736
1783170474889585400,11.30558544921875,0.0010221183765679598,0.22892095148563385,-0.36860981583595276
1783170474899655400,11.315655517578126,-0.01957263983786106,0.1091223806142807,-0.3785628378391266
1783170474909725400,11.325725341796876,-0.04852555692195892,0.034746795892715454,-0.4311330318450928
1783170474919794400,11.33579443359375,-0.06103575602173805,0.10663563013076782,-0.5090888142585754
1783170474929864400,11.345864501953125,-0.04592641443014145,0.20796586573123932,-0.6285519599914551
1783170474939933400,11.355933349609375,-0.003484947606921196,0.2811644673347473,-0.7770058512687683
1783170474950003500,11.36600341796875,0.07422278076410294,0.3722952902317047,-0.8812853693962097
1783170474960073500,11.376073486328124,0.14633850753307343,0.4873347878456116,-0.8403105139732361
1783170474970142500,11.386142578125,0.08706251531839371,0.41543662548065186,-0.26092299818992615
1783170474980212500,11.39621240234375,0.08854642510414124,-0.4057621359825134,-0.13172240555286407
1783170474990281200,11.40628125,0.0976930782198906,-0.6676691174507141,-0.04507159814238548
1783170475000351500,11.4163515625,0.0483364462852478,-0.4681757092475891,-0.047728367149829865
1783170475010420200,11.426420166015625,0.054812025278806686,-0.1809396892786026,-0.19183409214019775
1783170475020490500,11.436490478515625,0.13168123364448547,0.21235941350460052,-0.33048999309539795
1783170475030560300,11.446560302734374,0.21365737915039062,0.6554461121559143,-0.2939564883708954
