time,seconds_elapsed,z,y,x
1783169788394949400,0.067949462890625,-0.142464058868587,-0.0664057783216238,0.14617303292173892
1783169788405018400,0.078018310546875,-0.24379034392386673,-0.011684592574834823,0.04477637691083364
1783169788415088400,0.08808837890625,-0.46346506824493405,-0.22235388040244577,-0.05430709765371866
1783169788425158100,0.098158203125,-0.3278293940916657,0.17574293587505815,0.298115150764212
1783169788435228400,0.108228515625,-0.07306582073271274,0.6494950048565864,-0.13344820144581607
1783169788445298400,0.11829833984375,0.019312018713355063,0.09787117616534233,-0.05817614850625395
1783169788455368200,0.1283681640625,-0.011942074467241763,0.19737667553424834,-0.07605934455946553
1783169788465438500,0.1384384765625,-0.24842297216057777,0.038459786775708195,-0.2453523690761998
1783169788475508200,0.14850830078125,-0.3621060499638319,-0.026793314379453658,-0.2916114679586142
1783169788485578200,0.158578125,-0.2501075642466545,-0.028121348112821576,-0.3234716738061979
1783169788495648500,0.1686484375,-0.09908289004266262,-0.09038754241168498,-0.32060254811067135
1783169788505718300,0.17871826171875,-0.00963379752486944,-0.1891699882030487,-0.32100111897420136
1783169788515788300,0.188788330078125,-0.10279285047650337,-0.2572399003446102,-0.27711667680125684
1783169788525858300,0.1988583984375,-0.313697700625658,-0.20287936460375786,-0.32272469136379656
1783169788535928300,0.20892822265625,-0.23256635459810493,-0.12210545371174812,-0.29856636513043194
1783169788545998300,0.218998291015625,0.05194879842400551,-0.08030746242403984,-0.27959230966717
1783169788556068400,0.229068359375,0.19206600190550088,0.045015784290432924,-0.2910693969711661
1783169788566137300,0.239137451171875,0.2039315040051937,0.08421265316903591,-0.22491541971983386
1783169788576207400,0.249207275390625,0.04551701181083918,0.14516951843500137,-0.1660639657679014
1783169788586277000,0.259277099609375,-0.1358703596919775,0.25858430069088933,-0.09490682820072396
1783169788596347400,0.269347412109375,-0.12042319971323012,0.26142507707476614,-0.04827407370032742
1783169788606417400,0.27941748046875,-0.027206571355462072,0.2461684712320566,-0.029806268992461263
1783169788616487200,0.289487060546875,0.14224983159601687,0.26463936294615265,-0.06579365603895858
1783169788626557400,0.299557373046875,0.25503742186427114,0.2581897484153509,-0.06676219967701472
1783169788636627500,0.30962744140625,0.13995324509143828,0.2028776110380888,-0.07497009258461185
1783169788646697200,0.319697265625,0.028664368948340416,0.15382570309937,-0.03178843751931563
1783169788656767500,0.329767578125,-0.02974281183481216,0.12134615977704524,-0.018864466742100194
1783169788666837200,0.339837158203125,-0.053635728597640986,0.13150573474168778,-0.059094943851605054
1783169788676907300,0.3499072265625,-0.04819587563127279,0.10916180098652839,-0.06733579831388778
1783169788686977300,0.359977294921875,-0.009280454042553902,0.0828489636003971,-0.03329938093838282
1783169788697047300,0.37004736328125,-0.07124269695878029,0.042627427849173546,-0.015514772721705957
1783169788707117300,0.380117431640625,-0.11019114403426647,0.07088789217174053,-0.020607711946545166
1783169788717187300,0.390187255859375,-0.15890344475507737,0.17171733362078664,-0.07141739593856036
1783169788727256300,0.40025634765625,-0.21650427759140728,0.2851782931059599,-0.09838238622364588
1783169788737326300,0.410326416015625,-0.14361205985993147,0.2475193013191223,-0.09110251314747146
1783169788747396400,0.420396240234375,-0.10783902795016764,0.1537684199541807,-0.10813376397988758
1783169788757466400,0.43046630859375,-0.1266857672393322,0.06241992355585098,-0.09574597330545075
1783169788767536400,0.440536376953125,-0.16583908923715351,0.04381692989468574,-0.07346516791437752
1783169788777606100,0.450606201171875,-0.2247580189347267,0.13391981014609336,-0.15318421772490254
1783169788787676400,0.460676513671875,-0.265431390106678,0.20644728621840475,-0.18792497484432533
1783169788797746400,0.470746337890625,-0.17604133429974317,0.23148469684123993,-0.1408006557010114
1783169788807816200,0.480816162109375,-0.05832300963103771,0.20541034438610076,-0.11533558511747978
1783169788817886500,0.490886474609375,-0.013300795599818229,0.2154904243737459,-0.1444002145629376
1783169788827956200,0.500956298828125,-0.0021478256836533543,0.15269816037416456,-0.11259218642716295
1783169788838026200,0.511026123046875,-0.03949614408612251,0.04454290608167648,-0.09493929656506515
1783169788848096300,0.52109619140625,-0.049211774675548076,-0.002637362766265869,-0.09619484045095741
1783169788858166300,0.531166259765625,-0.023674305576086043,-0.044082302832603455,-0.08456336630284786
1783169788868236300,0.541236328125,-0.07461071208715439,-0.05465221216380596,-0.10870740828253328
1783169788878306300,0.551306396484375,-0.10969956112504005,-0.03587970715463161,-0.08160787749812007
1783169788888375300,0.561375244140625,-0.04360796331912279,-0.027684125739336013,-0.043367154000303706
1783169788898445300,0.5714453125,-0.017551731042563915,-0.027192542830109596,-0.005853995858365669
1783169788908515300,0.581515380859375,-0.05053776258230209,0.030035072779655454,0.008563337015453726
1783169788918585300,0.59158544921875,-0.053447512549161906,0.09954583137929439,0.021285588375222868
1783169788928655400,0.6016552734375,-0.06977554701566696,0.08519698803126811,0.0007100662318058311
1783169788938725000,0.61172509765625,-0.15042553926706312,0.0641571226119995,-0.04559831971901003
1783169788948795400,0.62179541015625,-0.13636691103726625,0.036979192829132077,-0.06413844987757038
1783169788958865400,0.631865478515625,-0.11659633490145206,0.013189736440777778,-0.07739444278785959
1783169788968935200,0.64193505859375,-0.09503332239091396,0.008196165937185288,-0.06598818309721537
1783169788979005400,0.65200537109375,-0.1382487792611122,0.06682604956030845,-0.09014728564871474
1783169788989075500,0.662075439453125,-0.14628537072241304,0.09333703986704349,-0.12603940476034767
1783169788999145200,0.672145263671875,-0.13050912491977215,0.09221884949207305,-0.1129703812229447
1783169789009215200,0.68221533203125,-0.18756138396263122,0.13983224906027317,-0.15185417469753884
1783169789019285200,0.69228515625,-0.23733985261023044,0.18056933311820028,-0.18588760553151368
1783169789029355300,0.702355224609375,-0.17073416780233383,0.1605699166625738,-0.16886643770169465
1783169789039424500,0.712424560546875,-0.10855039108991622,0.1100590420871973,-0.16842853947477415
1783169789049494300,0.722494384765625,-0.16833178283572195,0.0852630390048027,-0.18696699826605617
1783169789059564300,0.732564208984375,-0.23642858298420905,0.06826280436515808,-0.13684119575181974
1783169789069634600,0.742634521484375,-0.2613490892291069,0.08451718907356262,-0.10152060205098241
1783169789079704300,0.752704345703125,-0.19332769240438938,0.12319032633900642,-0.06123417523684911
1783169789089774300,0.7627744140625,-0.17270342204868794,0.12669219698011874,-0.05655388106666505
1783169789099844000,0.772843994140625,-0.13348960203528404,0.13807166912853716,-0.030206070548563727
1783169789109914400,0.782914306640625,-0.11300620145499705,0.13942308373749254,-0.04708356244124006
1783169789119984400,0.792984375,-0.12126315766870975,0.14055939429104328,-0.04375259595420211
1783169789130054100,0.80305419921875,-0.15627192720770836,0.1420616155475378,-0.03724906384565402
1783169789140124400,0.81312451171875,-0.1821545564830303,0.08930909952521324,-0.02868691870686598
1783169789150194400,0.8231943359375,-0.1253776072502136,0.012918518283963202,0.024482818080531432
1783169789160264200,0.83326416015625,-0.08682838862538338,-0.005959785187244415,0.01702284376367461
1783169789170334500,0.84333447265625,-0.1070765191450715,0.053312487992644306,0.0029464743812102822
1783169789180404500,0.853404541015625,-0.09334756126105785,0.09304536344408988,-0.028611364686046727
1783169789190473200,0.86347314453125,-0.0646808542251587,0.12148410694301127,-0.02669575858938042
1783169789200543500,0.87354345703125,-0.08810673799812793,0.11075462313592434,-0.039970223304699175
1783169789210613200,0.88361328125,-0.11274258208274841,0.13413725228905676,-0.04931498845485039
1783169789220683300,0.893683349609375,-0.12945464743077753,0.12686989163458345,-0.046302545298496256
1783169789230753500,0.90375341796875,-0.15912088689804077,0.09103402362167835,-0.08102184863793663
1783169789240823300,0.9138232421875,-0.15876666663289069,0.07653203553855419,-0.06930237654596567
1783169789250893300,0.923893310546875,-0.10857961718440055,0.13672726878225802,-0.077884810987534
1783169789260963300,0.93396337890625,-0.06394727925360202,0.12304361134469509,-0.09299511282788589
1783169789271033300,0.944033447265625,-0.03706277945935726,0.08952946427762508,-0.07728460747152567
1783169789281103400,0.954103271484375,-0.042721828134357924,0.11597732622027397,-0.056692613683920354
1783169789291173000,0.964173095703125,-0.10538900444954633,0.13767945494055747,-0.08159784929445013
1783169789301243400,0.974243408203125,-0.10549918682575225,0.10153729745745659,-0.08826227561971173
1783169789311313400,0.9843134765625,-0.1346849492996931,0.01938625299334526,-0.0801283064648509
1783169789321383200,0.994383056640625,-0.17770576038062572,0.004883095866441726,-0.11208065670845098
1783169789331453400,1.004453369140625,-0.17577099292576312,0.058418286699056625,-0.12985573904495684
1783169789341522200,1.014522216796875,-0.17925678921490906,0.07013795058727264,-0.1126215586521197
1783169789351592200,1.02459228515625,-0.20789397789537906,0.10400456435382366,-0.09972822047518566
1783169789361662500,1.034662353515625,-0.1894359456628561,0.1321440326452255,-0.057409885974647475
1783169789371732200,1.044732177734375,-0.11028291397094726,0.146958739939332,-0.026637055238662288
1783169789381802200,1.05480224609375,-0.06466331856846809,0.16794073769152162,-0.007384666891209781
1783169789391872500,1.06487255859375,-0.017006664380431174,0.14881284337341785,-0.01404198762224987
1783169789401942300,1.0749423828125,-0.007173544891178608,0.08066577434241771,-0.044595613516448064
1783169789412012300,1.08501220703125,-0.050583647550642485,0.010940496209263802,-0.06930714405262843
1783169789422082300,1.095082275390625,-0.129653384873271,0.013782441636919975,-0.11597788334270007
1783169789432152300,1.10515234375,-0.1484101077914238,0.0644102205902338,-0.16366813840623945
1783169789442222300,1.115222412109375,-0.15519669919162987,0.13123100945353508,-0.16275016504479572
1783169789452292000,1.1252919921875,-0.18160218329727648,0.15968553504347802,-0.13153899769047275
1783169789462362400,1.1353623046875,-0.19087620759904383,0.20166297455132007,-0.1480749758192338
1783169789472432400,1.145432373046875,-0.19315204357653856,0.19720482609868048,-0.1469356604578439
1783169789482501400,1.15550146484375,-0.19266250649392605,0.1804851619660854,-0.12538590928767807
1783169789492571400,1.1655712890625,-0.18552958587408064,0.14822072269916534,-0.09406319871712475
1783169789502641200,1.17564111328125,-0.2069154882520437,0.16597382153272627,-0.0997794940046966
1783169789512711200,1.185711181640625,-0.2253904716193676,0.15589607963263988,-0.10416338991103694
1783169789522781400,1.195781494140625,-0.240966226413846,0.1477951907634735,-0.11592453658711165
1783169789532851200,1.205851318359375,-0.2389759293794632,0.15008125587403773,-0.11726871773768216
1783169789542921200,1.215921142578125,-0.1993605428278446,0.13715572332739828,-0.08895795713313855
1783169789552991500,1.225991455078125,-0.18715163411796093,0.09532090716063976,-0.05323788838647306
1783169789563061200,1.236061279296875,-0.1676838403210044,0.09920037894248962,-0.032514888630341736
1783169789573131300,1.24613134765625,-0.1868342387318611,0.11875029806494712,-0.04129119254304096
1783169789583201500,1.256201416015625,-0.19064122979938983,0.08858195429444313,-0.06917664954075589
1783169789593271300,1.266271240234375,-0.15225392373800276,0.0503717583656311,-0.062078781967982645
1783169789603341300,1.27634130859375,-0.14687690687477586,0.05907412025928497,-0.03439268346726894
1783169789613410300,1.286410400390625,-0.11727964099049568,0.05286182161569595,-0.06563647444956004
1783169789623480300,1.296480224609375,-0.11565262431055306,0.07241466334760188,-0.06143955248268321
1783169789633550300,1.30655029296875,-0.05972469312250614,0.11418109045326709,-0.0491636794838123
1783169789643620400,1.316620361328125,-0.024070319156348705,0.11150222663283348,-0.040763917265925556
1783169789653690400,1.3266904296875,-0.012919395066797732,0.11315525453686713,-0.02551006963588297
1783169789663760400,1.336760498046875,-0.030947511449456212,0.11215806019306182,0.0072514141666702924
1783169789673830100,1.346830078125,-0.069551675131917,0.11232640249729156,-0.02913953044572845
1783169789683900400,1.356900390625,-0.11376841799914836,0.0943821650058031,-0.008748356459848582
1783169789693970200,1.36697021484375,-0.0968225438952446,0.09759002113640308,-0.04050857253167778
1783169789704040200,1.377040283203125,-0.11936813770234585,0.14457447515130042,-0.05640296482127159
1783169789714110500,1.3871103515625,-0.15414806692153216,0.1748351733803749,-0.07067351876869797
1783169789724180200,1.39718017578125,-0.17756839773654937,0.18572306261956692,-0.0741690144679509
1783169789734250200,1.407250244140625,-0.1989776809900999,0.1668833375930786,-0.06863085222626104
1783169789744319200,1.4173193359375,-0.1801765344083309,0.11276771652400493,-0.05732775151599198
1783169789754389200,1.42738916015625,-0.12649901249557732,0.08698270240426063,-0.06837042945809661
1783169789764459300,1.437459228515625,-0.13770342033803462,0.09301029213070869,-0.05997074030544609
1783169789774529300,1.447529296875,-0.14535568865686654,0.1297264501094818,-0.09559636310115456
1783169789784599300,1.457599365234375,-0.15127777218222618,0.16084639551639557,-0.09851294466760009
1783169789794669300,1.46766943359375,-0.1849453562453389,0.15594401042759418,-0.09177832091664895
1783169789804739300,1.4777392578125,-0.2164876187175512,0.14835399369001387,-0.10012708359966054
1783169789814808600,1.48780859375,-0.146738667447865,0.13398644564151763,-0.11336685146093368
1783169789824878600,1.497878662109375,-0.09881693258285522,0.12774667446911334,-0.157740574988164
1783169789834948900,1.507948974609375,-0.10818564943075179,0.1578513053536415,-0.15148250097408889
1783169789845018600,1.5180185546875,-0.08825111490488052,0.13795593379437923,-0.13744811213640495
1783169789855088600,1.528088623046875,-0.021103870566189287,0.10040157142579555,-0.10415466774846427
1783169789865157600,1.53815771484375,0.02600450208932161,0.07376666247844696,-0.07250143744875677
1783169789875227600,1.5482275390625,-0.015691197867691516,0.06392097576856613,-0.04428125947080552
1783169789885297700,1.558297607421875,-0.04749415710270405,0.06681903529763221,-0.014581437394348903
1783169789895367700,1.56836767578125,-0.011171382355690002,0.025163082829117774,0.025622124308766796
1783169789905437700,1.578437744140625,-0.016037527087330816,0.022600538864731786,0.03997427385873161
1783169789915507700,1.5885078125,-0.04371346952021122,0.0037187282621860504,0.03640589558635838
1783169789925577700,1.59857763671875,-0.07381868492662906,0.010159574964642525,0.019986392577271906
1783169789935647700,1.608647705078125,-0.07429039409160614,0.045318566629290576,-0.016211796808848156
1783169789945717800,1.6187177734375,-0.029928689795732495,0.03626724516749382,-0.028409042480401693
1783169789955787800,1.628787841796875,-0.0464981318026781,0.0023608839124441144,-0.051403001109510654
1783169789965857800,1.63885791015625,-0.07370937933325768,0.03151975837945938,-0.12453960378980264
1783169789975927600,1.648927490234375,-0.07991933988928794,0.04141512944996357,-0.15027292425492778
1783169789985997600,1.65899755859375,-0.03795943603813648,0.0007417582780122757,-0.18705948058879002
1783169789996066800,1.66906689453125,-0.039002807611227035,-0.02020575268268585,-0.16314075353126972
1783169790006136600,1.679136474609375,-0.08857552455365657,0.011722586497664451,-0.15730733467005192
1783169790016206800,1.689206787109375,-0.13814765697419643,0.06848901433646679,-0.16603450221139937
1783169790026276600,1.699276611328125,-0.1024818848311901,0.10124094485938548,-0.13868397407429292
1783169790036346600,1.7093466796875,-0.070006725423038,0.15414660561680793,-0.10233157137399539
1783169790046416600,1.719416748046875,-0.06658814915120602,0.18246201499700546,-0.09734564532074146
1783169790056486700,1.729486572265625,-0.09587912556529045,0.19232231475412845,-0.07808670850149356
1783169790066556700,1.739556640625,-0.12038608257323503,0.17636603620946406,-0.0839977774424944
1783169790076626700,1.749626708984375,-0.10441285289376974,0.12234861481785773,-0.06556810365477576
1783169790086696700,1.75969677734375,-0.07657295207083224,0.11009878957569598,-0.03728998494450934
1783169790096766700,1.7697666015625,-0.09079261608123779,0.11255319699048995,-0.0603518029117491
1783169790106836700,1.779836669921875,-0.13644845184087753,0.16121581335067747,-0.07631372574591078
1783169790116905700,1.78990576171875,-0.13843407270014285,0.1953963153719902,-0.0771027024328243
1783169790126975700,1.799975830078125,-0.1132718666538596,0.16244915453791617,-0.06127114624637179
1783169790137045500,1.81004541015625,-0.10976561209857463,0.12504852142632006,-0.04877624193564988
1783169790147115800,1.82011572265625,-0.14643267023861406,0.10194704730212688,-0.08738183039021678
1783169790157185800,1.830185791015625,-0.1706421056047082,0.06551321339607238,-0.08182609595921822
1783169790167255600,1.840255615234375,-0.157768303245306,0.053119011247158045,-0.04149881654488854
1783169790177325800,1.850325927734375,-0.11431026979088782,0.07030395480394364,-0.048490940454555674
1783169790187395800,1.860395751953125,-0.08419920916557312,0.05359364302158355,-0.044949879447370764
1783169790197465600,1.870465576171875,-0.0670592737942934,0.05440671297013759,-0.05131161476531997
1783169790207535600,1.88053564453125,-0.05395137041807174,0.042886955568194385,-0.038259706759499384
1783169790217605600,1.890605712890625,-0.0553214897274971,0.08351181142330169,-0.05065774483331479
1783169790227675600,1.900675537109375,-0.06597323212325573,0.10396481686532497,-0.08413409890695475
1783169790237745000,1.910744873046875,-0.09204758457839489,0.10275777916312218,-0.08151167798149399
1783169790247814700,1.920814697265625,-0.09007482320070266,0.05063128608465194,-0.04089200062500312
1783169790257884700,1.930884765625,-0.09732055654525756,0.0676776979535818,-0.03477162718172185
1783169790267954700,1.94095458984375,-0.09849661458730698,0.10546294646859168,-0.06226783826667815
1783169790278024700,1.951024658203125,-0.1314268242865801,0.09879062909781933,-0.05967910954826511
1783169790288094700,1.9610947265625,-0.1431944189697504,0.09951192910969257,-0.0630706882153172
1783169790298164500,1.97116455078125,-0.1568932739764452,0.08776946886777877,-0.08539199001356028
1783169790308234800,1.98123486328125,-0.14650281286537647,0.0827232913941145,-0.11040559963569976
1783169790318304800,1.9913046875,-0.1717082735314965,0.058361003553867336,-0.10922094729524105
1783169790328374500,2.00137451171875,-0.16125146918594838,0.06234452023208141,-0.15565246186880394
1783169790338444800,2.01144482421875,-0.18637480452656746,0.10626198789179324,-0.12254277654993347
1783169790348513500,2.021513427734375,-0.18310732716321945,0.14440613284707068,-0.07905653078118338
1783169790358583800,2.031583740234375,-0.1677899310439825,0.15674305185079573,-0.06851455063652247
1783169790368653800,2.04165380859375,-0.18075462655723093,0.14997604193389416,-0.0405608781076502
1783169790378723600,2.0517236328125,-0.1663420703232288,0.15646774204075337,-0.03077119590132497
1783169790388793600,2.061793701171875,-0.15560674129724503,0.12763678435385226,-0.03461025347439572
1783169790398864000,2.07186376953125,-0.05935059911310672,0.10789981822669506,-0.011657987695699557
1783169790408933600,2.08193359375,-0.08709142347574234,0.13759060761332512,-0.07399232446048408
1783169790419003600,2.092003662109375,-0.0515679824128747,0.10315934570133685,-0.0995751214058604
1783169790429074000,2.102073974609375,-0.04203589169681072,0.05586451056301593,-0.06464107933719643
1783169790439143700,2.112143798828125,-0.07247691492885351,0.00928746830523014,-0.08735989255304448
1783169790449213700,2.122213623046875,-0.1253606561154127,-0.04751695345640182,-0.056661825820012016
1783169790459283700,2.13228369140625,-0.08247779220044613,0.006388239732384681,-0.05504727589599788
1783169790469352700,2.142352783203125,-0.08565992936789989,0.048825697967410084,-0.05740837900415063
1783169790479422700,2.152422607421875,-0.07025251687765122,0.05273614940941333,-0.07487787512335926
1783169790489492700,2.16249267578125,-0.054742228534817694,0.04349018215835094,-0.06283774710912257
1783169790499562800,2.172562744140625,-0.030720716956257818,0.03131751380562782,-0.07997567318640648
1783169790509632500,2.182632568359375,-0.034331016407907006,0.04334054455459117,-0.09709241034518927
1783169790519702800,2.192702880859375,-0.038808454082906244,0.02818739908635616,-0.04617523825755342
1783169790529772800,2.202772705078125,-0.039758009892702104,0.03567395544946193,-0.030683161424845454
1783169790539842600,2.212842529296875,-0.0016898527830839156,0.052445057508349414,-0.008122954570502043
1783169790549912600,2.22291259765625,0.0010778583645820617,0.0844920546323061,-0.026312362462095916
1783169790559982800,2.23298291015625,-0.0017439210578799247,0.13410744167268276,-0.060950417258869856
1783169790570052600,2.243052490234375,0.008237666991353034,0.10456336728036403,-0.08827150010578334
1783169790580121900,2.253121826171875,-0.019064765954017637,0.07702712557911873,-0.11262295602476223
1783169790590191600,2.263191650390625,-0.05621756178438663,0.040379941183328626,-0.10677972815558313
1783169790600261600,2.27326171875,-0.07693915503472089,0.05015782335400581,-0.10290211953725666
1783169790610331600,2.28333154296875,-0.09407996718883514,0.07561433617174625,-0.09474760078471153
1783169790620401700,2.293401611328125,-0.12427052279114723,0.11532733787894248,-0.0987769658986479
1783169790630471700,2.3034716796875,-0.14265139813423156,0.1526490605354309,-0.10544327365374193
1783169790640541700,2.313541748046875,-0.13615093019902705,0.1287076284557581,-0.07934667283417657
1783169790650611700,2.32361181640625,-0.11661796221137045,0.13940554808080197,-0.04892952366806566
1783169790660681700,2.333681640625,-0.11930267125070095,0.139563953512907,-0.08932395003447309
1783169790670751700,2.343751708984375,-0.12816519214212893,0.13104513149261474,-0.12260920198280363
1783169790680821800,2.35382177734375,-0.11069354059845209,0.13143734568059443,-0.12178919083680957
1783169790690890800,2.363890869140625,-0.10302432114481926,0.10959142457544803,-0.1453129089610651
1783169790700960500,2.37396044921875,-0.12734423114806412,0.1182026010543108,-0.15049308807794004
1783169790711030800,2.38403076171875,-0.1344040865316987,0.12697452105283735,-0.14159889340661466
1783169790721100800,2.394100830078125,-0.09801263046264648,0.12880582813322544,-0.14501456533530727
1783169790731170600,2.404170654296875,-0.07722323267310857,0.1123328322380781,-0.13460649550231174
1783169790741240800,2.41424072265625,-0.0676364891603589,0.09523381339907645,-0.1320973439592868
1783169790751310600,2.424310546875,-0.08822247333228588,0.07343465404510498,-0.10154615661734714
1783169790761380600,2.434380615234375,-0.07982932351827621,0.09652736034095287,-0.08776654625833034
1783169790771451000,2.444450927734375,-0.04068915326297283,0.11325345421433448,-0.07188283975953236
1783169790781520600,2.454520751953125,-0.04146481381058693,0.10162205313146114,-0.0413184824087657
1783169790791590700,2.464590576171875,-0.026145664125680923,0.10547814403772353,-0.028720738778077064
1783169790801659600,2.47465966796875,-0.0439057772219181,0.083393738001585,-0.04444172899583354
1783169790811729700,2.484729736328125,-0.09647007719576359,0.05674480052888393,-0.03400430520419031
1783169790821800200,2.49480029296875,-0.11482698714137077,0.055773909670114516,-0.02346528420159593
1783169790831870200,2.5048701171875,-0.11570493901968001,0.04050678243339061,-0.04975348033681511
1783169790841940500,2.5149404296875,-0.06889701061546802,0.0407557887583971,-0.04100941645959392
1783169790852010200,2.52501025390625,-0.0430713722243905,0.04816518823206425,-0.03910950112240389
1783169790862080300,2.535080322265625,-0.0641854719236493,0.07165010871589184,-0.08431730085359886
1783169790872150500,2.545150634765625,-0.08036503783017396,0.11132102484703063,-0.1029243496353738
1783169790882220300,2.55522021484375,-0.08256225561350583,0.10144728108644485,-0.1129978263522964
1783169790892290300,2.565290283203125,-0.0760541888937354,0.07463876913785934,-0.1316580574928783
1783169790902360300,2.5753603515625,-0.0746755940169096,0.054957917112112044,-0.118411658961419
1783169790912429300,2.58542919921875,-0.0696671182051301,0.026670564782619473,-0.07717599599789828
1783169790922499300,2.595499267578125,-0.056743631485104556,0.002393032616376877,-0.06560969604048877
1783169790932569300,2.6055693359375,-0.054638475899398325,0.022901567637920377,-0.0832100885303691
1783169790942639400,2.615639404296875,-0.03344634252786636,0.08023848884105682,-0.06010715310145169
1783169790952709400,2.62570947265625,-0.038972120212018485,0.09295476255118847,-0.031039317918755114
1783169790962779400,2.635779296875,-0.03618365853726864,0.11280220331549644,-0.011909615236055104
1783169790972849400,2.645849365234375,-0.017880524605512618,0.12089607792198657,-0.02329104187954217
1783169790982919200,2.655919189453125,-0.008737140946090221,0.0845832400470972,-0.029491832748427985
1783169790992989200,2.6659892578125,-0.0578179827183485,0.06896890680789947,-0.05714035745142027
1783169791003059500,2.6760595703125,-0.05389116466343403,0.05692191066145896,-0.09854470977904274
1783169791013129200,2.686129150390625,-0.045179158158600324,0.04058510836660862,-0.09343222560351713
1783169791023198500,2.696198486328125,-0.0711158557087183,0.04769873976409435,-0.08855208887914195
1783169791033268200,2.706268310546875,-0.07658113537728786,0.047754853865504265,-0.04545158189181238
1783169791043338200,2.716338134765625,-0.066675827434659,0.0796989751368761,-0.04565735186329111
1783169791053408500,2.726408447265625,-0.06518237400650978,0.10722995614111423,-0.053815688274428244
1783169791063478300,2.736478271484375,-0.04610884022414684,0.10837152739167213,-0.04348946977229789
1783169791073548300,2.74654833984375,-0.03493219717144966,0.07604045262932776,-0.06778541437806561
1783169791083618300,2.756618408203125,-0.04174012362062931,0.06091711777746677,-0.0715162532031536
1783169791093688300,2.766688232421875,-0.05467296269088983,0.07455401346385479,-0.06103782154768705
1783169791103758300,2.77675830078125,-0.06642974371910094,0.07655249380469321,-0.09017433805242181
1783169791113828400,2.786828369140625,-0.06717120973616839,0.07548632587790488,-0.1087639425090514
1783169791123898400,2.7968984375,-0.06064297701120376,0.07659048772752285,-0.08309345814706758
1783169791133967400,2.80696728515625,-0.034493805754184724,0.06545417668521404,-0.0952152182964608
1783169791144037000,2.817037109375,-0.061246788123250004,0.07011164710223675,-0.09761270789224653
1783169791154107400,2.827107421875,-0.10245178195387124,0.056711482781171794,-0.07960601789010688
1783169791164177400,2.837177490234375,-0.09043547320663929,0.04173661648929119,-0.018769472801871596
1783169791174247200,2.8472470703125,-0.025457681861519813,0.04797404957413673,-0.019624518728628755
1783169791184317400,2.8573173828125,-0.015815993291139602,0.08755845646560191,-0.0024222769771702585
1783169791194387500,2.867387451171875,-0.04266249916255474,0.11384323680102824,-0.0108895149406977
1783169791204457200,2.877457275390625,-0.044670331853628155,0.14487959557771682,-0.00931554362224415
1783169791214527500,2.887527587890625,-0.0765624306768179,0.11352525689303875,-0.001326024439372122
1783169791224597200,2.89759716796875,-0.10473346315026283,0.053768415066599844,-0.01292566041080281
1783169791234666200,2.907666259765625,-0.12274550518095492,-0.018196166425943374,-0.01126992909302935
1783169791244736500,2.917736572265625,-0.09493453819155692,-0.03837269301414489,-0.052266212076414374
1783169791254806300,2.92780615234375,-0.10389642780423164,-0.0011608604729175568,-0.0707361904750578
1783169791264876300,2.937876220703125,-0.1275824238181114,0.07321312024891376,-0.07654982692357153
1783169791274946300,2.9479462890625,-0.09569090951681136,0.13334113347530363,-0.07765196121288463
1783169791285016300,2.958016357421875,-0.0948898222669959,0.1500344941228628,-0.10810135041447355
1783169791295086300,2.96808642578125,-0.12640811934173107,0.14226444464325905,-0.08874640587484464
1783169791305156400,2.97815625,-0.15441490116417408,0.11977028876245022,-0.09178124352609739
1783169791315226400,2.988226318359375,-0.14083558088392018,0.1078279220342636,-0.10393254029722884
1783169791325296400,2.99829638671875,-0.12070961543917655,0.10128186139166355,-0.09595259266030043
1783169791335365400,3.008365478515625,-0.115000005620718,0.10181728344261645,-0.07805489772427826
1783169791345435400,3.018435302734375,-0.09794482592344284,0.10073533342480659,-0.11585700604254379
1783169791355505200,3.028505126953125,-0.10457564224004745,0.11993453941345214,-0.08879495772430673
1783169791365575400,3.038575439453125,-0.0936024128049612,0.1380447811216116,-0.06615772184468806
1783169791375645400,3.0486455078125,-0.08923954142034053,0.11407236938178539,-0.06428653941163792
1783169791385715200,3.058715087890625,-0.0834483907982707,0.09209434632956981,-0.07474443973572924
1783169791395785200,3.06878515625,-0.08502455407381057,0.075978493309021,-0.07499244141373783
1783169791405855500,3.07885546875,-0.10103753124177456,0.06741641666889191,-0.097998254877422
1783169791415925200,3.08892529296875,-0.09107903180718421,0.05435585956573486,-0.11067246127780526
1783169791425995300,3.098995361328125,-0.08504735042750836,0.04943827690780162,-0.13630962789207696
1783169791436064300,3.109064208984375,-0.06995265714824199,0.06494564264118671,-0.14528265995327383
1783169791446134300,3.11913427734375,-0.08858633820861578,0.05192483302652835,-0.1389941542683169
1783169791456204300,3.129204345703125,-0.10384995831400155,0.06228139186799526,-0.1310123252015561
1783169791466274300,3.1392744140625,-0.09163432760238648,0.09708031804859638,-0.12603413493018598
1783169791476344300,3.14934423828125,-0.04505786986649036,0.08956102845966815,-0.09390546913845464
1783169791486414300,3.159414306640625,-0.08100888869166374,0.08439385495483875,-0.02825414417963475
1783169791496484400,3.169484375,-0.08066109816730022,0.0992184991210699,0.0030624015116132793
1783169791506554400,3.179554443359375,-0.07405307820439339,0.09592413375079631,0.017466719640232622
1783169791516624100,3.1896240234375,-0.061679918843507764,0.10926175422966479,0.02906014506658539
1783169791526694400,3.1996943359375,-0.0922258637547493,0.1485316883444786,0.00479556371346116
1783169791536764400,3.209764404296875,-0.10126491025686263,0.13014613682627676,-0.01607911947304383
1783169791546833200,3.219833251953125,-0.08686112185120583,0.10558686510920524,0.007983034643158316
1783169791556903400,3.2299033203125,-0.08620733411759138,0.11229659188091755,-0.02879395014476031
1783169791566973200,3.23997314453125,-0.10347791013121604,0.13801497050523756,-0.07043348120143636
1783169791577043200,3.250043212890625,-0.08927607403844594,0.1327589496731758,-0.08658767520468681
1783169791587113500,3.260113525390625,-0.10491232684850692,0.11626666455566882,-0.09633220309503376
1783169791597183200,3.270183349609375,-0.09246201059818267,0.06420680697262286,-0.11405169191993772
1783169791607253200,3.280253173828125,-0.03410392965376377,0.040808980250358576,-0.11632653238358907
1783169791617323500,3.290323486328125,-0.0039060675278306005,0.019197452422976494,-0.07959795331466012
1783169791627393300,3.300393310546875,-0.041348493954539295,0.02336860062777996,-0.05094477248061448
1783169791637463300,3.31046337890625,-0.037490649482607837,0.07996200998723506,-0.02554843801804818
1783169791647532300,3.3205322265625,-0.009102174866199493,0.10973112530708312,-0.024276107394136485
1783169791657602300,3.330602294921875,-0.04065291290581226,0.09314180955588817,-0.014580177019024266
1783169791667672300,3.34067236328125,-0.09740092830508947,0.07122574582397938,-0.016885275623621417
1783169791677742300,3.350742431640625,-0.0821428611576557,0.0698088647633791,-0.015147528578201308
1783169791687812400,3.360812255859375,-0.0958902314811945,0.05467617756128311,-0.04042658420349471
1783169791697882400,3.37088232421875,-0.06539397093057632,0.013570844712853431,-0.013714984157588333
1783169791707952400,3.380952392578125,-0.0933627588301897,-0.013254618370532989,-0.0370956496824976
1783169791718022400,3.3910224609375,-0.0986567735850811,0.04264028733074665,-0.06464394714771769
1783169791728092400,3.401092529296875,-0.06594780542105436,0.05853051490187645,-0.06556414899886585
1783169791738162200,3.411162109375,-0.0571273701056838,0.07812427316606044,-0.08178503329646773
1783169791748231400,3.4212314453125,-0.03700082013905048,0.08665829275548458,-0.10313912489721551
1783169791758301200,3.43130126953125,-0.0696603962033987,0.10015607223212718,-0.06418021122664212
1783169791768371500,3.441371337890625,-0.07151596094220876,0.12379121484160423,-0.09113381246803327
1783169791778441500,3.45144140625,-0.017201894691586492,0.13837795859873295,-0.10841484594359062
1783169791788511200,3.46151123046875,-0.03704699736833572,0.11593173351287842,-0.09632399238911457
1783169791798581200,3.471581298828125,-0.05431669659912586,0.07971767983734607,-0.10104120276989415
1783169791808651300,3.4816513671875,-0.09563947159051894,0.07008008292019367,-0.08735264996150507
1783169791818721300,3.49172119140625,-0.09943886387348175,0.09786299285888671,-0.0868866216186434
1783169791828791300,3.501791259765625,-0.12860562938600778,0.06984159798920155,-0.08300908606555313
1783169791838861300,3.511861328125,-0.1435489314958453,0.05601064103543758,-0.05529103065715171
1783169791848930300,3.521930419921875,-0.1269309741720557,0.0457271474301815,-0.026510944640962406
1783169791859000300,3.532000244140625,-0.10665478660166262,0.05017652805447578,-0.020202583478065205
1783169791869070300,3.5420703125,-0.11697948900014161,0.06920797626078129,0.010686475782422348
1783169791879140400,3.552140380859375,-0.12059738723635673,0.08867313970923424,0.01593094317400828
1783169791889210000,3.562210205078125,-0.11111235053241253,0.1045949314624071,-0.011135379460547119
1783169791899280400,3.5722802734375,-0.09013327538967132,0.10321604432463645,-0.03133153319782577
1783169791909350400,3.582350341796875,-0.0520493361890316,0.08240998766124248,-0.054077535814698784
1783169791919420200,3.592420166015625,-0.050718672107160086,0.06062193422317504,-0.07238331836126745
1783169791929490400,3.602490478515625,-0.054174073258042334,0.05273205775618553,-0.08834940591389313
1783169791939560400,3.612560546875,-0.04848404492288828,0.04646481405496597,-0.07567786639463156
1783169791949629200,3.622629150390625,-0.009120879566669463,0.039192192703485486,-0.06704723629662766
1783169791959699500,3.632699462890625,-0.00960427916944027,0.07624503529071808,-0.03946479909978807
1783169791969769200,3.642769287109375,-0.015451251631975173,0.053425885239243506,-0.008483531511202454
1783169791979839200,3.652839111328125,-0.04651099128425121,0.07640402524471282,-0.03624134354125708
1783169791989909500,3.662909423828125,-0.07715951978713273,0.06803776343762874,-0.06385360048762523
1783169791999979300,3.672979248046875,-0.09412643667906523,0.06843056214749813,-0.0573381541789975
1783169792010049300,3.68304931640625,-0.06571954962313174,0.05664367824196815,-0.058005778641719366
1783169792020119600,3.69311962890625,-0.08703823198378086,0.053099137502908705,-0.05862973749265074
1783169792030189300,3.703189208984375,-0.1192787058532238,0.04174830692708492,-0.048009924605116244
1783169792040258300,3.71325830078125,-0.13212883507609366,0.038162265133857724,-0.04025984020130709
1783169792050328300,3.723328369140625,-0.07832125704288483,0.054825230643153186,-0.03085236224560067
1783169792060398300,3.7333984375,-0.014687866044044495,0.04795125322043895,-0.0018957871513441203
1783169792070468400,3.74346826171875,-0.04477437674999237,0.06154372524321079,-0.01731083495877683
1783169792080538400,3.753538330078125,-0.09058101915717125,0.07963467772901058,-0.06500997658167033
1783169792090608400,3.7636083984375,-0.07631985409259796,0.08094283771812916,-0.052624514861637724
1783169792100678100,3.77367822265625,-0.06522562862634658,0.07222995443046093,-0.07048982363170944
1783169792110748400,3.78374853515625,-0.05835135894268751,0.0856464853644371,-0.0733108998012729
1783169792120818400,3.793818359375,-0.07485474997609853,0.08757540760040283,-0.06762446079584769
1783169792130888200,3.80388818359375,-0.09976765743643044,0.12112637954652308,-0.09184281925391405
1783169792140957400,3.81395751953125,-0.07092033313661814,0.14679215120077133,-0.09480754167786799
1783169792151027200,3.824027099609375,-0.06693827776312827,0.15764380008280277,-0.07016703968443908
1783169792161097200,3.83409716796875,-0.07114449728131293,0.1522042393773794,-0.05847381627857685
1783169792171167500,3.84416748046875,-0.08046937498748302,0.15390227546691893,-0.043201072151819245
1783169792181237200,3.8542373046875,-0.10096914218068122,0.1263888301193714,-0.05453838565894402
1783169792191307300,3.864307373046875,-0.16990677706748247,0.08135434112846851,-0.09691546460939571
1783169792201377300,3.874377197265625,-0.17671441125571727,0.08566928171813487,-0.0930222200305201
1783169792211447300,3.884447265625,-0.1262754328727722,0.07475450447201729,-0.0844969774025958
1783169792221517300,3.894517333984375,-0.1360109372064471,0.08643149826228617,-0.08152787106446921
1783169792231587300,3.90458740234375,-0.1489233180105686,0.11491817255616188,-0.11424306803988292
1783169792241656300,3.91465625,-0.15939736575186253,0.1227075112581253,-0.13364964230204932
1783169792251726300,3.924726318359375,-0.15890928997397422,0.15281740283966064,-0.11403240269757807
1783169792261796400,3.93479638671875,-0.13848551062643527,0.170582776632905,-0.1343004617604427
1783169792271866400,3.944866455078125,-0.12387304790616034,0.15547580839395522,-0.12603205257095396
1783169792281936400,3.954936279296875,-0.0941992096543312,0.15200550193488596,-0.06155421923776157
1783169792292006100,3.965006103515625,-0.06387742888778447,0.14284253679215908,-0.057262833053618664
1783169792302076400,3.975076416015625,-0.0653951399743557,0.11414192748665809,-0.0549692696231883
1783169792312146400,3.985146484375,-0.06849369051158428,0.09545242458581923,-0.03323081834735349
1783169792322216200,3.99521630859375,-0.0767401253312826,0.08116203342676162,-0.043347933276602996
1783169792332285400,4.005285400390625,-0.11263210744559764,0.10438099645078182,-0.01700276452344842
1783169792342355200,4.015355224609375,-0.17469956430196762,0.1360620828717947,-0.03762069646990858
1783169792352425200,4.02542529296875,-0.20529753166139125,0.1504886676311493,-0.028226105395238846
1783169792362495500,4.03549560546875,-0.24971155066639183,0.16105039365589618,-0.034259275479102506
1783169792372565200,4.045565185546875,-0.24256401699930427,0.11498831518292427,-0.032458317871205504
1783169792382635300,4.05563525390625,-0.19503741893172263,0.13076514550745486,-0.056986947854841125
1783169792392705300,4.065705322265625,-0.20520108554959296,0.13976795165240763,-0.09483020103424787
1783169792402775300,4.075775390625,-0.18147884917855261,0.13020809614658355,-0.11789647598089649
1783169792412845300,4.08584521484375,-0.20580898831486702,0.12042904493212699,-0.12505648553706705
1783169792422914300,4.095914306640625,-0.23165040879696605,0.12010755789279937,-0.13861247974066063
1783169792432984300,4.105984375,-0.22759996436238286,0.1286281334787607,-0.16075663487371056
1783169792443054300,4.116054443359375,-0.22548457964360713,0.12854805397987365,-0.15536073064692318
1783169792453124400,4.126124267578125,-0.20497136844694613,0.13729600858092308,-0.17078092955350874
1783169792463194400,4.1361943359375,-0.17671908743083475,0.1535375338077545,-0.12815452461764215
1783169792473264000,4.14626416015625,-0.15516542727053165,0.14633037890791892,-0.08859128837836906
1783169792483334400,4.15633447265625,-0.14133271675109862,0.10788637422323226,-0.03883011335886549
1783169792493404400,4.166404296875,-0.11980945172905921,0.09513035302460193,-0.025717465308867392
1783169792503474200,4.17647412109375,-0.13610358392596245,0.08068564808666706,-0.006377339312457479
1783169792513543400,4.18654345703125,-0.10595394485592842,0.07879004359841346,0.00752381506699603
1783169792523613200,4.19661328125,-0.1267892276138067,0.08588730838298797,0.02799251126849558
1783169792533683200,4.20668310546875,-0.08920037845373154,0.08960837473273277,0.024773932814481668
1783169792543753500,4.21675341796875,-0.10802256782352923,0.0846224030137062,0.03548629652340896
1783169792553823200,4.2268232421875,-0.11017506968230008,0.08437105860114097,0.0189636756331427
1783169792563893200,4.236893310546875,-0.08862930056750774,0.05791209074258804,-0.006408273306838236
1783169792573963500,4.246963623046875,-0.09431728307604789,0.043698271951079365,0.007492871939460746
1783169792584033300,4.257033203125,-0.10089724598824977,0.05351064091324806,-0.018401735468022526
1783169792594103300,4.267103271484375,-0.10105155976712703,0.06527063681185245,-0.03442876856080256
1783169792604173300,4.27717333984375,-0.13994681535065173,0.08022387579381465,-0.040822465353016736
1783169792614242300,4.2872421875,-0.1341618022084236,0.07472294028997421,-0.037476132333488205
1783169792624312300,4.297312255859375,-0.12472586534321307,0.08378829027712345,-0.059795045811822635
1783169792634382300,4.30738232421875,-0.09339432301223277,0.07121405538618564,-0.041202989103202706
1783169792644452400,4.317452392578125,-0.09625643444508314,0.09287760566174984,-0.041856635272921994
1783169792654522400,4.3275224609375,-0.07988952927291393,0.06854863556921481,-0.03712333684044424
1783169792664592400,4.33759228515625,-0.06006050094813108,0.05478372958898544,-0.026853013244015164
1783169792674662400,4.347662353515625,-0.04820142858922481,0.0963736310839653,-0.017622156797116623
1783169792684732400,4.357732421875,-0.04282148911654949,0.10213000265359878,-0.039587265568831936
1783169792694802200,4.36780224609375,-0.07909457950294017,0.11939385666549206,-0.060597119442326944
1783169792704871400,4.377871337890625,-0.05713993732631206,0.10785890169441699,-0.023922389452485367
1783169792714941200,4.387941162109375,-0.03677519468963146,0.10522621510326861,-0.018426162089803255
1783169792725011500,4.398011474609375,-0.06995411845296622,0.08229074519574642,-0.04241875353455543
1783169792735081500,4.40808154296875,-0.10457564224004745,0.06400105526745319,-0.043895251261326484
1783169792745151200,4.418151123046875,-0.0738911656409502,0.04364274237155914,-0.053538926292816175
1783169792755221200,4.42822119140625,-0.09381137938052415,0.06297580387294292,-0.06131433693412691
1783169792765291300,4.438291259765625,-0.10950666890144348,0.04966507140100002,-0.04811422979638446
1783169792775361300,4.448361328125,-0.13509294557869433,0.06604512831568718,-0.05822335321542341
1783169792785431300,4.458431396484375,-0.09822247382104396,0.08793605760633945,-0.04538233431419358
1783169792795500300,4.468500244140625,-0.06388999610841274,0.0734989514529705,-0.0624964365578955
1783169792805570300,4.4785703125,-0.06420183853656053,0.05547697255015373,-0.06174971897697541
1783169792815640300,4.488640380859375,-0.03979600381553173,0.04319090695083141,-0.05655182154031936
1783169792825710000,4.4987099609375,-0.02134557036757469,0.05650806916356087,-0.07356473299844656
1783169792835780000,4.508780029296875,0.014341244563460349,0.05690788213610649,-0.07299743167161941
1783169792845850000,4.51885009765625,0.025133856734633444,0.05024024094045162,-0.04628925655866042
1783169792855920000,4.528920166015625,0.006975099709630012,0.03987257618308067,-0.04833947165331337
1783169792865990100,4.538990234375,-0.0395230320930481,0.07682312743961811,-0.08685135850901715
1783169792876060000,4.549059814453125,-0.02119564050287008,0.08888649019896984,-0.09134734562085942
1783169792886129200,4.559129150390625,0.047398295512795445,0.08134732686579227,-0.09331659073405899
1783169792896199200,4.56919921875,0.015386661963164806,0.033192660027742384,-0.08065949986525811
1783169792906269200,4.579269287109375,-0.03291822700053453,0.00670329703092575,-0.08338533549942076
1783169792916339200,4.589339111328125,-0.031707682166993614,0.014362871873378752,-0.08999067944805138
1783169792926409000,4.599408935546875,-0.0010533084452152251,0.029032617738842963,-0.06362428524377756
1783169792936479000,4.60947900390625,0.010981412741541862,0.06568915448486805,-0.09061462916582823
1783169792946549200,4.61954931640625,0.013879472270607948,0.0831675280302763,-0.0812043381985277
1783169792956619000,4.629618896484375,-0.011122867038846015,0.053335284346342084,-0.056104895190149544
1783169792966689000,4.63968896484375,-0.009155950880050659,0.05967442423999309,-0.040986181714478875
1783169792976758000,4.649758056640625,-0.0065092357635498045,0.07980009742379188,-0.012052750033792107
1783169792986828000,4.659828125,-0.023765198729932307,0.08109656697511672,-0.00834979472947307
1783169792996898000,4.66989794921875,-0.029328678075969217,0.08022855196893215,-0.019433389203855768
1783169793006968000,4.679968017578125,-0.04842237786352634,0.07022796695828437,-0.04003405035510659
1783169793017038000,4.6900380859375,-0.0507639725536108,0.049428340035676956,-0.039893701169500126
1783169793027108000,4.700108154296875,-0.021344109062850475,0.015779752933979034,-0.02610810859426856
1783169793037178000,4.71017822265625,-0.012796937730908392,0.019386837515234946,-0.018763417520420624
1783169793047248100,4.720248046875,0.004141337588429451,0.0335275910705328,-0.009085287663480266
1783169793057317000,4.730317138671875,-0.018237082958221434,0.04395078540742397,0.005057073327014223
1783169793067387100,4.74038720703125,-0.028934125800430772,0.0549988336443901,-0.006753191454103216
1783169793077457200,4.75045703125,-0.030901626481115815,0.06180617557168006,-0.044510885241907085
1783169793087527000,4.76052685546875,-0.01883329528570175,0.06853051539063454,-0.060657188199646765
1783169793097597200,4.77059716796875,-0.04376841457784176,0.08239888174533844,-0.04803515037791803
1783169793107667200,4.780667236328125,-0.09338204805254936,0.06621697775125503,-0.032351122036529706
1783169793117737000,4.790737060546875,-0.11364420709758996,0.09976035091280937,-0.0327985461436212
1783169793127807200,4.80080712890625,-0.09956541286259889,0.10791735388338565,-0.06533413963527418
1783169793137877200,4.810877197265625,-0.06660393124222755,0.0614081161648035,-0.0832524755005259
1783169793147946200,4.8209462890625,-0.03825871124565601,0.025541268491744994,-0.05458184120818041
1783169793158016300,4.831016357421875,-0.05975976443588733,0.06094342126250267,-0.06929154462469742
1783169793168086000,4.8410859375,-0.07697042695581913,0.085271806833148,-0.04102716217883862
1783169793178156000,4.851156005859375,-0.08137479939460754,0.11366904927790164,-0.010940989399608223
1783169793188226300,4.861226318359375,-0.08235036642849444,0.12531214079856873,0.005804521560296416
1783169793198296000,4.871296142578125,-0.0487029483705759,0.1573988854110241,-0.026960880365548653
1783169793208366000,4.881365966796875,-0.0791696905657649,0.14066986892819403,-0.04451592674320563
1783169793218436000,4.89143603515625,-0.11695493908077478,0.11403379093706607,-0.021816421016026287
1783169793228506000,4.901506103515625,-0.11738719301819801,0.1004389808267355,-0.021557286022650078
1783169793238575000,4.9115751953125,-0.0896329246520996,0.10435410844385623,-0.058711241763643916
1783169793248645000,4.92164501953125,-0.10272358463257551,0.08512450731694698,-0.055118057843577116
1783169793258715100,4.931715087890625,-0.11112462549209594,0.0811018276721239,-0.05090791106894612
1783169793268785000,4.941784912109375,-0.10956482882946729,0.10364859052300453,-0.05337435598140582
1783169793278855200,4.951855224609375,-0.08350771977007389,0.08281798394024371,-0.04027833483922295
1783169793288925200,4.96192529296875,-0.06760346367359162,0.09819266320466995,-0.02245904803480953
1783169793298995000,4.971994873046875,-0.04422054225951433,0.10974340026676654,-0.022368995131179688
1783169793309065200,4.982065185546875,-0.02647679577618837,0.09129062873125075,-0.046370925226435065
1783169793319135200,4.99213525390625,-0.025184125617146492,0.09255904123187064,-0.044669482470257205
1783169793329204000,5.002203857421875,-0.004432721750438213,0.10199614714086055,-0.031997897285223
1783169793339274200,5.012274169921875,0.013422376152873039,0.09011749329864978,0.0021601554422639307
1783169793349344000,5.022343994140625,-0.014795710332691668,0.04606733916997909,0.0077727985591161996
1783169793359414000,5.0324140625,-0.03984627269804478,0.04666296697556972,-0.016313887210143728
1783169793369484300,5.042484375,-0.026723171752691267,0.015770985105633736,-0.0041979448801837856
1783169793379554000,5.052553955078125,0.018858721987903115,-0.009251227948069572,0.000032377032795920966
1783169793389624000,5.0626240234375,-0.010115735822916031,0.05291910476088524,-0.01158485852740705
1783169793399694000,5.072694091796875,-0.039351767179369924,0.08553542620539664,-0.03969078074223362
1783169793409763000,5.08276318359375,-0.05256956067085266,0.10288520493507385,-0.046509055055491626
1783169793419833000,5.0928330078125,-0.04436228881776333,0.09523439792096615,-0.0314886782546062
1783169793429903000,5.102903076171875,-0.029446751497685907,0.05234335069954395,-0.08394593765740282
1783169793439973000,5.11297314453125,-0.03789017019420862,0.02790039883852005,-0.08525608867420814
1783169793450043100,5.123043212890625,-0.06032382805943489,0.02485913144648075,-0.06722856594659388
1783169793460113200,5.133113037109375,-0.0720151426360011,0.05447802464067936,-0.07865743019469082
1783169793470183200,5.14318310546875,-0.061657707011699675,0.07760463320612906,-0.10048807153231464
1783169793480253200,5.153253173828125,-0.05957213290929794,0.09651976155638695,-0.11172776988386175
1783169793490322200,5.163322265625,-0.07877046211510896,0.10245499682426452,-0.09737258812659419
1783169793500392200,5.17339208984375,-0.07688479449898004,0.11692366715967654,-0.06727899009273387
1783169793510462000,5.1834619140625,-0.07964169199168682,0.12633973028063775,-0.027799669277248903
1783169793520532200,5.1935322265625,-0.09514701189845799,0.09198620977997779,0.01712502092993818
1783169793530602200,5.203602294921875,-0.12330986106544732,0.10414777221679687,0.01277255220832303
1783169793540672000,5.213672119140625,-0.08753770593851805,0.07667348983585834,-0.02455439461255446
1783169793550742300,5.2237421875,-0.12735124541074036,0.060008770760893816,0.008920817816769703
1783169793560812000,5.23381201171875,-0.12405337290912866,0.08283844220638274,-0.031065201278682796
1783169793570882000,5.243882080078125,-0.08286737603992224,0.0945475847005844,-0.04799025179026648
1783169793580951300,5.253951416015625,-0.06734159786701202,0.11248071627616882,-0.04047293496271595
1783169793591021000,5.26402099609375,-0.06934212403446435,0.1160018761396408,-0.04546695299088023
1783169793601091000,5.274091064453125,-0.08590688986629247,0.09560849193036555,-0.04171669707926921
1783169793611161000,5.2841611328125,-0.07605828054696322,0.055556467527151106,-0.02811666280454956
1783169793621231000,5.294231201171875,-0.018773089531064033,0.053508887347579,-0.06169681517938152
1783169793631301000,5.304301025390625,-0.02057429373413324,0.03142623487710953,-0.1059097860537935
1783169793641371100,5.31437109375,-0.016649813766777516,0.045267128702998156,-0.08640483858422375
1783169793651441200,5.324441162109375,-0.05184621483236551,0.053149990907311435,-0.09432841639141551
1783169793661509000,5.334509033203125,-0.03243044348359108,0.054012745216488835,-0.06021924430695362
1783169793671579100,5.3445791015625,-0.03190934221893549,0.04846446343958378,-0.029921958660846574
1783169793681649200,5.354649169921875,-0.03142857296466827,0.05963409222960472,0.0029825046758167446
1783169793691719200,5.36471923828125,-0.03269961581379175,0.08464227675795555,0.023857854582602155
1783169793701789200,5.3747890625,-0.007094634436070919,0.08399462650418281,0.013706042799307032
1783169793711858000,5.38485791015625,-0.03190729639232159,0.10881342594027518,0.03254394119489006
1783169793721928200,5.39492822265625,-0.10422989754229783,0.1081073234975338,0.028115018836734815
1783169793731998200,5.404998291015625,-0.08767273049503564,0.10497545521259308,0.03452967165200971
1783169793742068000,5.41506787109375,-0.06823387053161858,0.1542570802539587,-0.0299086242552381
1783169793752138200,5.42513818359375,-0.09714403093457222,0.135944009450078,-0.028580599655024706
1783169793762208300,5.435208251953125,-0.09781740015149117,0.12223580209314823,-0.03525693561378866
1783169793772278000,5.445278076171875,-0.060006140412390226,0.11440846946835517,-0.0784792514830362
1783169793782348000,5.45534814453125,-0.027068331928551195,0.10046703787744045,-0.09671589604984036
1783169793792417000,5.4654169921875,-0.13041180202513933,0.10846738898158073,-0.14019225061223842
1783169793802487000,5.475487060546875,-0.1556836059257388,0.04480301832258701,-0.13275619146050885
1783169793812557300,5.485557373046875,-0.1435576993241906,0.009991232660412788,-0.12065593989002518
1783169793822626800,5.495626708984375,-0.11258125404119491,0.046640755143761634,-0.10870258597694336
1783169793832696800,5.50569677734375,-0.0966828431636095,0.05977730009257793,-0.110374492111383
1783169793842766800,5.515766845703125,-0.06055471420586109,0.08256430144011974,-0.09067535551027395
1783169793852836900,5.5258369140625,-0.022264438778162,0.07938216427266598,-0.05748219315903261
1783169793862907000,5.535906982421875,-0.037998306743800635,0.055202831783890724,-0.015874765140516684
1783169793872976000,5.545975830078125,-0.042920565576851366,0.038739188238978386,0.0046529586386866864
1783169793883046000,5.5560458984375,-0.04341594787836075,0.08602174841761588,-0.014280627816868945
1783169793893115600,5.56611572265625,-0.023519991797208786,0.10147650718092918,0.016368065082794054
1783169793903186000,5.57618603515625,0.0034200375765562055,0.10779928046166896,0.003334505584416911
1783169793913256000,5.586255859375,0.018657938718795775,0.0810667563587427,-0.004317927131196483
1783169793923325700,5.59632568359375,-0.013026070311665534,0.05430792877078056,0.013737743978668003
1783169793933396000,5.60639599609375,-0.012839607828855513,0.058768415310978886,-0.0197023058057297
1783169793943465700,5.6164658203125,-0.02366612226963043,0.06511983016431332,-0.049886659996118396
1783169793953534700,5.62653466796875,-0.04822948563992977,0.06930149976313114,-0.07344672807538881
1783169793963605000,5.63660498046875,-0.01957709939032793,0.07789806319475173,-0.09940480634025298
1783169793973674800,5.6466748046875,-0.025749066023528576,0.05265957704186439,-0.08042531665004789
1783169793983744800,5.656744873046875,-0.10613836151212454,0.06575929711163044,-0.07876633392926305
1783169793993814800,5.666814697265625,-0.10331658208966255,0.0782785869449377,-0.09446429033130407
1783169794003884800,5.676884765625,-0.030993688678741454,0.053476738643646236,-0.05814243803289718
1783169794013954800,5.686954833984375,-0.010530161842703818,0.026437925070524212,-0.026840021331701425
1783169794024024800,5.69702490234375,-0.051827217870950695,0.046343818023800845,-0.0076821246009785675
1783169794034096600,5.7070966796875,-0.05581073454916477,0.07179857727587223,0.011671769625879824
1783169794044167000,5.7171669921875,-0.042784664237499236,0.11528817491233348,0.011235323570528997
1783169794054236000,5.72723583984375,-0.03749795600622892,0.1161982754945755,0.00888632189212367
1783169794064305700,5.7373056640625,-0.06120645611286163,0.09258183758556843,-0.0054778925549704574
1783169794074376000,5.7473759765625,-0.0561383590683341,0.09515841007530688,-0.018335647961869834
1783169794084445700,5.75744580078125,-0.029348844081163405,0.07542027490437031,-0.036503803002880884
1783169794094515700,5.767515625,-0.0019335984110832214,0.08185527638792992,-0.05087221870105713
1783169794104586000,5.7775859375,0.060740007644891736,0.0880383489370346,-0.06585905855852178
1783169794114655700,5.78765576171875,-0.0004991816937923431,0.038324177697300905,-0.0296821402892936
1783169794124725800,5.797725830078125,-0.11298866579830646,-0.017112462842464447,-0.04544179115016013
1783169794134794800,5.807794677734375,-0.011286240907013415,0.010158990442752838,-0.041940299534960646
1783169794144864800,5.81786474609375,0.04980009595751762,0.047266778087615965,-0.008985704313102178
1783169794154934800,5.827934814453125,-0.0061906713336706155,0.05901099189519882,-0.02048881197434384
1783169794165004800,5.8380048828125,-0.0575499794319272,0.046583471998572344,-0.05480819730996154
1783169794175074800,5.84807470703125,-0.08635726398229598,0.03526186751723289,-0.05457305968010332
1783169794185144800,5.858144775390625,-0.06260112534165382,0.04628185870349407,-0.07983911425992846
1783169794195214800,5.86821484375,-0.019575053563714025,0.04009878615438938,-0.0971395191562362
1783169794205284900,5.878284912109375,-0.08662000657171011,0.02041150438785553,-0.09626083662556484
1783169794215355000,5.88835498046875,-0.10920388656258583,0.0319850378036499,-0.04690427405131049
1783169794225424000,5.898423828125,-0.09479103806763887,0.04010112424194812,0.011856492242752573
1783169794235494000,5.908493896484375,-0.05726181014031172,0.04765022444725037,0.03176723033450544
1783169794245563600,5.918563720703125,-0.0864478648751974,0.06800269212424755,0.021997357940347864
1783169794255634000,5.928634033203125,-0.07481237213909625,0.08513327514529227,0.04885425734161399
1783169794265704000,5.938703857421875,-0.04066606464833021,0.10235270549356937,0.045183491840423085
1783169794275773700,5.948773681640625,-0.07144494153261184,0.07544891647696494,0.008461392744630574
1783169794285844000,5.958843994140625,-0.10885492699444294,0.06990647991895675,-0.010736434137681498
1783169794295912700,5.96891259765625,-0.09613046997785568,0.08094634484946728,-0.026696155881602315
1783169794305982700,5.978982666015625,-0.07001403194665909,0.0737602327376604,-0.05560150311212055
1783169794316053000,5.989052978515625,-0.08444470835924148,0.09027940586209296,-0.05624262316040694
1783169794326122800,5.999122802734375,-0.08508943600356578,0.11968553308844565,-0.06604430633177981
1783169794336192800,6.00919287109375,-0.07643675847053527,0.1161895076662302,-0.10331948643280192
1783169794346263000,6.019262939453125,-0.10611147350519895,0.09144961868524551,-0.07312275681803003
1783169794356332800,6.029332763671875,-0.13746113601475954,0.0774421361207962,-0.05431675139805302
1783169794366402800,6.03940283203125,-0.11720599123239517,0.07960545163452624,-0.07109154325136914
1783169794376471800,6.049471923828125,-0.10132570053339005,0.09961597400605678,-0.039685099920118226
1783169794386541800,6.059541748046875,-0.05555705204904079,0.11005787304341792,-0.01419489489533007
1783169794396611800,6.06961181640625,-0.05336860209405422,0.11413257513642311,-0.017399874082254244
1783169794406681900,6.079681884765625,-0.06526537611484527,0.07293547235131263,-0.013188256869744508
1783169794416751900,6.089751953125,-0.029584406402707097,0.07253741294443607,-0.01726495912359096
1783169794426821600,6.099821533203125,-0.030622809539735316,0.040354806742072105,-0.01494706496950239
1783169794436892000,6.109891845703125,-0.008403671208024025,0.03436988711357117,-0.0419957514826674
1783169794446962000,6.1199619140625,-0.020810148316621778,0.042892216265201566,-0.04231794177489355
1783169794457030700,6.13003076171875,-0.031731647564470764,0.08288111230432987,-0.03879411503029987
1783169794467101000,6.140100830078125,-0.04881371526867151,0.0756646050542593,-0.040420391924725844
1783169794477170700,6.150170654296875,-0.01613280415534973,0.10696692129075526,-0.04529679318889975
1783169794487240700,6.16024072265625,-0.022857728496193885,0.09327449602484703,-0.05286432410003617
1783169794497311000,6.17031103515625,-0.05508651192784309,0.09268412891626357,-0.07990295501006767
1783169794507380700,6.180380615234375,-0.09213175573050975,0.059632923185825346,-0.13032412374168634
1783169794517450800,6.19045068359375,-0.09860270531028509,0.029223756396770474,-0.12035016187648288
1783169794527520800,6.200520751953125,-0.09922375981807709,0.05216214891374111,-0.13533284614863805
1783169794537589800,6.21058984375,-0.11178922688066958,0.059279871964454646,-0.10641091310949996
1783169794547659800,6.22065966796875,-0.10355039084553717,0.035114568001031875,-0.055188337467657396
1783169794557729800,6.230729736328125,-0.09057721976488828,0.03446107252836227,-0.014346121667977422
1783169794567799800,6.2407998046875,-0.09008563685566186,0.07753449057936668,0.03227396514709108
1783169794577869800,6.250869873046875,-0.0880342572838068,0.14225801490247247,0.041856050751032305
1783169794587939800,6.26093994140625,-0.015558511398732662,0.2168190426290035,-0.003175524763576686
1783169794598009900,6.271009765625,-0.05213672221153974,0.2312760225266218,0.03954398354953155
1783169794608080000,6.281079833984375,0.029604280146956444,0.19702596240043638,-0.005857292927149683
1783169794618148900,6.29114892578125,-0.035974984222650525,0.16326397805213927,-0.0683674429165665
1783169794628219000,6.301218994140625,-0.0365513228058815,0.11530103439390658,-0.09258746360875665
1783169794638288600,6.31128857421875,-0.01492898132354021,0.0985959833085537,-0.1533913485364057
1783169794648359000,6.32135888671875,0.0032230536997318268,0.09724807583093642,-0.15186354531408286
1783169794658429000,6.331428955078125,-0.003942600145936012,0.07857201693356036,-0.12681093712211586
1783169794668498700,6.341498779296875,-0.03397124318480491,0.08097732450962067,-0.07785813304316253
1783169794678569000,6.35156884765625,-0.0383639251857996,0.08234744381904602,-0.0833977565895766
1783169794688639000,6.361638916015625,-0.009828735575079918,0.05184709161520004,-0.048204492762568406
1783169794698707700,6.371707763671875,0.018435820400714873,0.014606032979488372,-0.04850450775560457
1783169794708778000,6.381778076171875,0.030616672059893605,-0.023321254354715347,-0.005732579702092335
1783169794718847700,6.39184765625,-0.001471241596341133,-0.08933014231324195,0.0009048444518120959
1783169794728917800,6.401917724609375,-0.022953882347047327,-0.1005038627564907,0.009829137433879077
1783169794738988000,6.411988037109375,-0.040083296324312685,-0.0869973154515028,0.02990361015340313
1783169794749057800,6.422057861328125,-0.018490765458345413,-0.05480769498646259,0.04166551488130353
1783169794759127800,6.4321279296875,0.007024784070253372,-0.007164484801888466,0.053622727552172726
1783169794769196800,6.44219677734375,0.001236263796687126,0.0371960504502058,0.06795920460897031
1783169794779266800,6.452266845703125,0.0026738953843712804,0.08899345770478248,0.05327272680441383
1783169794789336800,6.4623369140625,0.010023965886235237,0.0952706382781267,0.04362927096863277
1783169794799406800,6.47240673828125,0.005226210215687752,0.08767360727787017,0.0018109310126397757
1783169794809476900,6.482476806640625,-0.039813539472222326,0.07929857764244079,-0.04689821876985952
1783169794819547100,6.492547119140625,-0.07300327689051628,0.095249595490098,-0.06797886372408829
1783169794829617000,6.502616943359375,-0.05377952098250389,0.13371931913793086,-0.12244549932107329
1783169794839687200,6.512687255859375,-0.06747720694541931,0.1632674851834774,-0.13369749089861288
1783169794849756000,6.522755859375,-0.09935235463380813,0.1435205821841955,-0.1576744144167751
1783169794859826200,6.532826171875,-0.07730389669388532,0.1197708732843399,-0.13216945934742688
1783169794869896200,6.542896240234375,-0.10224866059720515,0.10949088681042193,-0.12179770293682812
1783169794879966000,6.552966064453125,-0.10009645099937915,0.1065992570221424,-0.11211672353567555
1783169794890036200,6.5630361328125,-0.08517302263379097,0.11044541105628013,-0.07227389860346448
1783169794900106000,6.57310595703125,-0.0840215145111084,0.0949573345452547,-0.013337387583428062
1783169794910176000,6.583176025390625,-0.07567103479504585,0.09014496582746505,-0.01125888710920699
1783169794920246000,6.59324609375,-0.05897650510370731,0.09420096322000027,-0.013601915704552084
1783169794930315000,6.60331494140625,-0.06637129153013228,0.06706921066641808,0.012884236988448537
1783169794940385000,6.613385009765625,-0.052988078343868254,0.04458206904828548,0.012821597248129545
1783169794950455000,6.623455078125,-0.07351356450021267,0.022076807251572607,0.02057549931053072
1783169794960525000,6.633525146484375,-0.04336714030057191,0.0016863456517457961,0.026649690957949494
1783169794970595000,6.643594970703125,-0.0028390228182077408,-0.00319850378036499,0.02232447556944098
1783169794980665000,6.6536650390625,-0.005920622220635414,0.01692833844721317,-0.00028386300925631075
1783169794990735000,6.663735107421875,-0.018187398597598076,0.008860767325758934,-0.008997111623105592
1783169795000804000,6.67380419921875,-0.03275485313236713,0.021807927182316778,-0.04144114067405462
1783169795010874000,6.6838740234375,0.002505553080141544,0.05454933631122112,-0.04883197701114695
1783169795020944100,6.693944091796875,0.018720774821937083,0.07432195827364921,-0.056165283607877786
1783169795031014000,6.704013916015625,0.02590747145563364,0.09965046079754829,-0.07454281164982822
1783169795041084200,6.714084228515625,-0.005254851788282394,0.10981821906864643,-0.06388204569739755
1783169795051154200,6.724154296875,-0.013356617440283297,0.0943868411809206,-0.0530489873514045
1783169795061224000,6.734223876953125,-0.04812251813411712,0.058198506468534465,-0.0757030236687744
1783169795071294000,6.7442939453125,-0.04307546387761831,0.035388124245405196,-0.08513521137405186
1783169795081363000,6.754363037109375,-0.04444967484027147,0.06120704063475132,-0.06305844978825188
1783169795091433000,6.764432861328125,-0.04566577263176441,0.0669417848944664,-0.058919094094354654
1783169795101503200,6.774503173828125,-0.04876929160505533,0.08372399286925793,-0.030603597949189133
1783169795111573000,6.784572998046875,-0.06719459061175584,0.08427168987989425,-0.005511653260677121
1783169795121643000,6.79464306640625,-0.08764671927094458,0.08568857094049454,-0.01991488911048509
1783169795131713000,6.804713134765625,-0.12387918538600205,0.09063421064913273,-0.03730634242426604
1783169795141783000,6.814782958984375,-0.09462094219774007,0.08416472237408161,-0.05505337684322148
1783169795151852000,6.82485205078125,-0.06743541363030672,0.10922551387250423,-0.04253956690263003
1783169795161922000,6.834922119140625,-0.0812672473669052,0.1079851584225893,-0.039628561127022836
1783169795171992000,6.844991943359375,-0.03828735281825065,0.08719196124076843,-0.021525845138193108
1783169795182062000,6.85506201171875,-0.06626666211187839,0.09783610485196113,-0.011959619257086888
1783169795192132000,6.865132080078125,-0.04522971930205822,0.09148352095484732,-0.03508602232655976
1783169795202202000,6.8752021484375,-0.025780337944626808,0.07565349913835526,-0.05241019625752233
1783169795212272000,6.885272216796875,-0.015445406413078308,0.03937339448928833,-0.05325939239880535
1783169795222342000,6.895341796875,-0.01554419061243534,0.006194762986898422,-0.03566303219664842
1783169795232411100,6.9054111328125,-0.0699871439397335,0.016153262421488762,-0.031036897632805628
1783169795242481000,6.91548095703125,-0.04077975415587425,0.05510521662831306,-0.03453724303711205
1783169795252551200,6.92555126953125,-0.012084405547380446,0.05005202489197254,-0.019514025825168937
1783169795262621200,6.93562109375,-0.035190263585746284,0.07116144841611385,0.0073106472403509535
1783169795272691000,6.94569091796875,-0.054881929266452786,0.0858206728875637,0.006844116573990322
1783169795282761200,6.95576123046875,-0.03438976085782051,0.08064122442305087,0.012025414502294733
1783169795292831200,6.965831298828125,-0.039813539472222326,0.07422317407429217,0.009235523488861508
1783169795302900000,6.97589990234375,-0.026552491360902784,0.08361118014454841,-0.0018114744353340938
1783169795312970200,6.98597021484375,-0.02011339822411537,0.04409808492362499,-0.01822283067058306
1783169795323040000,6.9960400390625,-0.025389585061371324,0.036381811457872386,-0.013026326039992273
1783169795333110000,7.006110107421875,-0.028941140063107013,0.07478314604461192,-0.014816374094807542
1783169795343180300,7.01618017578125,-0.05170739088356495,0.08714403044581413,-0.043229357531387354
1783169795353250000,7.02625,-0.03154313925504684,0.09544424127936363,-0.029213317201146855
1783169795363320000,7.036320068359375,-0.04271452161073684,0.08079144654870032,-0.0470508931474993
1783169795373389000,7.04638916015625,-0.004117372190952301,0.0687017803043127,-0.014655342880776152
1783169795383459000,7.056458984375,-0.0072968790099024764,0.08097381737828255,0.02085374086317606
1783169795393529000,7.066529052734375,-0.07020166347324848,0.08466390406787395,-0.04072841669428162
1783169795403599000,7.07659912109375,-0.11079203253686427,0.08808043451309204,-0.05106648546440992
1783169795413669000,7.086669189453125,-0.08229396006613969,0.0549509028494358,-0.04740120442251209
1783169795423739000,7.09673876953125,-0.0092412910759449,0.06220481950044632,-0.07485346220131031
1783169795433809200,7.10680908203125,-0.003038344782590866,0.0372352134168148,-0.05679349394224118
1783169795443879200,7.116879150390625,-0.053071080452203746,0.048343467408418654,-0.056018340284703295
1783169795453948000,7.126947998046875,-0.07910159376561642,0.0729547615736723,-0.03843441943901125
1783169795464018200,7.13701806640625,-0.054474517509341236,0.08038461931347847,0.02687123388729524
1783169795474088000,7.147087890625,-0.043456572149693964,0.08975684329271316,-0.07417249419982545
1783169795484158000,7.157157958984375,-0.03564092996269464,0.09845745162069797,-0.045991406123246995
1783169795494228200,7.167228271484375,-0.09586129764765501,0.10968144094645976,-0.01748999091796577
1783169795504298000,7.177298095703125,-0.04563274714499712,0.09342647171616554,-0.018946614900487473
1783169795514368000,7.187367919921875,-0.02153086380660534,0.0860907220005989,-0.017163581108348442
1783169795524437000,7.19743701171875,-0.03861994577348232,0.08481120358407497,-0.040547004845924675
1783169795534507000,7.207507080078125,-0.030380525216460227,0.09721943425834179,-0.0399060811604606
1783169795544577000,7.217576904296875,-0.0157660166695714,0.08258826683759689,-0.05351414347800892
1783169795554647000,7.22764697265625,0.01637713430523872,0.0719610743612051,-0.007653505861270241
1783169795564717000,7.237717041015625,-0.005873860469460487,0.05529226363301277,-0.03164994693065527
1783169795574787000,7.247787109375,0.017918226267397402,0.045187049204111096,-0.04771675491139758
1783169795584857000,7.257857177734375,-0.015946633933484552,0.019803017100691794,0.02279958226790186
1783169795594926000,7.267926025390625,-0.0340481078132987,0.06660860741734505,-0.009439688308432233
1783169795604995800,7.277995849609375,-0.06421148314774036,0.0881733734935522,-0.11293633282287045
1783169795615066000,7.288066162109375,-0.03872194484323263,-0.03137771956026554,-0.029356294451968277
1783169795625136000,7.29813623046875,-0.004898877957463264,0.007258008304238319,-0.025184605107759123
1783169795635206000,7.308205810546875,-0.032554362124204636,0.04774140986204147,-0.019597180913842747
1783169795645276200,7.318276123046875,-0.08318564820885657,0.04876490769088268,0.015154714087524916
1783169795655346200,7.32834619140625,-0.028120179069042205,0.07273498134315014,0.008829573036474175
1783169795665415200,7.338415283203125,0.03782148887217045,0.09361059611141681,-0.005414298400003462
1783169795675485200,7.348485107421875,-0.02256020685434341,0.049481531527638435,-0.044849734407989304
1783169795685555000,7.358554931640625,-0.08104220643937587,0.05119418066442012,-0.0978510284264572
1783169795695625000,7.368625,-0.1281441493541002,0.09103928431868552,-0.131203609989956
1783169795705695200,7.3786953125,-0.10733341651558875,0.0781394707351923,-0.09262264451999216
1783169795715765000,7.388764892578125,-0.052690556702017784,0.09752455468475818,-0.03525393765581539
1783169795725835000,7.3988349609375,-0.02931201920211315,0.11159575013518333,-0.030667507197987286
1783169795735905300,7.4089052734375,-0.04021072209626436,0.08644611130952834,-0.02978410054313717
1783169795745974000,7.41897412109375,-0.031010932074487206,0.07995908737778663,0.008498012127703987
1783169795756044000,7.4290439453125,-0.0040814240947365755,0.09686462947130203,-0.023091856912476942
1783169795766114000,7.439114013671875,-0.022798107263445853,0.10220248336791991,-0.054397858376824294
1783169795776184000,7.44918408203125,-0.012666004827618598,0.08615443488657475,-0.042269627387449146
1783169795786254000,7.459254150390625,0.0026847090393304824,0.06378887382149696,-0.02461578082741471
1783169795796324000,7.469323974609375,-0.04899813192486763,0.05518997230231762,-0.005338392752734944
1783169795806393000,7.47939306640625,-0.028420623320341107,0.00215630125105381,-0.011103785595751833
1783169795816463000,7.489463134765625,-0.0005292845711112023,0.007080313649773597,0.011727317471709102
1783169795826533000,7.499533203125,-0.017313538372516632,0.046669396716356275,-0.02811434983316576
1783169795836603100,7.50960302734375,-0.025753449937701223,0.04123042053282261,-0.03498133582609007
1783169795846673000,7.5196728515625,-0.05106266323924064,0.0451999086856842,-0.05835307597573846
1783169795856743200,7.5297431640625,-0.08410860827267169,0.050668695485591886,-0.029543108561227563
1783169795866813200,7.539813232421875,-0.060844052541255945,0.03480769400894642,-0.02767956144536147
1783169795876883000,7.549883056640625,-0.05880524019002914,0.02692833893597126,-0.02437004873830592
1783169795886952200,7.5599521484375,-0.023906068505346774,0.029673838251829145,-0.01232339051858289
1783169795897022000,7.57002197265625,-0.026818156559765337,0.06897533654868603,0.0089743792014895
1783169795907092000,7.580092041015625,-0.01341886902153492,0.11153028368353843,0.025038241739897056
1783169795917162200,7.590162353515625,-0.029079087229073045,0.10867138712108135,-0.003548700890946202
1783169795927232000,7.60023193359375,-0.11855448323190211,0.10347206491231918,-0.043006033636908976
1783169795937302000,7.610302001953125,-0.09066139091700315,0.1038496660530567,-0.0897365128907375
1783169795947372300,7.620372314453125,-0.06741232501566409,0.046754736912250516,-0.07139200120239984
1783169795957441000,7.63044091796875,-0.06794833158850669,0.0527899254232645,-0.06233109449492767
1783169795967511300,7.64051123046875,-0.09499269811958073,0.05904547868669033,-0.0676127155591268
1783169795977581000,7.6505810546875,-0.08497954588830471,0.07857844667434692,-0.06132428750598337
1783169795987651000,7.660651123046875,-0.07825929772257804,0.059717094337940216,-0.04000024855020456
1783169795997721000,7.67072119140625,-0.08278992688953876,0.07085632798969745,0.00035986341300304044
1783169796007791000,7.680791015625,-0.04835223523676395,0.07056114443540573,0.010087643381237285
1783169796017861000,7.690861083984375,-0.05010083246976137,0.09590601357221602,0.035845898499863686
1783169796027930000,7.70093017578125,-0.0688935034841299,0.10655424883663654,0.017177787730214184
1783169796038000000,7.711000244140625,-0.07216390345692635,0.08836392762959003,-0.01396325983023271
1783169796048070100,7.721070068359375,-0.0638613545358181,0.053392567491531366,-0.02734923579574097
1783169796058140200,7.73114013671875,-0.11527180829942225,0.0493739794999361,-0.06356370959638152
1783169796068210200,7.741210205078125,-0.09378653720021247,0.024122633865475654,-0.04365215865387581
1783169796078280200,7.7512802734375,-0.059735214516520495,0.043726329001784324,-0.022410957409651017
1783169796088350000,7.761349853515625,-0.07105389638841152,0.05265548538863658,-0.04258547013727948
1783169796098419200,7.771419189453125,-0.06895166341215371,0.06633037499785423,-0.03682746829956304
1783169796108489000,7.781489013671875,-0.06454466062486171,0.08853285445570945,-0.018541551505733514
1783169796118559200,7.791559326171875,-0.0684992434695363,0.12558102086782455,-0.017876839377661234
1783169796128629200,7.801629150390625,-0.07350830380320549,0.11786474740207195,-0.02466665934799239
1783169796138699000,7.811698974609375,-0.04455985721647739,0.09788228208124637,0.011296648136596196
1783169796148769000,7.82176904296875,-0.03358545873761177,0.10163725070059298,0.013575792599318083
1783169796158838000,7.831838134765625,-0.06518325078934431,0.0736386521846056,-0.006091622272832319
1783169796168908000,7.841907958984375,-0.10074059412181377,0.06781564511954784,-0.038015072932222393
1783169796178978300,7.851978271484375,-0.11943769580721854,0.06742635354101657,-0.07671848888820969
1783169796189048000,7.862048095703125,-0.11092764161527156,0.09364449838101864,-0.052610687265684825
1783169796199118000,7.8721181640625,-0.09287819018363952,0.115714291369915,-0.05471654153771233
1783169796209188000,7.88218798828125,-0.11447218235433101,0.0899205094218254,-0.03828954249204835
1783169796219258000,7.892258056640625,-0.14696107802689073,0.10658756658434868,-0.03764648621500237
1783169796229328100,7.902328125,-0.13324936353862285,0.13087620466649533,-0.009680223632615524
1783169796239397000,7.912397216796875,-0.16228081223368643,0.11391513299345969,-0.021220587714458814
1783169796249467100,7.922467041015625,-0.13914134418666363,0.07778525047004223,-0.01969395353591535
1783169796259537200,7.932537109375,-0.09148907391279935,0.10722118831276893,-0.01587999158819439
1783169796269607200,7.942607177734375,-0.11506021137535571,0.11051906081438063,-0.037912820417433976
1783169796279677200,7.95267724609375,-0.11523235307186841,0.10789631109535694,-0.060356643483648074
1783169796289747000,7.962746826171875,-0.10542816741615534,0.10272679950296879,-0.04136995686767623
1783169796299816200,7.972816162109375,-0.08611351835429668,0.1318535252660513,-0.05034616726664826
1783169796309886200,7.98288623046875,-0.06714169138073921,0.1639548829257488,-0.05466156908061821
1783169796319956000,7.9929560546875,-0.06496960803866386,0.14857377392053603,-0.0544234540423844
1783169796330026200,8.003026123046874,-0.0841828425526619,0.1387245800793171,-0.043846229054406285
1783169796340096000,8.013095947265626,-0.08211392732411622,0.12544482726752756,0.0016227309471811167
1783169796350166000,8.023166015625,-0.11999094577580689,0.0909141966342926,-0.02186868320951471
1783169796360236300,8.033236328125,-0.0979722984522581,0.07766366991698742,-0.025868982059170955
1783169796370305000,8.043304931640625,-0.054231940925121305,0.064963762819767,-0.023190145638200918
1783169796380375000,8.053375,0.005428454789519309,0.03413958548903465,-0.018357995649351505
1783169796390445000,8.063445068359375,0.028669045123457908,0.028020810347795484,-0.04476306990468874
1783169796400515000,8.07351513671875,-0.08191694344729185,0.07392974408566952,-0.06465592071330174
1783169796410585000,8.083585205078125,-0.16431377936601638,0.03886252235770225,-0.06933428322130349
1783169796420655000,8.093655029296874,-0.11192249787151813,0.06115092653334141,-0.06550912174284458
1783169796430725000,8.10372509765625,-0.07459025382101535,0.03827975403368473,-0.06275445273984223
1783169796440794000,8.113794189453126,-0.03715045774281025,0.02478898881971836,-0.00901595560418209
1783169796450864000,8.123864013671875,-0.027018939828872678,0.06043430269658565,0.014024375475390115
1783169796460934100,8.13393408203125,-0.04984744223058223,0.10520224970579146,0.010226797265245113
1783169796471004000,8.14400390625,-0.05062602538764476,0.12120996617674827,-0.020492947010055648
1783169796481074200,8.15407421875,-0.01480301685631275,0.12576222265362738,-0.004721025756082963
1783169796491144200,8.164144287109375,0.0012269114464521407,0.1335784493625164,0.012099027727777137
1783169796501214000,8.1742138671875,-0.027990415209531782,0.1135790329068899,-0.021130749439960343
1783169796511283200,8.184283203125,-0.023223639199137686,0.06637772127091884,-0.048766355295875106
1783169796521353000,8.19435302734375,-0.025859248399734497,0.06414192504286766,-0.08244169797375797
1783169796531423000,8.204423095703126,-0.037085575813055036,0.06993395244777202,-0.0834445822728332
1783169796541493200,8.2144931640625,-0.083457158626616,0.051435003682971,-0.10148471788684837
1783169796551563000,8.22456298828125,-0.11440233198851346,0.055549453264474864,-0.12050280428808181
1783169796561633000,8.234633056640625,-0.07516600788235664,0.032302433189749714,-0.07143861682310235
1783169796571703300,8.244703369140625,-0.05358896684646606,0.01953179894387722,-0.03119600631780922
1783169796581772000,8.25477197265625,-0.06180529878884553,0.0379541753411293,-0.018718099949305178
1783169796591842000,8.264842041015624,-0.0311965177744627,0.07930559190511703,-0.015007093769271158
1783169796601912000,8.274912109375,0.0017804536759853363,0.10093874704241752,-0.01253610967901186
1783169796611982000,8.284982177734374,-0.005637421365082264,0.08689327055513858,-0.02110844627660699
1783169796622052000,8.295052001953126,0.0030099954709410666,0.0634597879976034,-0.014688734835368812
1783169796632122000,8.3051220703125,0.005630114841461181,0.04876373864710331,-0.017201831901149125
1783169796642191000,8.315191162109375,0.011840367658436298,0.05056640415489674,-0.021477880093909333
1783169796652261000,8.32526123046875,0.01712941397726536,0.05378945785462856,-0.028210951208590993
1783169796662331100,8.3353310546875,0.031022914773225784,0.055980245897173875,-0.040685897293384184
1783169796672401200,8.345401123046875,0.0261205296844244,0.07648878091871739,-0.04936252195758279
1783169796682471000,8.355470947265625,0.011756488767266272,0.046883331727981564,-0.0308573375315289
1783169796692541200,8.365541259765624,-0.015608488020300864,0.05326221911013126,-0.02406420450939331
1783169796702611200,8.375611083984374,-0.023016426189243794,0.05245324081480503,-0.013694717687694355
1783169796712680200,8.38568017578125,0.03204261320978403,0.040139118164777755,-0.015522168293583672
1783169796722750200,8.395750244140626,0.014686989261209964,0.03609773381948471,-0.00048174193522427226
1783169796732820000,8.405820068359375,-0.011209668539464474,0.031250293788313864,-0.028796384130441582
1783169796742890200,8.41589013671875,-0.023124270477890965,0.032549101427197455,-0.037215294006792826
1783169796752960300,8.425960205078125,0.03683072426915168,0.025064883151650428,-0.07681203065686859
1783169796763030000,8.436030029296875,0.029371640434861183,0.016628478717803954,-0.06562957891789264
1783169796773100000,8.44610009765625,-0.0017044658303260803,-0.02970014173686504,-0.015615751161437947
1783169796783169000,8.4561689453125,0.004744271917641162,0.011388239976763725,-0.013304024169943295
1783169796793239000,8.466239013671874,-0.014236907406151293,0.10977788705825806,-0.07126280359847005
1783169796803309300,8.476309326171876,0.0004544657692313194,0.023598317730426786,0.027272259286104234
1783169796813379000,8.486379150390626,0.028749124622344968,0.04771510637700557,0.004002360659290571
1783169796823449900,8.496449951171876,-0.01290682784616947,0.04739186577200889,0.0060796070372307436
1783169796833519900,8.506519775390625,-0.06260872412621975,0.053552726489305494,0.0005234325023484416
1783169796843588900,8.5165888671875,-0.0751677614480257,0.03755143975913525,0.005614494293110329
1783169796853659000,8.526658935546875,-0.0595955137848854,0.07153086625039577,0.013772146288480143
1783169796863728600,8.536728759765625,-0.013375614401698111,0.06142798990905284,-0.009624749993666772
1783169796873799000,8.546798828125,0.009525953236222266,0.07060089192390441,-0.03679266413095174
1783169796883869000,8.556868896484374,-0.028499533775448796,0.09241641789078713,-0.03345381344826892
1783169796893938700,8.566938720703124,-0.01970072576999664,0.06023439621031284,-0.04258909599962644
1783169796904009000,8.577009033203124,-0.024863807621598243,0.031401100435853,-0.004100033467906178
1783169796914077700,8.58707763671875,0.0049517771884799,0.04696282670497894,0.0027381733842834362
1783169796924148000,8.59714794921875,0.02944178306162357,0.08501520172357559,-0.013435167135787195
1783169796934218000,8.607218017578125,0.04749707971215248,0.06183715523183345,-0.007379706446657655
1783169796944287700,8.617287841796875,0.06592471680641174,0.11540800189971923,-0.04157333395266905
1783169796954357800,8.627357666015625,-0.10996610310673713,0.09813304197192191,-0.01521149262592662
1783169796964427800,8.637427734375,-0.11239157668799162,0.04106324727237224,-0.041494190602120944
1783169796974496800,8.647496826171874,-0.04100596412718296,0.046154432931542394,-0.03630781920647714
1783169796984567000,8.657567138671874,-0.019307927060127256,0.028536358654499053,-0.043407732605864294
1783169796994636800,8.66763671875,-0.03428220883011818,0.022563713985681532,-0.036343854067660865
1783169797004706800,8.677706787109376,-0.03959288245886564,0.0294710091561079,-0.0258962285424117
1783169797014776800,8.68777685546875,-0.026095102982223034,0.05003682732284069,0.01691415351658943
1783169797024846800,8.697846923828125,-0.011965163081884384,0.05936521216034889,0.04154158710753545
1783169797034916900,8.707916748046875,-0.0014165887996554374,0.0739741677492857,0.043063896737410685
1783169797044985900,8.71798583984375,-0.037060441371798515,0.06529810934066772,0.009543325066953547
1783169797055056000,8.728055908203125,-0.0706803869009018,0.04608370578289032,0.007753687433269806
1783169797065125600,8.738125732421874,-0.02129062530994415,0.06514671817123889,0.005584646002473891
1783169797075196000,8.74819580078125,0.04357259974479675,0.0525941105902195,-0.021381890639837364
1783169797085266000,8.758265869140626,0.03698620709180832,0.03450140453875065,-0.047228665433777496
1783169797095335700,8.768335693359376,0.014666823256015777,0.04015314669013023,-0.030459392289083915
1783169797105405000,8.778405029296875,-0.03396861283630132,0.0473959574252367,-0.043711332362052054
1783169797115474700,8.788474609375,-0.06083996088802814,0.12822539789676665,-0.12538119657994248
1783169797125544700,8.798544677734375,-0.013593348805606364,0.060420274171233176,-0.010176754428306595
1783169797135615000,8.808614990234375,-0.019686989505589007,0.08146656933128833,-0.028928568275901487
1783169797145684700,8.818684814453125,-0.03178396227359771,0.05965922667086124,-0.023460272383049596
1783169797155754800,8.828754638671874,-0.03193652248680592,0.013536357921361923,0.002170170659729774
1783169797165824800,8.83882470703125,-0.06278408069312572,0.06787292826473712,-0.016520403817004987
1783169797175893800,8.848893798828126,-0.07990180423259735,0.04234042760133743,-0.05451986362156458
1783169797185963800,8.8589638671875,-0.018200842601060866,0.0401718513906002,-0.07627481850762852
1783169797196033800,8.86903369140625,0.04622106842696667,0.0867138223350048,-0.06562179747023619
1783169797206103800,8.879103759765625,-0.03620557810813188,0.07109130578935145,-0.01938362264484167
1783169797216173800,8.889173828125,-0.10616963343322276,0.08902677545249461,-0.004310334911085374
1783169797226243800,8.899243896484375,-0.054805064637959,0.09448562538027763,0.02705169132100418
1783169797236312800,8.909312744140625,0.03385550785064697,0.11931553073227405,-0.008693128274427727
1783169797246382600,8.919382568359374,0.056979778328537935,0.10623802249431609,0.005985085166926728
1783169797256452900,8.929452880859374,0.016699790388345716,0.0681049834549427,-0.0015377031337127846
1783169797266523000,8.93952294921875,-0.06705401309728622,0.06519114183485508,-0.03248341349655529
1783169797276592600,8.949592529296876,-0.20007599762082098,0.027562545186281203,-0.059648682443960564
1783169797286663000,8.959662841796876,-0.14857202035486697,0.040785599374771116,-0.019327250531816387
1783169797296733000,8.96973291015625,0.06597323212325573,0.09582301146388053,-0.01986684415109921
1783169797306802000,8.979802001953125,0.1006064463481307,0.03981763112545013,-0.04478695310377515
1783169797316872000,8.989871826171875,-0.08958820872753857,0.05066109670102596,0.007317175162548664
1783169797326941700,8.999941650390625,-0.15894202319979667,0.09238426918685436,0.038219883922475856
