time,seconds_elapsed,z,y,x
1783169788394949400,0.067949462890625,0.1291060745716095,0.27578896284103394,-0.11547744274139404
1783169788405018400,0.078018310546875,0.174806609749794,0.20747852325439453,0.06210719048976898
1783169788415088400,0.08808837890625,0.26211273670196533,0.17714564502239227,0.14401137828826904
1783169788425158100,0.098158203125,0.16060426831245422,0.15242263674736023,0.1342458426952362
1783169788435228400,0.108228515625,0.1935206651687622,0.1766693890094757,0.08656727522611618
1783169788445298400,0.11829833984375,0.13947899639606476,0.18007901310920715,0.06867798417806625
1783169788455368200,0.1283681640625,0.11797743290662766,0.15540429949760437,0.1296718269586563
1783169788465438500,0.1384384765625,0.07443446666002274,0.11629826575517654,0.20072364807128906
1783169788475508200,0.14850830078125,0.035198383033275604,0.1082288846373558,0.225570410490036
1783169788485578200,0.158578125,0.0076235318556427956,0.119209885597229,0.23015549778938293
1783169788495648500,0.1686484375,-0.018885841593146324,0.143193781375885,0.22662706673145294
1783169788505718300,0.17871826171875,-0.03236568719148636,0.16022272408008575,0.2790073752403259
1783169788515788300,0.188788330078125,-0.04579387977719307,0.14343655109405518,0.3380872309207916
1783169788525858300,0.1988583984375,-0.05195405334234238,0.13873043656349182,0.319717139005661
1783169788535928300,0.20892822265625,-0.05988441780209541,0.16725608706474304,0.2431158423423767
1783169788545998300,0.218998291015625,-0.07070270925760269,0.20516778528690338,0.1370093822479248
1783169788556068400,0.229068359375,-0.07847647368907928,0.24178704619407654,0.07362135499715805
1783169788566137300,0.239137451171875,-0.08380822092294693,0.2551196813583374,0.06530506908893585
1783169788576207400,0.249207275390625,-0.08560425788164139,0.23069344460964203,0.08058468997478485
1783169788586277000,0.259277099609375,-0.07956868410110474,0.1928686797618866,0.08563408255577087
1783169788596347400,0.269347412109375,-0.06417641043663025,0.1540062427520752,0.08737632632255554
1783169788606417400,0.27941748046875,-0.047821663320064545,0.14577414095401764,0.06604871153831482
1783169788616487200,0.289487060546875,-0.02799070067703724,0.1490492969751358,0.05016028881072998
1783169788626557400,0.299557373046875,-0.012938540428876877,0.13631600141525269,0.045326367020606995
1783169788636627500,0.30962744140625,0.009928159415721893,0.11830931901931763,0.038648493587970734
1783169788646697200,0.319697265625,0.022980323061347008,0.09152312576770782,0.03250610828399658
1783169788656767500,0.329767578125,0.02756255678832531,0.06869744509458542,0.02551904134452343
1783169788666837200,0.339837158203125,0.02939539961516857,0.04313533753156662,0.008252620697021484
1783169788676907300,0.3499072265625,0.048421286046504974,0.01569892093539238,-0.010536779649555683
1783169788686977300,0.359977294921875,0.06424309313297272,-0.006497271358966827,-0.012349270284175873
1783169788697047300,0.37004736328125,0.07503741979598999,-0.01734805479645729,-0.003987478092312813
1783169788707117300,0.380117431640625,0.06577601283788681,-0.025946728885173798,0.023038702085614204
1783169788717187300,0.390187255859375,0.05524187535047531,-0.02770201861858368,0.03138025477528572
1783169788727256300,0.40025634765625,0.051612261682748795,-0.014305377379059792,0.013717259280383587
1783169788737326300,0.410326416015625,0.05139680951833725,0.00028102193027734756,-0.011971591971814632
1783169788747396400,0.420396240234375,0.05023140460252762,0.021647688001394272,-0.03426879644393921
1783169788757466400,0.43046630859375,0.05698731169104576,0.040324434638023376,-0.03439955785870552
1783169788767536400,0.440536376953125,0.05515848845243454,0.05349623039364815,-0.0059397476725280285
1783169788777606100,0.450606201171875,0.04757753387093544,0.05579054355621338,0.020533138886094093
1783169788787676400,0.460676513671875,0.04481533169746399,0.06241294741630554,0.026498371735215187
1783169788797746400,0.470746337890625,0.03754623234272003,0.06752648204565048,0.00945946667343378
1783169788807816200,0.480816162109375,0.03492274507880211,0.07138512283563614,-0.009889240376651287
1783169788817886500,0.490886474609375,0.0392751507461071,0.06833527237176895,-0.01740521378815174
1783169788827956200,0.500956298828125,0.04462489113211632,0.06039901822805405,-0.005568348336964846
1783169788838026200,0.511026123046875,0.05668315291404724,0.05957583338022232,0.009771726094186306
1783169788848096300,0.52109619140625,0.060430482029914856,0.05842281132936478,0.029762856662273407
1783169788858166300,0.531166259765625,0.06270722299814224,0.05731653422117233,0.04174335300922394
1783169788868236300,0.541236328125,0.06084325537085533,0.04255126416683197,0.05247431993484497
1783169788878306300,0.551306396484375,0.05793534964323044,0.029036257416009903,0.06166888028383255
1783169788888375300,0.561375244140625,0.04804548993706703,0.015956122428178787,0.05324602499604225
1783169788898445300,0.5714453125,0.04177534207701683,0.0034733526408672333,0.05026727914810181
1783169788908515300,0.581515380859375,0.03487587720155716,-0.014259460382163525,0.038342513144016266
1783169788918585300,0.59158544921875,0.019372818991541862,-0.02334962785243988,0.027511704713106155
1783169788928655400,0.6016552734375,0.0037195205222815275,-0.044935956597328186,0.02488747425377369
1783169788938725000,0.61172509765625,0.0007692707004025578,-0.05255446210503578,0.01760852336883545
1783169788948795400,0.62179541015625,0.004795722663402557,-0.051899686455726624,0.006958784535527229
1783169788958865400,0.631865478515625,0.009295666590332985,-0.05225361883640289,-0.004819045774638653
1783169788968935200,0.64193505859375,0.007009593769907951,-0.05514504015445709,0.0009423492010682821
1783169788979005400,0.65200537109375,0.007753148674964905,-0.052102915942668915,0.0034939239267259836
1783169788989075500,0.662075439453125,0.005544640123844147,-0.055677566677331924,0.007172583136707544
1783169788999145200,0.672145263671875,0.0023278077132999897,-0.060151148587465286,0.00794463325291872
1783169789009215200,0.68221533203125,-0.013270089402794838,-0.06417497992515564,0.0038069761358201504
1783169789019285200,0.69228515625,-0.02051095850765705,-0.06412970274686813,-0.018851997330784798
1783169789029355300,0.702355224609375,-0.02469557151198387,-0.061583831906318665,-0.04581763595342636
1783169789039424500,0.712424560546875,-0.024251090362668037,-0.05073012039065361,-0.05474428832530975
1783169789049494300,0.722494384765625,-0.02090669982135296,-0.050380196422338486,-0.03819304704666138
1783169789059564300,0.732564208984375,-0.021470490843057632,-0.04876179248094559,-0.02990316040813923
1783169789069634600,0.742634521484375,-0.023475848138332367,-0.04248058795928955,-0.02045091614127159
1783169789079704300,0.752704345703125,-0.022549068555235863,-0.03397498279809952,-0.008860573172569275
1783169789089774300,0.7627744140625,-0.01969740353524685,-0.0133889801800251,-0.006672403775155544
1783169789099844000,0.772843994140625,-0.02223007008433342,0.008528036065399647,-0.01525204349309206
1783169789109914400,0.782914306640625,-0.02968020923435688,0.024207502603530884,-0.021792994812130928
1783169789119984400,0.792984375,-0.04274887591600418,0.035226866602897644,-0.023873988538980484
1783169789130054100,0.80305419921875,-0.042102813720703125,0.03070051036775112,-0.022041862830519676
1783169789140124400,0.81312451171875,-0.027596842497587204,0.03783325478434563,-0.023611530661582947
1783169789150194400,0.8231943359375,-0.015347078442573547,0.041801679879426956,-0.027249546721577644
1783169789160264200,0.83326416015625,-0.013214152306318283,0.04141365736722946,-0.01964222639799118
1783169789170334500,0.84333447265625,-0.02400132268667221,0.03676582872867584,-0.0070627350360155106
1783169789180404500,0.853404541015625,-0.02935773879289627,0.032459232956171036,0.005387543234974146
1783169789190473200,0.86347314453125,-0.03607344627380371,0.03132496029138565,0.013612627051770687
1783169789200543500,0.87354345703125,-0.03913687914609909,0.034062158316373825,0.01008500438183546
1783169789210613200,0.88361328125,-0.04163040965795517,0.024057839065790176,0.005151297897100449
1783169789220683300,0.893683349609375,-0.04083305969834328,0.017679832875728607,0.0037845636252313852
1783169789230753500,0.90375341796875,-0.03928845003247261,0.01286079827696085,0.00843164324760437
1783169789240823300,0.9138232421875,-0.03683461248874664,0.003309105057269335,0.00867372564971447
1783169789250893300,0.923893310546875,-0.035022590309381485,-0.0017454195767641068,0.00741505017504096
1783169789260963300,0.93396337890625,-0.020794915035367012,0.0012450441718101501,0.0006341096013784409
1783169789271033300,0.944033447265625,-0.012999048456549644,0.0025879358872771263,0.005550148896872997
1783169789281103400,0.954103271484375,-0.008772611618041992,0.004869998432695866,0.022347770631313324
1783169789291173000,0.964173095703125,-0.010771544650197029,0.006884881295263767,0.03038046509027481
1783169789301243400,0.974243408203125,-0.00879388116300106,0.01427355594933033,0.03981950879096985
1783169789311313400,0.9843134765625,-0.005214628763496876,0.02418910339474678,0.0344981774687767
1783169789321383200,0.994383056640625,-0.00629161112010479,0.04409436509013176,0.02592945471405983
1783169789331453400,1.004453369140625,-0.00885429885238409,0.06248616799712181,0.017649177461862564
1783169789341522200,1.014522216796875,-0.012972877360880375,0.07361605018377304,0.006839672103524208
1783169789351592200,1.02459228515625,-0.013223780319094658,0.06819578260183334,0.013091646134853363
1783169789361662500,1.034662353515625,-0.02075386792421341,0.06264336407184601,0.020736783742904663
1783169789371732200,1.044732177734375,-0.02938731573522091,0.04644639045000076,0.01986013725399971
1783169789381802200,1.05480224609375,-0.03029598481953144,0.028054066002368927,0.01751415804028511
1783169789391872500,1.06487255859375,-0.031940486282110214,0.0061365170404314995,0.013356165029108524
1783169789401942300,1.0749423828125,-0.0286051444709301,-0.014959713444113731,0.01985321193933487
1783169789412012300,1.08501220703125,-0.029634468257427216,-0.029585417360067368,0.030514178797602654
1783169789422082300,1.095082275390625,-0.02977881208062172,-0.03561454638838768,0.028647037222981453
1783169789432152300,1.10515234375,-0.03000788204371929,-0.04529254883527756,0.0214429572224617
1783169789442222300,1.115222412109375,-0.032566916197538376,-0.05128013342618942,0.017100675031542778
1783169789452292000,1.1252919921875,-0.04137953370809555,-0.06372646987438202,0.020786074921488762
1783169789462362400,1.1353623046875,-0.05408281832933426,-0.07551760971546173,0.027657562866806984
1783169789472432400,1.145432373046875,-0.05738674849271774,-0.0771898403763771,0.03425385430455208
1783169789482501400,1.15550146484375,-0.04757832735776901,-0.07757067680358887,0.03463548794388771
1783169789492571400,1.1655712890625,-0.03539041429758072,-0.07333353906869888,0.028466153889894485
1783169789502641200,1.17564111328125,-0.02601022832095623,-0.05971279367804527,0.019010867923498154
1783169789512711200,1.185711181640625,-0.024212272837758064,-0.04790157452225685,0.020814945921301842
1783169789522781400,1.195781494140625,-0.018211904913187027,-0.03428749367594719,0.02026313915848732
1783169789532851200,1.205851318359375,-0.019592497497797012,-0.015348047018051147,0.016865277662873268
1783169789542921200,1.215921142578125,-0.016885926946997643,-0.003708701580762863,0.013464421033859253
1783169789552991500,1.225991455078125,-0.01965000294148922,0.003599449060857296,0.0077716270461678505
1783169789563061200,1.236061279296875,-0.026435738429427147,0.007841331884264946,0.001872991444543004
1783169789573131300,1.24613134765625,-0.03499998897314072,0.008530844934284687,0.000031206756830215454
1783169789583201500,1.256201416015625,-0.033796507865190506,0.004133699461817741,0.00046050851233303547
1783169789593271300,1.266271240234375,-0.02473371848464012,0.0022747782059013844,-0.008989554829895496
1783169789603341300,1.27634130859375,-0.01973576471209526,0.001287810504436493,-0.0028626862913370132
1783169789613410300,1.286410400390625,-0.02146204002201557,-0.010115343146026134,0.0005055891815572977
1783169789623480300,1.296480224609375,-0.022332627326250076,-0.010858098976314068,0.00627106660977006
1783169789633550300,1.30655029296875,-0.025013133883476257,-0.01228135172277689,0.0036647135857492685
1783169789643620400,1.316620361328125,-0.024926580488681793,-0.019544057548046112,0.003716645296663046
1783169789653690400,1.3266904296875,-0.0244410652667284,-0.031482040882110596,0.002894509583711624
1783169789663760400,1.336760498046875,-0.02147936448454857,-0.04921016842126846,0.01439670193940401
1783169789673830100,1.346830078125,-0.011012326925992966,-0.05702146142721176,0.02282569743692875
1783169789683900400,1.356900390625,-0.00384682510048151,-0.05662064999341965,0.030084941536188126
1783169789693970200,1.36697021484375,0.001354824984446168,-0.048690490424633026,0.028439301997423172
1783169789704040200,1.377040283203125,-0.0016998208593577147,-0.05421015992760658,0.02348475717008114
1783169789714110500,1.3871103515625,-0.009615562856197357,-0.05216849967837334,0.02178669534623623
1783169789724180200,1.39718017578125,-0.012870213016867638,-0.044155314564704895,0.019068937748670578
1783169789734250200,1.407250244140625,-0.015762435272336006,-0.03271056339144707,0.019649740308523178
1783169789744319200,1.4173193359375,-0.013271847739815712,-0.022235285490751266,0.010901521891355515
1783169789754389200,1.42738916015625,-0.007804526016116142,-0.009141238406300545,0.005212218500673771
1783169789764459300,1.437459228515625,-0.00730651430785656,0.006212949752807617,-0.0005649770610034466
1783169789774529300,1.447529296875,-0.002918724901974201,0.008908933959901333,-0.009635774418711662
1783169789784599300,1.457599365234375,0.004094976000487804,0.010274868458509445,-0.010439781472086906
1783169789794669300,1.46766943359375,0.01598174497485161,0.009952922351658344,-0.00999387726187706
1783169789804739300,1.4777392578125,0.02964322827756405,0.015219056978821754,-0.011517206206917763
1783169789814808600,1.48780859375,0.028710056096315384,0.016742385923862457,-0.011297228746116161
1783169789824878600,1.497878662109375,0.024857794865965843,0.015542631968855858,-0.008475609123706818
1783169789834948900,1.507948974609375,0.020419012755155563,0.010765288956463337,-0.014676492661237717
1783169789845018600,1.5180185546875,0.020966559648513794,0.011849195696413517,-0.01637984998524189
1783169789855088600,1.528088623046875,0.023051343858242035,0.012969033792614937,-0.02360611967742443
1783169789865157600,1.53815771484375,0.024964027106761932,0.008786538615822792,-0.017379116266965866
1783169789875227600,1.5482275390625,0.027139050886034966,0.009630132466554642,-0.019231628626585007
1783169789885297700,1.558297607421875,0.02703864872455597,0.0028214952908456326,-0.021826613694429398
1783169789895367700,1.56836767578125,0.01711382158100605,0.002845417708158493,-0.021424081176519394
1783169789905437700,1.578437744140625,0.012863684445619583,0.0006035687401890755,-0.011391952633857727
1783169789915507700,1.5885078125,0.007155988831073046,-0.002785317599773407,-0.011863647028803825
1783169789925577700,1.59857763671875,-0.00009127147495746613,-0.0021927645429968834,-0.018851514905691147
1783169789935647700,1.608647705078125,-0.0013298832345753908,-0.003972243517637253,-0.026486393064260483
1783169789945717800,1.6187177734375,-0.006722518242895603,-0.010098579339683056,-0.01287151500582695
1783169789955787800,1.628787841796875,-0.011932742781937122,-0.013412382453680038,-0.0024016541428864002
1783169789965857800,1.63885791015625,-0.012746604159474373,-0.013336481526494026,0.0026423726230859756
1783169789975927600,1.648927490234375,-0.013653500005602837,-0.01542974729090929,-0.002698696218430996
1783169789985997600,1.65899755859375,-0.001255952287465334,-0.0156308151781559,-0.008942211046814919
1783169789996066800,1.66906689453125,-0.0016745247412472963,-0.024665724486112595,-0.006909523159265518
1783169790006136600,1.679136474609375,-0.005923864431679249,-0.02656056359410286,0.000842938432469964
1783169790016206800,1.689206787109375,-0.007141482550650835,-0.02904173545539379,-0.0019605550915002823
1783169790026276600,1.699276611328125,-0.004958223085850477,-0.024358564987778664,-0.015237744897603989
1783169790036346600,1.7093466796875,-0.006547314580529928,-0.028076574206352234,-0.019027862697839737
1783169790046416600,1.719416748046875,-0.007683419156819582,-0.03592490777373314,-0.01731172204017639
1783169790056486700,1.729486572265625,-0.006893545854836702,-0.0442890040576458,-0.014408061280846596
1783169790066556700,1.739556640625,-0.003857010044157505,-0.05104038491845131,-0.013878092169761658
1783169790076626700,1.749626708984375,-0.0007752301171422005,-0.05145415663719177,-0.01072920486330986
1783169790086696700,1.75969677734375,0.0006708664586767554,-0.054123975336551666,-0.005672128405421972
1783169790096766700,1.7697666015625,-0.0021267093252390623,-0.050370652228593826,0.004313019569963217
1783169790106836700,1.779836669921875,-0.0023006137926131487,-0.04550638794898987,0.0016546519473195076
1783169790116905700,1.78990576171875,-0.0024532792158424854,-0.03944461792707443,-0.0019338000565767288
1783169790126975700,1.799975830078125,-0.0008681658655405045,-0.023343678563833237,-0.004452351946383715
1783169790137045500,1.81004541015625,-0.0028897211886942387,-0.009459997527301311,-0.000600338913500309
1783169790147115800,1.82011572265625,0.0027908014599233866,0.00498818326741457,-0.0012970217503607273
1783169790157185800,1.830185791015625,0.004687767010182142,0.010653650388121605,-0.00168573297560215
1783169790167255600,1.840255615234375,0.0030778860673308372,0.010339131578803062,0.0002224219497293234
1783169790177325800,1.850325927734375,0.005703716538846493,0.006787058897316456,0.0019046138040721416
1783169790187395800,1.860395751953125,0.004387849010527134,0.005479712970554829,0.005536366254091263
1783169790197465600,1.870465576171875,0.005375886335968971,0.0063038356602191925,0.00789288803935051
1783169790207535600,1.88053564453125,0.007973266765475273,0.005219662562012672,0.004468596074730158
1783169790217605600,1.890605712890625,-0.00018426612950861454,0.0003789607435464859,0.0020617402624338865
1783169790227675600,1.900675537109375,0.00024024175945669413,-0.004753483459353447,-0.0012634824961423874
1783169790237745000,1.910744873046875,0.006714407820254564,-0.01018349826335907,-0.001485337968915701
1783169790247814700,1.920814697265625,0.012471096590161324,-0.014917267486453056,-0.00045709172263741493
1783169790257884700,1.930884765625,0.011124631389975548,-0.023407507687807083,0.001523531973361969
1783169790267954700,1.94095458984375,0.007133352104574442,-0.033278245478868484,0.004618657752871513
1783169790278024700,1.951024658203125,-0.0024785834830254316,-0.04027273505926132,0.0102710435166955
1783169790288094700,1.9610947265625,-0.004376085475087166,-0.04183627665042877,0.011419398710131645
1783169790298164500,1.97116455078125,-0.005934292450547218,-0.030246984213590622,0.004897364880889654
1783169790308234800,1.98123486328125,-0.005870643071830273,-0.018588464707136154,0.002016090787947178
1783169790318304800,1.9913046875,-0.0067100548185408115,-0.01421978510916233,0.0008539827540516853
1783169790328374500,2.00137451171875,-0.008104486390948296,-0.005948806181550026,0.003408486722037196
1783169790338444800,2.01144482421875,-0.012641210108995438,-0.002028551883995533,-0.005967472214251757
1783169790348513500,2.021513427734375,-0.015582937747240067,0.0020892275497317314,-0.009905489161610603
1783169790358583800,2.031583740234375,-0.01665804721415043,0.004310851451009512,-0.016423793509602547
1783169790368653800,2.04165380859375,-0.01824209652841091,0.001895630732178688,-0.016548428684473038
1783169790378723600,2.0517236328125,-0.022121738642454147,0.0005577486008405685,-0.02657441608607769
1783169790388793600,2.061793701171875,-0.019879624247550964,0.0018190215341746807,-0.03173775225877762
1783169790398864000,2.07186376953125,-0.01914679817855358,0.016372796148061752,-0.036926548928022385
1783169790408933600,2.08193359375,-0.020932447165250778,0.028729062527418137,-0.051738787442445755
1783169790419003600,2.092003662109375,-0.01759997382760048,0.048731107264757156,-0.06737492978572845
1783169790429074000,2.102073974609375,-0.006689802277833223,0.043667372316122055,-0.061314377933740616
1783169790439143700,2.112143798828125,-0.0051920609548687935,0.05536806583404541,-0.04403631016612053
1783169790449213700,2.122213623046875,-0.0064280349761247635,0.06064724922180176,-0.030246727168560028
1783169790459283700,2.13228369140625,-0.011272303760051727,0.05788172781467438,-0.02024310827255249
1783169790469352700,2.142352783203125,-0.01814592070877552,0.05402999743819237,-0.012053356505930424
1783169790479422700,2.152422607421875,-0.0202840194106102,0.049804434180259705,-0.009589765220880508
1783169790489492700,2.16249267578125,-0.029392562806606293,0.0454389825463295,-0.006952436175197363
1783169790499562800,2.172562744140625,-0.028476113453507423,0.03667048364877701,-0.006914964877068996
1783169790509632500,2.182632568359375,-0.02964683808386326,0.02789776585996151,-0.004494950175285339
1783169790519702800,2.192702880859375,-0.025264384225010872,0.014514243230223656,-0.0031593539752066135
1783169790529772800,2.202772705078125,-0.01653134636580944,0.006918109022080898,-0.0010136449709534645
1783169790539842600,2.212842529296875,-0.013648401014506817,-0.004168105311691761,0.0038575574290007353
1783169790549912600,2.22291259765625,-0.01610809750854969,-0.01687511056661606,0.012190587818622589
1783169790559982800,2.23298291015625,-0.019968099892139435,-0.027241230010986328,0.01959780789911747
1783169790570052600,2.243052490234375,-0.025088027119636536,-0.028197038918733597,0.015561787411570549
1783169790580121900,2.253121826171875,-0.01899632066488266,-0.022432908415794373,0.009108101949095726
1783169790590191600,2.263191650390625,-0.016443146392703056,-0.01396538782864809,0.0073861014097929
1783169790600261600,2.27326171875,-0.011259254068136215,-0.002473491244018078,0.0019681870471686125
1783169790610331600,2.28333154296875,-0.008432574570178986,0.0027750665321946144,-0.0007005664519965649
1783169790620401700,2.293401611328125,-0.009995643049478531,-0.0013137897476553917,-0.0036285147070884705
1783169790630471700,2.3034716796875,-0.011155184358358383,-0.008112839423120022,0.0016924808733165264
1783169790640541700,2.313541748046875,-0.009654799476265907,-0.014692643657326698,0.009798256680369377
1783169790650611700,2.32361181640625,-0.008696060627698898,-0.013969330117106438,0.01684524677693844
1783169790660681700,2.333681640625,-0.014477197080850601,-0.013745801523327827,0.013628974556922913
1783169790670751700,2.343751708984375,-0.008353525772690773,-0.0037373770028352737,0.002880190033465624
1783169790680821800,2.35382177734375,-0.0034621325321495533,0.010849229991436005,-0.002425021957606077
1783169790690890800,2.363890869140625,0.008108503185212612,0.027416490018367767,-0.004203214775770903
1783169790700960500,2.37396044921875,0.014546459540724754,0.03606129437685013,-0.007198167033493519
1783169790711030800,2.38403076171875,0.02126002311706543,0.043376464396715164,-0.009300999343395233
1783169790721100800,2.394100830078125,0.020175844430923462,0.04576278477907181,-0.014048242010176182
1783169790731170600,2.404170654296875,0.0231026578694582,0.0491495281457901,-0.013727863319218159
1783169790741240800,2.41424072265625,0.023792976513504982,0.04618973284959793,-0.006468207575380802
1783169790751310600,2.424310546875,0.022958341985940933,0.030820630490779877,0.0011524278670549393
1783169790761380600,2.434380615234375,0.023716766387224197,0.025450024753808975,0.000034456606954336166
1783169790771451000,2.444450927734375,0.02794133871793747,0.018705837428569794,-0.002826577052474022
1783169790781520600,2.454520751953125,0.027979731559753418,0.02234725095331669,-0.008755063638091087
1783169790791590700,2.464590576171875,0.028337394818663597,0.026831215247511864,-0.00901871733367443
1783169790801659600,2.47465966796875,0.028772491961717606,0.03160829097032547,-0.005927128251641989
1783169790811729700,2.484729736328125,0.029922448098659515,0.03215716779232025,0.0028386665508151054
1783169790821800200,2.49480029296875,0.03463282436132431,0.03329227864742279,0.003156626131385565
1783169790831870200,2.5048701171875,0.04081561788916588,0.03515329957008362,-0.010565577074885368
1783169790841940500,2.5149404296875,0.04289548844099045,0.038299717009067535,-0.014332963153719902
1783169790852010200,2.52501025390625,0.03848209232091904,0.04232135787606239,-0.007232177536934614
1783169790862080300,2.535080322265625,0.028034886345267296,0.04671894758939743,-0.0026602777652442455
1783169790872150500,2.545150634765625,0.025191428139805794,0.05224740505218506,0.0009403161238878965
1783169790882220300,2.55522021484375,0.018916454166173935,0.06009194999933243,-0.005810987204313278
1783169790892290300,2.565290283203125,0.02333943173289299,0.06942632794380188,-0.017899073660373688
1783169790902360300,2.5753603515625,0.02705797739326954,0.0670590028166771,-0.023540593683719635
1783169790912429300,2.58542919921875,0.0271232258528471,0.07503597438335419,-0.02416510507464409
1783169790922499300,2.595499267578125,0.01942586526274681,0.07918113470077515,-0.02087598480284214
1783169790932569300,2.6055693359375,0.012873688712716103,0.07838457822799683,-0.013213271275162697
1783169790942639400,2.615639404296875,0.004470891319215298,0.07102761417627335,-0.015726977959275246
1783169790952709400,2.62570947265625,0.0026980252005159855,0.05682923644781113,-0.014359178021550179
1783169790962779400,2.635779296875,0.0018375928048044443,0.0362425297498703,-0.013173878192901611
1783169790972849400,2.645849365234375,0.0024479893036186695,0.020922962576150894,-0.002793142106384039
1783169790982919200,2.655919189453125,0.003381427377462387,0.009393339045345783,0.00354065396822989
1783169790992989200,2.6659892578125,-0.0017520820256322622,0.0016121151857078075,0.0034058978781104088
1783169791003059500,2.6760595703125,0.001855693873949349,0.0014917249791324139,-0.0059876516461372375
1783169791013129200,2.686129150390625,0.0030147014185786247,0.0061077820137143135,-0.010922755114734173
1783169791023198500,2.696198486328125,0.00446369219571352,0.010495016351342201,-0.02135242335498333
1783169791033268200,2.706268310546875,0.0011802806984633207,0.004915959667414427,-0.021277856081724167
1783169791043338200,2.716338134765625,0.0011427437420934439,0.005595221184194088,-0.018991589546203613
1783169791053408500,2.726408447265625,-0.0009654145687818527,-0.00045441556721925735,-0.01633508875966072
1783169791063478300,2.736478271484375,-0.0039053603541105986,-0.00428470503538847,-0.018083373084664345
1783169791073548300,2.74654833984375,-0.001256580464541912,-0.0028708335012197495,-0.010250749066472054
1783169791083618300,2.756618408203125,0.0061843604780733585,-0.0007467195391654968,-0.011177284643054008
1783169791093688300,2.766688232421875,0.0077210040763020515,-0.006171312183141708,-0.012094477191567421
1783169791103758300,2.77675830078125,0.007752159144729376,-0.004419093020260334,-0.017368227243423462
1783169791113828400,2.786828369140625,0.003592834109440446,0.0058007873594760895,-0.008525731973350048
1783169791123898400,2.7968984375,-0.001458649756386876,0.013074412941932678,-0.013224347494542599
1783169791133967400,2.80696728515625,-0.006357001606374979,0.015396956354379654,-0.02048492431640625
1783169791144037000,2.817037109375,-0.002079717116430402,0.009921734221279621,-0.022525537759065628
1783169791154107400,2.827107421875,0.0015389862237498164,-0.00007497332990169525,-0.020643748342990875
1783169791164177400,2.837177490234375,0.006583026610314846,-0.004979030229151249,-0.013249805197119713
1783169791174247200,2.8472470703125,0.00769063550978899,-0.006621135398745537,-0.007311754859983921
1783169791184317400,2.8573173828125,0.004021571017801762,-0.00713969673961401,0.0032230266369879246
1783169791194387500,2.867387451171875,-0.005012137815356255,-0.010887828655540943,0.0037127819377928972
1783169791204457200,2.877457275390625,-0.01725916564464569,-0.017981745302677155,0.009171605110168457
1783169791214527500,2.887527587890625,-0.020551366731524467,-0.016669869422912598,0.011930638924241066
1783169791224597200,2.89759716796875,-0.01763630099594593,-0.015476694330573082,0.006857010535895824
1783169791234666200,2.907666259765625,-0.00890752486884594,-0.0026290714740753174,-0.0002965065650641918
1783169791244736500,2.917736572265625,-0.0005164414178580046,0.00355092016980052,-0.004001654218882322
1783169791254806300,2.92780615234375,0.0024077093694359064,0.0028736782260239124,-0.006465077865868807
1783169791264876300,2.937876220703125,-0.00056308857165277,0.002972815651446581,-0.010233545675873756
1783169791274946300,2.9479462890625,-0.002184687415137887,-0.002637399360537529,-0.008619138970971107
1783169791285016300,2.958016357421875,-0.00599324144423008,-0.00790388323366642,-0.0006381324492394924
1783169791295086300,2.96808642578125,-0.00670297397300601,-0.0056508490815758705,0.008577203378081322
1783169791305156400,2.97815625,-0.007949916645884514,0.0005208132788538933,0.003673377213999629
1783169791315226400,2.988226318359375,0.0013306663604453206,0.012975085526704788,-0.00565407844260335
1783169791325296400,2.99829638671875,0.0067915297113358974,0.017457665875554085,-0.013347536325454712
1783169791335365400,3.008365478515625,0.010820358991622925,0.01748882606625557,-0.01011499110609293
1783169791345435400,3.018435302734375,0.007726019248366356,0.019132638350129128,-0.00045484956353902817
1783169791355505200,3.028505126953125,0.009473851881921291,0.020125199109315872,0.00001652957871556282
1783169791365575400,3.038575439453125,0.007029647473245859,0.022073375061154366,-0.00551460450515151
1783169791375645400,3.0486455078125,0.005252786912024021,0.02059745043516159,-0.013908356428146362
1783169791385715200,3.058715087890625,0.00014557375106960535,0.017177708446979523,-0.00817960873246193
1783169791395785200,3.06878515625,-0.004722151905298233,0.010449766181409359,0.004637119360268116
1783169791405855500,3.07885546875,-0.006466228049248457,0.00200279476121068,0.0059938873164355755
1783169791415925200,3.08892529296875,-0.009381590411067009,-0.005156048573553562,0.0006017850246280432
1783169791425995300,3.098995361328125,-0.012084046378731728,-0.009775768965482712,-0.005352780222892761
1783169791436064300,3.109064208984375,-0.01174076646566391,-0.012060759589076042,-0.011410673148930073
1783169791446134300,3.11913427734375,-0.009961888194084167,-0.016948118805885315,-0.010041379369795322
1783169791456204300,3.129204345703125,-0.009752031415700912,-0.02185073122382164,-0.010461093857884407
1783169791466274300,3.1392744140625,-0.009230327792465687,-0.026888113468885422,-0.013318981975317001
1783169791476344300,3.14934423828125,-0.006192459724843502,-0.03141682222485542,-0.011298442259430885
1783169791486414300,3.159414306640625,0.002016815124079585,-0.027235528454184532,-0.01199174765497446
1783169791496484400,3.169484375,0.004212857689708471,-0.02391243539750576,-0.00895521230995655
1783169791506554400,3.179554443359375,0.00539036002010107,-0.02082260139286518,-0.006711509544402361
1783169791516624100,3.1896240234375,0.003646788652986288,-0.011614721268415451,-0.006865174043923616
1783169791526694400,3.1996943359375,0.003727011615410447,-0.005423445254564285,-0.006156569812446833
1783169791536764400,3.209764404296875,0.008678893558681011,0.00044802669435739517,-0.0064135645516216755
1783169791546833200,3.219833251953125,0.014893118292093277,0.011241160333156586,-0.008449925109744072
1783169791556903400,3.2299033203125,0.020853271707892418,0.024223003536462784,-0.012543736025691032
1783169791566973200,3.23997314453125,0.021188056096434593,0.036810606718063354,-0.014464149251580238
1783169791577043200,3.250043212890625,0.025696787983179092,0.04262455552816391,-0.01639227755367756
1783169791587113500,3.260113525390625,0.029768722131848335,0.049248043447732925,-0.021746233105659485
1783169791597183200,3.270183349609375,0.035119544714689255,0.04835561662912369,-0.024211522191762924
1783169791607253200,3.280253173828125,0.03617360070347786,0.04573835805058479,-0.016067836433649063
1783169791617323500,3.290323486328125,0.039097484201192856,0.04224402457475662,0.005785796791315079
1783169791627393300,3.300393310546875,0.041009388864040375,0.033310480415821075,0.016687283292412758
1783169791637463300,3.31046337890625,0.03856407478451729,0.015663310885429382,0.016318170353770256
1783169791647532300,3.3205322265625,0.03222258388996124,0.001397864893078804,0.029008550569415092
1783169791657602300,3.330602294921875,0.02847152017056942,-0.008201233111321926,0.04083032160997391
1783169791667672300,3.34067236328125,0.0232155229896307,-0.012112054973840714,0.03972174972295761
1783169791677742300,3.350742431640625,0.014446266926825047,-0.007689077407121658,0.0328712984919548
1783169791687812400,3.360812255859375,0.011357211507856846,-0.010806129314005375,0.01886889338493347
1783169791697882400,3.37088232421875,0.0110160605981946,-0.013228273950517178,0.022322745993733406
1783169791707952400,3.380952392578125,0.006895098835229874,-0.012366851791739464,0.013762759044766426
1783169791718022400,3.3910224609375,0.004368557594716549,-0.020077768713235855,-0.0004665111191570759
1783169791728092400,3.401092529296875,0.003639902686700225,-0.02542102336883545,-0.012162793427705765
1783169791738162200,3.411162109375,0.007733447477221489,-0.030755333602428436,-0.01683104783296585
1783169791748231400,3.4212314453125,0.011898953467607498,-0.0419280081987381,-0.0007886588573455811
1783169791758301200,3.43130126953125,0.008881325833499432,-0.05091990530490875,0.009998208843171597
1783169791768371500,3.441371337890625,0.008884466253221035,-0.05153251811861992,0.013820871710777283
1783169791778441500,3.45144140625,0.013323955237865448,-0.04707172513008118,0.02307855151593685
1783169791788511200,3.46151123046875,0.014627352356910706,-0.03823714703321457,0.029198484495282173
1783169791798581200,3.471581298828125,0.018900394439697266,-0.029532872140407562,0.0320051908493042
1783169791808651300,3.4816513671875,0.01364939846098423,-0.026082145050168037,0.02015509270131588
1783169791818721300,3.49172119140625,0.006013848818838596,-0.02039363421499729,0.01269105076789856
1783169791828791300,3.501791259765625,0.00434029521420598,-0.008749662898480892,0.0018016551621258259
1783169791838861300,3.511861328125,0.0015796625521034002,0.001010555773973465,-0.005820578429847956
1783169791848930300,3.521930419921875,-0.0009338341187685728,0.017075136303901672,-0.0019106841646134853
1783169791859000300,3.532000244140625,-0.002404165221378207,0.022621167823672295,0.004461993928998709
1783169791869070300,3.5420703125,-0.0036904020234942436,0.021193955093622208,0.007393054664134979
1783169791879140400,3.552140380859375,-0.004666184075176716,0.023409705609083176,0.010926803573966026
1783169791889210000,3.562210205078125,-0.006846252363175154,0.026054084300994873,0.0028125254902988672
1783169791899280400,3.5722802734375,-0.006386324297636747,0.031099442392587662,-0.005601732060313225
1783169791909350400,3.582350341796875,-0.007357850205153227,0.03386792540550232,-0.0063901860266923904
1783169791919420200,3.592420166015625,0.0006955491844564676,0.03609805554151535,-0.007293263450264931
1783169791929490400,3.602490478515625,0.006521989591419697,0.032880254089832306,-0.003374682739377022
1783169791939560400,3.612560546875,0.011747377924621105,0.02857365645468235,-0.0014066067524254322
1783169791949629200,3.622629150390625,0.011709976941347122,0.024126539006829262,0.005898876115679741
1783169791959699500,3.632699462890625,0.004788953810930252,0.018661465495824814,0.01972733996808529
1783169791969769200,3.642769287109375,0.006666342727839947,0.009227669797837734,0.022801313549280167
1783169791979839200,3.652839111328125,0.0066998982802033424,0.010757388547062874,0.028341487050056458
1783169791989909500,3.662909423828125,0.006518194451928139,0.006874386221170425,0.026999102905392647
1783169791999979300,3.672979248046875,0.0034318570978939533,0.010174575261771679,0.019328933209180832
1783169792010049300,3.68304931640625,-0.0022414459381252527,0.017335325479507446,0.01947369985282421
1783169792020119600,3.69311962890625,-0.0034204276744276285,0.02042672410607338,0.019428160041570663
1783169792030189300,3.703189208984375,0.00019369972869753838,0.02890642359852791,0.019858529791235924
1783169792040258300,3.71325830078125,0.00008584174793213606,0.025698378682136536,0.01029165554791689
1783169792050328300,3.723328369140625,0.0028515635058283806,0.029036428779363632,0.001667434349656105
1783169792060398300,3.7333984375,-0.00152933644130826,0.026600968092679977,0.006362853571772575
1783169792070468400,3.74346826171875,-0.010489802807569504,0.020300336182117462,0.01797732524573803
1783169792080538400,3.753538330078125,-0.01864999532699585,0.013348152860999107,0.023319626227021217
1783169792090608400,3.7636083984375,-0.012184101156890392,0.008695217780768871,0.017455505207180977
1783169792100678100,3.77367822265625,-0.010380342602729797,-0.000034091994166374207,0.008273990824818611
1783169792110748400,3.78374853515625,-0.007424257695674896,-0.014621990732848644,0.013440525159239769
1783169792120818400,3.793818359375,-0.009515105746686459,-0.024276215583086014,0.023834042251110077
1783169792130888200,3.80388818359375,-0.012562017887830734,-0.02710368111729622,0.024132903665304184
1783169792140957400,3.81395751953125,-0.012188376858830452,-0.028241116553544998,0.019398868083953857
1783169792151027200,3.824027099609375,-0.006868422031402588,-0.033279381692409515,0.01422887109220028
1783169792161097200,3.83409716796875,-0.0017096127849072218,-0.03776653856039047,0.009592041373252869
1783169792171167500,3.84416748046875,0.0011917459778487682,-0.037471022456884384,0.013906172476708889
1783169792181237200,3.8542373046875,-0.001052233623340726,-0.03082936629652977,0.02928592637181282
1783169792191307300,3.864307373046875,-0.002176474779844284,-0.024725589901208878,0.02619253657758236
1783169792201377300,3.874377197265625,-0.00463137635961175,-0.014196250587701797,0.015950020402669907
1783169792211447300,3.884447265625,-0.004444965161383152,-0.009694988839328289,0.006010251119732857
1783169792221517300,3.894517333984375,-0.0038095349445939064,-0.00946276169270277,0.0024932806845754385
1783169792231587300,3.90458740234375,-0.006074819248169661,-0.010710452683269978,0.009452120400965214
1783169792241656300,3.91465625,-0.008990980684757233,-0.014788816682994366,0.011370661668479443
1783169792251726300,3.924726318359375,-0.006377092562615871,-0.017982088029384613,0.01694156974554062
1783169792261796400,3.93479638671875,-0.004553093574941158,-0.02114112861454487,0.0095718028023839
1783169792271866400,3.944866455078125,-0.0018087264616042376,-0.029957285150885582,0.006141012534499168
1783169792281936400,3.954936279296875,-0.00520159350708127,-0.041767336428165436,0.010475307703018188
1783169792292006100,3.965006103515625,-0.004903033375740051,-0.052471622824668884,0.01627444662153721
1783169792302076400,3.975076416015625,-0.002468637889251113,-0.05232195183634758,0.027459722012281418
1783169792312146400,3.985146484375,0.002953819464892149,-0.05524570494890213,0.030840447172522545
1783169792322216200,3.99521630859375,0.009624239057302475,-0.05368882417678833,0.02652772329747677
1783169792332285400,4.005285400390625,0.009895388036966324,-0.05771946534514427,0.018011676147580147
1783169792342355200,4.015355224609375,0.010444797575473785,-0.06142311915755272,0.020178157836198807
1783169792352425200,4.02542529296875,0.008202939294278622,-0.07048507034778595,0.022025806829333305
1783169792362495500,4.03549560546875,0.01826835609972477,-0.07172370702028275,0.02368096075952053
1783169792372565200,4.045565185546875,0.014636869542300701,-0.07534081488847733,0.028838705271482468
1783169792382635300,4.05563525390625,0.010014686733484268,-0.06675557792186737,0.0301740150898695
1783169792392705300,4.065705322265625,0.007589327171444893,-0.054287221282720566,0.02738984115421772
1783169792402775300,4.075775390625,0.003590590786188841,-0.04310434311628342,0.01871965453028679
1783169792412845300,4.08584521484375,0.0029354486614465714,-0.03629478067159653,0.009436780586838722
1783169792422914300,4.095914306640625,0.007347507402300835,-0.032371412962675095,0.015241140499711037
1783169792432984300,4.105984375,0.004169773776084185,-0.021657854318618774,0.010088721290230751
1783169792443054300,4.116054443359375,0.0014152664225548506,-0.01783781498670578,0.009217334911227226
1783169792453124400,4.126124267578125,-0.003331744344905019,-0.012339212000370026,0.010909240692853928
1783169792463194400,4.1361943359375,-0.007498526014387608,-0.007449116557836533,0.010749983601272106
1783169792473264000,4.14626416015625,-0.006913216784596443,-0.0028362004086375237,0.012145588174462318
1783169792483334400,4.15633447265625,-0.004927298054099083,-0.0025531062856316566,0.017487889155745506
1783169792493404400,4.166404296875,-0.005034332163631916,-0.0009478507563471794,0.01685592159628868
1783169792503474200,4.17647412109375,-0.00006007985211908817,-0.0018203016370534897,0.020425889641046524
1783169792513543400,4.18654345703125,0.001094666775316,-0.0062246378511190414,0.01799708604812622
1783169792523613200,4.19661328125,0.008165093138813972,-0.011156812310218811,0.013165311887860298
1783169792533683200,4.20668310546875,0.009807996451854706,-0.014964865520596504,0.012829488143324852
1783169792543753500,4.21675341796875,0.006665733642876148,-0.014482833445072174,0.016342464834451675
1783169792553823200,4.2268232421875,0.005392435938119888,-0.019750624895095825,0.01679285615682602
1783169792563893200,4.236893310546875,0.010069213807582855,-0.025410108268260956,0.020364422351121902
1783169792573963500,4.246963623046875,0.007919002324342728,-0.027321556583046913,0.018712731078267097
1783169792584033300,4.257033203125,0.010556330904364586,-0.018542977049946785,0.01752442866563797
1783169792594103300,4.267103271484375,0.00707480451092124,-0.021373216062784195,0.0221567302942276
1783169792604173300,4.27717333984375,0.003034789115190506,-0.014625831507146358,0.018889831379055977
1783169792614242300,4.2872421875,-0.006220005918294191,-0.005076732486486435,0.012898676097393036
1783169792624312300,4.297312255859375,-0.00884268805384636,0.0010259011760354042,0.002330987248569727
1783169792634382300,4.30738232421875,-0.010435800999403,0.002866663970053196,-0.0028475839644670486
1783169792644452400,4.317452392578125,-0.005746506620198488,0.008267554454505444,-0.002694185823202133
1783169792654522400,4.3275224609375,0.0029322230257093906,0.014874886721372604,0.0018937494605779648
1783169792664592400,4.33759228515625,0.005656104534864426,0.018552444875240326,0.0073748016729950905
1783169792674662400,4.347662353515625,0.008306743577122688,0.027646999806165695,0.012214936316013336
1783169792684732400,4.357732421875,0.009338985197246075,0.034807175397872925,0.013575011864304543
1783169792694802200,4.36780224609375,0.009379971772432327,0.04007340595126152,0.007344013080000877
1783169792704871400,4.377871337890625,0.015012823976576328,0.04243483021855354,0.010895071551203728
1783169792714941200,4.387941162109375,0.014273319393396378,0.047962166368961334,0.012978624552488327
1783169792725011500,4.398011474609375,0.01861666887998581,0.06225508451461792,0.013224700465798378
1783169792735081500,4.40808154296875,0.020850958302617073,0.06274549663066864,0.006347076967358589
1783169792745151200,4.418151123046875,0.024161800742149353,0.07342956960201263,0.002050599316135049
1783169792755221200,4.42822119140625,0.020154891535639763,0.07753760367631912,-0.008457263931632042
1783169792765291300,4.438291259765625,0.019854485988616943,0.07731283456087112,-0.0118796918541193
1783169792775361300,4.448361328125,0.020359432324767113,0.07762923836708069,-0.017320478335022926
1783169792785431300,4.458431396484375,0.01870960369706154,0.07149703800678253,-0.01469673216342926
1783169792795500300,4.468500244140625,0.020186325535178185,0.06905465573072433,-0.011213850229978561
1783169792805570300,4.4785703125,0.02545379288494587,0.07020141184329987,-0.008586641401052475
1783169792815640300,4.488640380859375,0.02537389099597931,0.07003429532051086,-0.010473917238414288
1783169792825710000,4.4987099609375,0.023552289232611656,0.07234564423561096,-0.016698788851499557
1783169792835780000,4.508780029296875,0.023008156567811966,0.0712110698223114,-0.01779841259121895
1783169792845850000,4.51885009765625,0.013834364712238312,0.06516462564468384,0.00158247584477067
1783169792855920000,4.528920166015625,0.007070187479257584,0.0485394261777401,0.013177929446101189
1783169792865990100,4.538990234375,0.004442978650331497,0.032819852232933044,0.016536176204681396
1783169792876060000,4.549059814453125,0.0002448521554470062,0.027444642037153244,0.0026088086888194084
1783169792886129200,4.559129150390625,0.0031610135920345783,0.01279725693166256,0.0013251649215817451
1783169792896199200,4.56919921875,0.000042105093598365784,-0.00026725977659225464,0.005594844929873943
1783169792906269200,4.579269287109375,-0.002576581435278058,-0.007509459741413593,0.006836943328380585
1783169792916339200,4.589339111328125,-0.006998468190431595,-0.009282424114644527,0.0025564483366906643
1783169792926409000,4.599408935546875,-0.011982840485870838,-0.010883250273764133,-0.00003720400854945183
1783169792936479000,4.60947900390625,-0.013991442508995533,-0.007754232734441757,-0.00491383345797658
1783169792946549200,4.61954931640625,-0.01469451654702425,-0.009950276464223862,0.006638693623244762
1783169792956619000,4.629618896484375,-0.011043503880500793,-0.007089254446327686,0.00988115556538105
1783169792966689000,4.63968896484375,-0.013898413628339767,-0.009702347218990326,0.005483478307723999
1783169792976758000,4.649758056640625,-0.016762375831604004,-0.010898906737565994,-0.00023166555911302567
1783169792986828000,4.659828125,-0.019048433750867844,-0.016248663887381554,-0.004029866307973862
1783169792996898000,4.66989794921875,-0.02229410409927368,-0.01976081356406212,-0.000083868857473135
1783169793006968000,4.679968017578125,-0.027245452627539635,-0.023768603801727295,0.0016107007395476103
1783169793017038000,4.6900380859375,-0.026228073984384537,-0.027038365602493286,0.007417730987071991
1783169793027108000,4.700108154296875,-0.023405656218528748,-0.020785260945558548,0.0089194867759943
1783169793037178000,4.71017822265625,-0.018280135467648506,-0.021135199815034866,0.003593164961785078
1783169793047248100,4.720248046875,-0.017173059284687042,-0.026028495281934738,0.01129342895001173
1783169793057317000,4.730317138671875,-0.01659596897661686,-0.0279218889772892,0.013512160629034042
1783169793067387100,4.74038720703125,-0.01840212382376194,-0.02444380149245262,0.021882476285099983
1783169793077457200,4.75045703125,-0.01889823190867901,-0.012879764661192894,0.01873856410384178
1783169793087527000,4.76052685546875,-0.010854419320821762,-0.006939052604138851,0.014002131298184395
1783169793097597200,4.77059716796875,-0.009260055609047413,-0.0033822329714894295,0.016423096880316734
1783169793107667200,4.780667236328125,-0.012492068111896515,-0.008565010502934456,0.020624766126275063
1783169793117737000,4.790737060546875,-0.018914775922894478,-0.00735229067504406,0.017767786979675293
1783169793127807200,4.80080712890625,-0.022031741216778755,-0.0003471123054623604,0.012099780142307281
1783169793137877200,4.810877197265625,-0.021816322579979897,0.00541858933866024,0.00783403031527996
1783169793147946200,4.8209462890625,-0.01847139187157154,0.009802685119211674,0.008596492931246758
1783169793158016300,4.831016357421875,-0.008576637133955956,0.004260309971868992,0.0022614789195358753
1783169793168086000,4.8410859375,-0.00920887105166912,-0.002447660081088543,0.006870345212519169
1783169793178156000,4.851156005859375,-0.00845951959490776,-0.008594319224357605,0.011835213750600815
1783169793188226300,4.861226318359375,-0.01225212775170803,-0.015810953453183174,0.010161683894693851
1783169793198296000,4.871296142578125,-0.021502360701560974,-0.014777127653360367,0.01636572927236557
1783169793208366000,4.881365966796875,-0.021026453003287315,-0.006537574343383312,0.023492347449064255
1783169793218436000,4.89143603515625,-0.014024957083165646,-0.006625528447329998,0.0199563167989254
1783169793228506000,4.901506103515625,-0.006071693263947964,0.005269480403512716,0.00930527038872242
1783169793238575000,4.9115751953125,-0.0025912339333444834,0.020390473306179047,-0.00461827265098691
1783169793248645000,4.92164501953125,-0.0016511378344148397,0.027907246723771095,-0.002914914395660162
1783169793258715100,4.931715087890625,-0.0020455261692404747,0.03919362649321556,0.0010939459316432476
1783169793268785000,4.941784912109375,-0.004861020483076572,0.03998032212257385,0.0021221924107521772
1783169793278855200,4.951855224609375,-0.005084444768726826,0.03921375423669815,-0.0007090657018125057
1783169793288925200,4.96192529296875,-0.0018204743973910809,0.03969578444957733,0.005481984931975603
1783169793298995000,4.971994873046875,0.0014679459854960442,0.035386454313993454,0.0048513407818973064
1783169793309065200,4.982065185546875,0.004615802317857742,0.03463038057088852,0.005465465597808361
1783169793319135200,4.99213525390625,0.0048485626466572285,0.0420326367020607,0.004458524286746979
1783169793329204000,5.002203857421875,0.007001728750765324,0.03987520933151245,0.001937309978529811
1783169793339274200,5.012274169921875,0.007290921173989773,0.03908461704850197,0.009270850569009781
1783169793349344000,5.022343994140625,0.010782591998577118,0.036785244941711426,0.014107417315244675
1783169793359414000,5.0324140625,0.010586651042103767,0.03163198381662369,0.011919589713215828
1783169793369484300,5.042484375,0.012869246304035187,0.02761194482445717,0.008000481873750687
1783169793379554000,5.052553955078125,0.008590825833380222,0.022176627069711685,0.008018050342798233
1783169793389624000,5.0626240234375,0.001644503208808601,0.014488615095615387,0.01870078779757023
1783169793399694000,5.072694091796875,-0.005140692926943302,0.002805733121931553,0.020817363634705544
1783169793409763000,5.08276318359375,-0.007499720901250839,-0.0031917057931423187,0.021133480593562126
1783169793419833000,5.0928330078125,-0.005884724669158459,-0.006271706894040108,0.017279256135225296
1783169793429903000,5.102903076171875,-0.0020889209117740393,-0.014640690758824348,0.011254120618104935
1783169793439973000,5.11297314453125,0.001606727484613657,-0.02254657819867134,0.01245349831879139
1783169793450043100,5.123043212890625,-0.004596840124577284,-0.028387155383825302,0.0167973805218935
1783169793460113200,5.133113037109375,-0.010150914080440998,-0.029790710657835007,0.019633371382951736
1783169793470183200,5.14318310546875,-0.015651140362024307,-0.031290605664253235,0.010542936623096466
1783169793480253200,5.153253173828125,-0.018260227516293526,-0.027336064726114273,0.011178955435752869
1783169793490322200,5.163322265625,-0.018614428117871284,-0.02286142110824585,0.009819945320487022
1783169793500392200,5.17339208984375,-0.018770992755889893,-0.024824660271406174,0.004979016724973917
1783169793510462000,5.1834619140625,-0.015591977164149284,-0.023074164986610413,0.007330321706831455
1783169793520532200,5.1935322265625,-0.01205315813422203,-0.017700690776109695,0.003150811418890953
1783169793530602200,5.203602294921875,-0.006861858069896698,-0.02272101491689682,-0.004385934676975012
1783169793540672000,5.213672119140625,-0.0047132400795817375,-0.019261863082647324,-0.002950867172330618
1783169793550742300,5.2237421875,-0.0067188674584031105,-0.01256321556866169,0.004078812897205353
1783169793560812000,5.23381201171875,-0.005646709818392992,0.0033137104474008083,-0.0027502314187586308
1783169793570882000,5.243882080078125,0.0008830949082039297,0.013738388195633888,-0.011291521601378918
1783169793580951300,5.253951416015625,0.0029746827203780413,0.014231929555535316,-0.01183871366083622
1783169793591021000,5.26402099609375,0.005963814444839954,0.007891741581261158,0.001840080600231886
1783169793601091000,5.274091064453125,0.00837854016572237,0.006187766790390015,0.007967015728354454
1783169793611161000,5.2841611328125,0.009717577137053013,0.007536391727626324,0.007494304329156876
1783169793621231000,5.294231201171875,0.005190448835492134,0.006860719993710518,0.005543957930058241
1783169793631301000,5.304301025390625,0.005658632609993219,0.01090712659060955,0.0019287166651338339
1783169793641371100,5.31437109375,0.001362791983410716,0.015009598806500435,-0.000799134373664856
1783169793651441200,5.324441162109375,0.009675582870841026,0.012705698609352112,0.0007846474181860685
1783169793661509000,5.334509033203125,0.01092454418540001,0.0027017160318791866,0.0030908796470612288
1783169793671579100,5.3445791015625,0.007714102976024151,-0.009492632932960987,0.016126254573464394
1783169793681649200,5.354649169921875,0.004314039833843708,-0.016646023839712143,0.016633691266179085
1783169793691719200,5.36471923828125,0.004404853563755751,-0.023021895438432693,0.010198429226875305
1783169793701789200,5.3747890625,0.0003944097552448511,-0.0304249357432127,0.004910512361675501
1783169793711858000,5.38485791015625,0.0010540748480707407,-0.03699548542499542,0.0027094099204987288
1783169793721928200,5.39492822265625,0.0033681218046694994,-0.041125617921352386,-0.002181213814765215
1783169793731998200,5.404998291015625,0.0018429293995723128,-0.03970322012901306,-0.005529606249183416
1783169793742068000,5.41506787109375,0.0025816590059548616,-0.038869161158800125,-0.010901101864874363
1783169793752138200,5.42513818359375,0.012567980214953423,-0.03949394077062607,-0.011025205254554749
1783169793762208300,5.435208251953125,0.017196277156472206,-0.02690359391272068,-0.0033819894306361675
1783169793772278000,5.445278076171875,0.011876080185174942,-0.023868123069405556,-0.0052991993725299835
1783169793782348000,5.45534814453125,0.005762990564107895,-0.006299739703536034,-0.006256576627492905
1783169793792417000,5.4654169921875,0.005621310323476791,0.0012742904946208,-0.013472144491970539
1783169793802487000,5.475487060546875,0.010388646274805069,0.011794856749475002,-0.021156370639801025
1783169793812557300,5.485557373046875,0.009335365146398544,0.02006690204143524,-0.023869600147008896
1783169793822626800,5.495626708984375,0.0059657106176018715,0.02554081752896309,-0.021597430109977722
1783169793832696800,5.50569677734375,0.003468198236078024,0.026287566870450974,-0.02561214379966259
1783169793842766800,5.515766845703125,0.001818913733586669,0.024122964590787888,-0.02915382757782936
1783169793852836900,5.5258369140625,0.00750422989949584,0.014193633571267128,-0.02480701543390751
1783169793862907000,5.535906982421875,0.009482160210609436,0.00731841754168272,-0.018931016325950623
1783169793872976000,5.545975830078125,0.014244690537452698,0.0009007318876683712,-0.012649685144424438
1783169793883046000,5.5560458984375,0.010118606500327587,-0.006272687576711178,-0.011644463986158371
1783169793893115600,5.56611572265625,0.010163080878555775,-0.011999549344182014,-0.010112348012626171
1783169793903186000,5.57618603515625,0.011332763358950615,-0.010916946455836296,-0.010850993916392326
1783169793913256000,5.586255859375,0.017956044524908066,-0.009626111015677452,-0.010873631574213505
1783169793923325700,5.59632568359375,0.01590934582054615,-0.008537620306015015,-0.008927044458687305
1783169793933396000,5.60639599609375,0.0178246907889843,-0.010650305077433586,-0.0022334554232656956
1783169793943465700,5.6164658203125,0.016249774023890495,-0.0037001585587859154,-0.0022439719177782536
1783169793953534700,5.62653466796875,0.015381849370896816,0.0015966030769050121,-0.00700543774291873
1783169793963605000,5.63660498046875,0.01658802106976509,0.0027219559997320175,-0.01166622806340456
1783169793973674800,5.6466748046875,0.01724981889128685,0.008230172097682953,-0.007370815612375736
1783169793983744800,5.656744873046875,0.015158159658312798,0.010596376843750477,-0.005076025612652302
1783169793993814800,5.666814697265625,0.014433514326810837,0.013572193682193756,-0.016482610255479813
1783169794003884800,5.676884765625,0.01466255635023117,0.015819648280739784,-0.015063357539474964
1783169794013954800,5.686954833984375,0.01718323864042759,0.013763155788183212,-0.00859746802598238
1783169794024024800,5.69702490234375,0.01967059262096882,0.015239430591464043,-0.006278451066464186
1783169794034096600,5.7070966796875,0.019942235201597214,0.017610441893339157,0.00045242183841764927
1783169794044167000,5.7171669921875,0.01659410446882248,0.018221233040094376,-0.0025504538789391518
1783169794054236000,5.72723583984375,0.011188952252268791,0.01457776129245758,-0.0029201004654169083
1783169794064305700,5.7373056640625,0.011877395212650299,0.019309286028146744,-0.006515149492770433
1783169794074376000,5.7473759765625,0.00947842001914978,0.018552949652075768,-0.016074566170573235
1783169794084445700,5.75744580078125,0.005385962314903736,0.015253320336341858,-0.019770123064517975
1783169794094515700,5.767515625,0.003912434913218021,0.015465840697288513,-0.018941612914204597
1783169794104586000,5.7775859375,-0.002948443405330181,0.02222675085067749,-0.02589002624154091
1783169794114655700,5.78765576171875,0.005315612070262432,-0.003864503465592861,-0.011650104075670242
1783169794124725800,5.797725830078125,0.008945212699472904,-0.007769789546728134,0.008002578280866146
1783169794134794800,5.807794677734375,0.008306853473186493,-0.015347281470894814,0.008412173017859459
1783169794144864800,5.81786474609375,0.003184305503964424,-0.025457385927438736,-0.004768382292240858
1783169794154934800,5.827934814453125,-0.008138656616210938,-0.036337196826934814,-0.0025861882604658604
1783169794165004800,5.8380048828125,-0.01137467846274376,-0.0463726744055748,0.0120463315397501
1783169794175074800,5.84807470703125,-0.007876884192228317,-0.049846235662698746,0.022860363125801086
1783169794185144800,5.858144775390625,-0.007874209433794022,-0.04127377271652222,0.01348289754241705
1783169794195214800,5.86821484375,-0.009195137768983841,-0.03593573346734047,0.004713108763098717
1783169794205284900,5.878284912109375,-0.01727014034986496,-0.0266000647097826,0.003906531725078821
1783169794215355000,5.88835498046875,-0.017622210085392,-0.024706022813916206,0.0007131351158022881
1783169794225424000,5.898423828125,-0.019818054512143135,-0.027142630890011787,0.00033328565768897533
1783169794235494000,5.908493896484375,-0.02135629579424858,-0.0337749645113945,0.0027708769775927067
1783169794245563600,5.918563720703125,-0.02902188152074814,-0.03980882465839386,0.010752130299806595
1783169794255634000,5.928634033203125,-0.03399081155657768,-0.04757992923259735,0.011007526889443398
1783169794265704000,5.938703857421875,-0.03460489958524704,-0.04721822962164879,0.00392821803689003
1783169794275773700,5.948773681640625,-0.03081309050321579,-0.04766111075878143,0.0000029848888516426086
1783169794285844000,5.958843994140625,-0.024832937866449356,-0.04595279321074486,0.0028824033215641975
1783169794295912700,5.96891259765625,-0.02125631272792816,-0.039188895374536514,0.005415335763245821
1783169794305982700,5.978982666015625,-0.019102972000837326,-0.036268457770347595,0.005373435094952583
1783169794316053000,5.989052978515625,-0.009724916890263557,-0.02661876007914543,0.004459172021597624
1783169794326122800,5.999122802734375,-0.013235179707407951,-0.01871323585510254,0.000921822851523757
1783169794336192800,6.00919287109375,-0.013328123837709427,-0.015099593438208103,-0.0030627986416220665
1783169794346263000,6.019262939453125,-0.015367601066827774,-0.012335134670138359,0.0027969437651336193
1783169794356332800,6.029332763671875,-0.008429532870650291,-0.004783209413290024,0.009946731850504875
1783169794366402800,6.03940283203125,-0.0029069194570183754,0.005048270802944899,0.008523225784301758
1783169794376471800,6.049471923828125,-0.00224139541387558,0.01716059446334839,0.0012083218898624182
1783169794386541800,6.059541748046875,-0.0014251584652811289,0.02287251316010952,-0.008460134267807007
1783169794396611800,6.06961181640625,-0.0014094458892941475,0.031503550708293915,-0.008441226556897163
1783169794406681900,6.079681884765625,-0.0012551946565508842,0.029920371249318123,-0.00465259188786149
1783169794416751900,6.089751953125,-0.00025571021251380444,0.031910818070173264,0.002602924359962344
1783169794426821600,6.099821533203125,0.005990983918309212,0.03287552669644356,0.005212070886045694
1783169794436892000,6.109891845703125,0.009291705675423145,0.027990756556391716,0.006243247073143721
1783169794446962000,6.1199619140625,0.010357225313782692,0.02551906369626522,0.00041139894165098667
1783169794457030700,6.13003076171875,0.011947399005293846,0.020310454070568085,0.012010264210402966
1783169794467101000,6.140100830078125,0.01089196652173996,0.007871866226196289,0.021969038993120193
1783169794477170700,6.150170654296875,0.009614980779588223,-0.0006630327552556992,0.01894235797226429
1783169794487240700,6.16024072265625,0.0022127467673271894,-0.0049211326986551285,0.019622378051280975
1783169794497311000,6.17031103515625,-0.00249092816375196,-0.010778754949569702,0.023486092686653137
1783169794507380700,6.180380615234375,-0.0033048626501113176,-0.00806841254234314,0.02216971293091774
1783169794517450800,6.19045068359375,-0.005097703076899052,-0.0005455147475004196,0.02582676336169243
1783169794527520800,6.200520751953125,-0.008459399454295635,0.012652858160436153,0.016621872782707214
1783169794537589800,6.21058984375,-0.0058329906314611435,0.02433215081691742,0.011613266542553902
1783169794547659800,6.22065966796875,-0.0021581000182777643,0.03344454988837242,0.001064589712768793
1783169794557729800,6.230729736328125,0.005671327468007803,0.040508054196834564,-0.0030079162679612637
1783169794567799800,6.2407998046875,0.011454720050096512,0.03560086712241173,-0.0008872626349329948
1783169794577869800,6.250869873046875,0.016646552830934525,0.031377892941236496,0.00536797009408474
1783169794587939800,6.26093994140625,0.007207250222563744,0.02026093192398548,0.0016972310841083527
1783169794598009900,6.271009765625,0.014659306965768337,0.025414414703845978,0.0018753965850919485
1783169794608080000,6.281079833984375,0.014830471016466618,0.01856600120663643,-0.003232687246054411
1783169794618148900,6.29114892578125,0.025295628234744072,0.01971941627562046,0.0004986678250133991
1783169794628219000,6.301218994140625,0.03767187148332596,0.0270050261169672,0.001304806675761938
1783169794638288600,6.31128857421875,0.042882613837718964,0.031425606459379196,-0.002944000530987978
1783169794648359000,6.32135888671875,0.04144056513905525,0.04275502637028694,-0.017045680433511734
1783169794658429000,6.331428955078125,0.037968602031469345,0.053372517228126526,-0.02327241748571396
1783169794668498700,6.341498779296875,0.03844766691327095,0.052684176713228226,-0.01917681097984314
1783169794678569000,6.35156884765625,0.032583385705947876,0.04583346098661423,-0.01310267299413681
1783169794688639000,6.361638916015625,0.029994498938322067,0.029213838279247284,-0.0031555150635540485
1783169794698707700,6.371707763671875,0.021330969408154488,0.01577606052160263,0.003388138022273779
1783169794708778000,6.381778076171875,0.01556391641497612,0.0031164842657744884,0.007814429700374603
1783169794718847700,6.39184765625,0.012261862866580486,-0.006423491053283215,0.008991014212369919
1783169794728917800,6.401917724609375,0.005191918462514877,-0.011309785768389702,0.010627925395965576
1783169794738988000,6.411988037109375,-0.0021118007134646177,-0.01798313483595848,0.009103000164031982
1783169794749057800,6.422057861328125,-0.007442904636263847,-0.027829362079501152,-0.000590047799050808
1783169794759127800,6.4321279296875,-0.017849473282694817,-0.03981838375329971,-0.0028686486184597015
1783169794769196800,6.44219677734375,-0.025174492970108986,-0.052594490349292755,-0.00017150258645415306
1783169794779266800,6.452266845703125,-0.029803598299622536,-0.06429748237133026,0.0020378560293465853
1783169794789336800,6.4623369140625,-0.027755049988627434,-0.07080486416816711,-0.0023193717934191227
1783169794799406800,6.47240673828125,-0.024647140875458717,-0.07203391194343567,-0.0012820707634091377
1783169794809476900,6.482476806640625,-0.022113488987088203,-0.07854890078306198,0.004465680103749037
1783169794819547100,6.492547119140625,-0.017114736139774323,-0.07520529627799988,0.009784812107682228
1783169794829617000,6.502616943359375,-0.016191372647881508,-0.07486968487501144,-0.00037597399204969406
1783169794839687200,6.512687255859375,-0.013489861972630024,-0.06865014135837555,-0.004285760223865509
1783169794849756000,6.522755859375,-0.011326825246214867,-0.056863900274038315,-0.008508780039846897
1783169794859826200,6.532826171875,-0.00819388311356306,-0.04906217008829117,-0.007119675166904926
1783169794869896200,6.542896240234375,-0.0027610058896243572,-0.034377600997686386,-0.0031803129240870476
1783169794879966000,6.552966064453125,-0.00007707229815423489,-0.02645522728562355,-0.008138319477438927
1783169794890036200,6.5630361328125,0.00032048136927187443,-0.016626369208097458,-0.011739475652575493
1783169794900106000,6.57310595703125,0.0013021226041018963,-0.010434784926474094,-0.011796999722719193
1783169794910176000,6.583176025390625,0.000012637116014957428,-0.0031817778944969177,-0.013011445291340351
1783169794920246000,6.59324609375,-0.001702172216027975,-0.00023845210671424866,-0.018175046890974045
1783169794930315000,6.60331494140625,-0.003412777790799737,-0.0023693153634667397,-0.01673617586493492
1783169794940385000,6.613385009765625,-0.008713267743587494,-0.005926766432821751,-0.011881764978170395
1783169794950455000,6.623455078125,-0.01232956163585186,-0.0074594030156731606,-0.006133537273854017
1783169794960525000,6.633525146484375,-0.014173533767461777,-0.00817126501351595,-0.012382645159959793
1783169794970595000,6.643594970703125,-0.011358256451785564,-0.009111166000366211,-0.017430797219276428
1783169794980665000,6.6536650390625,-0.007216508500277996,-0.01260283775627613,-0.022651126608252525
1783169794990735000,6.663735107421875,-0.003828758141025901,-0.01105401013046503,-0.011130323633551598
1783169795000804000,6.67380419921875,-0.0020857190247625113,-0.016629338264465332,0.003029970219358802
1783169795010874000,6.6838740234375,-0.00007789907976984978,-0.0176033154129982,0.011637501418590546
1783169795020944100,6.693944091796875,-0.0035171054769307375,-0.01893329806625843,0.012824205681681633
1783169795031014000,6.704013916015625,-0.008258065208792686,-0.01994716189801693,0.015190957114100456
1783169795041084200,6.714084228515625,-0.0104170897975564,-0.022629765793681145,0.005922890268266201
1783169795051154200,6.724154296875,-0.010530579835176468,-0.02629072591662407,0.00041646440513432026
1783169795061224000,6.734223876953125,-0.0010409378446638584,-0.026765834540128708,0.003892954671755433
1783169795071294000,6.7442939453125,0.00005629577208310366,-0.030622877180576324,0.0010868411045521498
1783169795081363000,6.754363037109375,0.006515793036669493,-0.026907768100500107,0.004069315269589424
1783169795091433000,6.764432861328125,0.0009401818388141692,-0.02290385775268078,0.005890961736440659
1783169795101503200,6.774503173828125,-0.001627904362976551,-0.01455058716237545,0.003968425560742617
1783169795111573000,6.784572998046875,-0.004660888575017452,-0.011602625250816345,0.0005661759059876204
1783169795121643000,6.79464306640625,-0.003719194559380412,-0.009793007746338844,-0.0021704882383346558
1783169795131713000,6.804713134765625,-0.006607403978705406,-0.006860082037746906,0.0018007589969784021
1783169795141783000,6.814782958984375,-0.010286294855177402,-0.003897048532962799,-0.003317836672067642
1783169795151852000,6.82485205078125,-0.0065752193331718445,0.000723088625818491,-0.005806099623441696
1783169795161922000,6.834922119140625,-0.004827385768294334,0.0032379115000367165,-0.008614935912191868
1783169795171992000,6.844991943359375,0.0005380900111049414,0.0030588204972445965,-0.013100868090987206
1783169795182062000,6.85506201171875,-0.0012819143012166023,-0.0032869596034288406,-0.00719983596354723
1783169795192132000,6.865132080078125,-0.00014241610188037157,-0.012591327540576458,0.0006686481647193432
1783169795202202000,6.8752021484375,0.0016538860509172082,-0.009029881097376347,-0.0028427299112081528
1783169795212272000,6.885272216796875,0.004782874137163162,-0.008282418362796307,-0.0035787508822977543
1783169795222342000,6.895341796875,0.0067789130844175816,-0.0028335899114608765,-0.0008743107318878174
1783169795232411100,6.9054111328125,0.008555734530091286,0.002201201394200325,0.0002750328276306391
1783169795242481000,6.91548095703125,0.003777757054194808,0.004854775033891201,-0.007865184918045998
1783169795252551200,6.92555126953125,-0.0015371078625321388,0.006590230390429497,-0.012537270784378052
1783169795262621200,6.93562109375,-0.000592218479141593,0.004693793132901192,-0.012195587158203125
1783169795272691000,6.94569091796875,-0.0016715233214199543,0.0016979589127004147,-0.009238692000508308
1783169795282761200,6.95576123046875,0.0010084155946969986,-0.0013886447995901108,-0.0010947464033961296
1783169795292831200,6.965831298828125,-0.0019349383655935526,-0.0016194414347410202,0.002102896571159363
1783169795302900000,6.97589990234375,-0.0029045953415334225,-0.00022714026272296906,-0.002481735311448574
1783169795312970200,6.98597021484375,0.0019910994451493025,0.0004656873643398285,-0.012082801200449467
1783169795323040000,6.9960400390625,0.0036614341661334038,0.0010688933543860912,-0.00981751549988985
1783169795333110000,7.006110107421875,0.00016704888548702002,-0.008097103796899319,-0.011711426079273224
1783169795343180300,7.01618017578125,-0.0032828098628669977,-0.0138796241953969,-0.0039935847744345665
1783169795353250000,7.02625,-0.006480745039880276,-0.01888664811849594,-0.0007477840408682823
1783169795363320000,7.036320068359375,-0.010497591458261013,-0.01840168610215187,0.007793239783495665
1783169795373389000,7.04638916015625,-0.003743791487067938,-0.017219213768839836,-0.0069152782671153545
1783169795383459000,7.056458984375,-0.0008220376912504435,-0.013842858374118805,-0.015963101759552956
1783169795393529000,7.066529052734375,-0.0011599869467318058,-0.01226506195962429,-0.014100588858127594
1783169795403599000,7.07659912109375,-0.0032207409385591745,-0.015303729102015495,-0.005883405916392803
1783169795413669000,7.086669189453125,-0.002604810055345297,-0.015695281326770782,-0.002785920165479183
1783169795423739000,7.09673876953125,0.0016418664017692208,-0.014546927064657211,-0.011442791670560837
1783169795433809200,7.10680908203125,0.0009827695321291685,-0.01399215031415224,-0.015183020383119583
1783169795443879200,7.116879150390625,-0.000047607580199837685,-0.012990268878638744,-0.018199048936367035
1783169795453948000,7.126947998046875,-0.0030093032401055098,-0.01859954372048378,-0.0179434884339571
1783169795464018200,7.13701806640625,-0.00837184488773346,-0.02053166925907135,-0.012912776321172714
1783169795474088000,7.147087890625,-0.006282073445618153,-0.01045960746705532,-0.021140405908226967
1783169795484158000,7.157157958984375,0.000844811846036464,-0.008760243654251099,-0.024745794013142586
1783169795494228200,7.167228271484375,-0.0023661500308662653,-0.0063119856640696526,-0.02108095772564411
1783169795504298000,7.177298095703125,0.0014019566588103771,-0.0042730700224637985,-0.026330048218369484
1783169795514368000,7.187367919921875,0.006282181479036808,-0.008521229960024357,-0.03202810510993004
1783169795524437000,7.19743701171875,0.008471034467220306,-0.009830174036324024,-0.032729849219322205
1783169795534507000,7.207507080078125,0.007573524955660105,-0.007936427369713783,-0.03409937024116516
1783169795544577000,7.217576904296875,0.0022328218910843134,-0.010570293292403221,-0.0367199182510376
1783169795554647000,7.22764697265625,0.0005985042080283165,-0.014405304566025734,-0.03158274665474892
1783169795564717000,7.237717041015625,-0.0011240283492952585,-0.013504890725016594,-0.03155345469713211
1783169795574787000,7.247787109375,-0.0012862496078014374,-0.01935749500989914,-0.03718222677707672
1783169795584857000,7.257857177734375,0.007473686244338751,-0.04423648118972778,-0.044664375483989716
1783169795594926000,7.267926025390625,-0.00017396104522049427,-0.0325036495923996,-0.043259479105472565
1783169795604995800,7.277995849609375,0.0032828222028911114,-0.02944420836865902,-0.026540420949459076
1783169795615066000,7.288066162109375,0.010857965797185898,-0.020861588418483734,-0.020728886127471924
1783169795625136000,7.29813623046875,0.014133388176560402,-0.018647700548171997,-0.024580882862210274
1783169795635206000,7.308205810546875,0.014106323011219501,-0.017664482817053795,-0.019188661128282547
1783169795645276200,7.318276123046875,0.011283106170594692,-0.01594887301325798,-0.008478227071464062
1783169795655346200,7.32834619140625,0.004602496512234211,-0.017731674015522003,-0.04194759950041771
1783169795665415200,7.338415283203125,0.002964119892567396,-0.008718738332390785,-0.07268022000789642
1783169795675485200,7.348485107421875,0.0012311830651015043,-0.0023179836571216583,-0.07978548854589462
1783169795685555000,7.358554931640625,0.003414176171645522,0.006084023043513298,-0.06107065826654434
1783169795695625000,7.368625,0.0007609854219481349,0.010268783196806908,-0.03672769293189049
1783169795705695200,7.3786953125,-0.002594331046566367,0.01563798263669014,-0.02025817334651947
1783169795715765000,7.388764892578125,-0.001853184774518013,0.016760224476456642,-0.006340818013995886
1783169795725835000,7.3988349609375,-0.00011467328295111656,0.016049426048994064,-0.003075782675296068
1783169795735905300,7.4089052734375,0.00871715135872364,0.013239105232059956,-0.0009904839098453522
1783169795745974000,7.41897412109375,0.009784013032913208,0.00956234522163868,0.006239998620003462
1783169795756044000,7.4290439453125,0.009213464334607124,0.007488294504582882,0.01690850406885147
1783169795766114000,7.439114013671875,0.003186197951436043,0.011360530741512775,0.022788232192397118
1783169795776184000,7.44918408203125,-0.0006231225561350584,0.011455811560153961,0.015524929389357567
1783169795786254000,7.459254150390625,0.0012208501575514674,0.011291760951280594,0.015947839245200157
1783169795796324000,7.469323974609375,0.008680885657668114,0.007888761349022388,0.015711288899183273
1783169795806393000,7.47939306640625,0.01172807440161705,0.002679352182894945,0.013680895790457726
1783169795816463000,7.489463134765625,0.020734084770083427,-0.004665113054215908,0.021905003115534782
1783169795826533000,7.499533203125,0.01594519056379795,-0.001832841895520687,0.02322273515164852
1783169795836603100,7.50960302734375,0.009955745190382004,-0.0018662577494978905,0.02235524170100689
1783169795846673000,7.5196728515625,0.00438521197065711,-0.0019323043525218964,0.023154456168413162
1783169795856743200,7.5297431640625,-0.002592068864032626,-0.008553395979106426,0.016644686460494995
1783169795866813200,7.539813232421875,-0.004783850163221359,-0.010481524281203747,0.01660873368382454
1783169795876883000,7.549883056640625,-0.0060778092592954636,-0.013272970914840698,0.017928432673215866
1783169795886952200,7.5599521484375,-0.0006617384497076273,-0.009410854429006577,0.023342106491327286
1783169795897022000,7.57002197265625,0.0034783347509801388,-0.009661144576966763,0.019902633503079414
1783169795907092000,7.580092041015625,0.008442733436822891,-0.013088100589811802,0.017081281170248985
1783169795917162200,7.590162353515625,0.007593456655740738,-0.013278109021484852,0.023906860500574112
1783169795927232000,7.60023193359375,0.0014556695241481066,-0.013054137118160725,0.027455255389213562
1783169795937302000,7.610302001953125,0.0002793873427435756,-0.010746203362941742,0.02338266931474209
1783169795947372300,7.620372314453125,0.0015071046072989702,-0.008670534938573837,0.013248542323708534
1783169795957441000,7.63044091796875,0.0020999242551624775,0.00019459612667560577,0.008019957691431046
1783169795967511300,7.64051123046875,0.0026360186748206615,0.005419185385107994,0.012975834310054779
1783169795977581000,7.6505810546875,0.0002474293578416109,0.008934025652706623,0.011048505082726479
1783169795987651000,7.660651123046875,-0.0006934653501957655,0.00783493835479021,0.011437326669692993
1783169795997721000,7.67072119140625,0.004434699192643166,0.006756204646080732,0.013403845950961113
1783169796007791000,7.680791015625,0.004309530835598707,-0.0011717593297362328,0.009243987500667572
1783169796017861000,7.690861083984375,0.000006110873073339462,-0.0029024342074990273,0.01221797987818718
1783169796027930000,7.70093017578125,-0.001200567465275526,-0.006960293278098106,0.012356997467577457
1783169796038000000,7.711000244140625,-0.0071995919570326805,-0.011642382480204105,0.008145801723003387
1783169796048070100,7.721070068359375,-0.007241402752697468,-0.01161362137645483,0.011521625332534313
1783169796058140200,7.73114013671875,-0.009593270719051361,-0.01299170684069395,0.014077438972890377
1783169796068210200,7.741210205078125,-0.012438857927918434,-0.013387718237936497,0.00607783580198884
1783169796078280200,7.7512802734375,-0.012418818660080433,-0.009041499346494675,0.005337949842214584
1783169796088350000,7.761349853515625,-0.009863516315817833,-0.003183610737323761,0.0026686633937060833
1783169796098419200,7.771419189453125,-0.011134618893265724,-0.0005577076226472855,0.0036123432219028473
1783169796108489000,7.781489013671875,-0.012686177156865597,-0.002884245477616787,0.002119375392794609
1783169796118559200,7.791559326171875,-0.013053420931100845,-0.00965332705527544,0.007351318374276161
1783169796128629200,7.801629150390625,-0.013904833234846592,-0.01483104471117258,0.009922866709530354
1783169796138699000,7.811698974609375,-0.01673477329313755,-0.017499208450317383,0.005834178067743778
1783169796148769000,7.82176904296875,-0.013432187028229237,-0.02120073512196541,0.006373468786478043
1783169796158838000,7.831838134765625,-0.018600337207317352,-0.028965864330530167,0.007378585636615753
1783169796168908000,7.841907958984375,-0.01427402999252081,-0.03212836757302284,0.004349772818386555
1783169796178978300,7.851978271484375,-0.019377240911126137,-0.036417458206415176,0.0028524957597255707
1783169796189048000,7.862048095703125,-0.021585267037153244,-0.03473940119147301,-0.002299389336258173
1783169796199118000,7.8721181640625,-0.018669283017516136,-0.030398480594158173,-0.007018706761300564
1783169796209188000,7.88218798828125,-0.015775758773088455,-0.025488410145044327,-0.005563556216657162
1783169796219258000,7.892258056640625,-0.015592610463500023,-0.028353391215205193,-0.004281782545149326
1783169796229328100,7.902328125,-0.01769437827169895,-0.03105197288095951,0.005479235202074051
1783169796239397000,7.912397216796875,-0.019802160561084747,-0.025592371821403503,0.009102758020162582
1783169796249467100,7.922467041015625,-0.021820837631821632,-0.022763563320040703,-0.0023480351082980633
1783169796259537200,7.932537109375,-0.01751089096069336,-0.01827293448150158,-0.011520685628056526
1783169796269607200,7.942607177734375,-0.015916723757982254,-0.014524003490805626,-0.016827035695314407
1783169796279677200,7.95267724609375,-0.015202059410512447,-0.021636221557855606,-0.015330825001001358
1783169796289747000,7.962746826171875,-0.00555768795311451,-0.024645060300827026,-0.011903602629899979
1783169796299816200,7.972816162109375,-0.005816171411424875,-0.02708175964653492,-0.01102370209991932
1783169796309886200,7.98288623046875,-0.006535224616527557,-0.027960604056715965,-0.014424292370676994
1783169796319956000,7.9929560546875,-0.006102896295487881,-0.027559690177440643,-0.013164646923542023
1783169796330026200,8.003026123046874,0.0007297098636627197,-0.02235427498817444,-0.015819553285837173
1783169796340096000,8.013095947265626,0.0094243623316288,-0.020935915410518646,-0.01860700361430645
1783169796350166000,8.023166015625,0.011918945237994194,-0.020628053694963455,-0.019124455749988556
1783169796360236300,8.033236328125,0.012029157020151615,-0.025818470865488052,-0.028480496257543564
1783169796370305000,8.043304931640625,0.012278429232537746,-0.027232874184846878,-0.03459777683019638
1783169796380375000,8.053375,0.008616631850600243,-0.017750369384884834,-0.05590920150279999
1783169796390445000,8.063445068359375,0.009615849703550339,-0.013284781947731972,-0.07040079683065414
1783169796400515000,8.07351513671875,0.004800804890692234,-0.008931897580623627,-0.056394949555397034
1783169796410585000,8.083585205078125,-0.001148963114246726,-0.006788585335016251,-0.03792353346943855
1783169796420655000,8.093655029296874,-0.002594241639599204,-0.013594141229987144,-0.02181623876094818
1783169796430725000,8.10372509765625,-0.00931685883551836,-0.006043014116585255,-0.018358126282691956
1783169796440794000,8.113794189453126,-0.00662623718380928,-0.00960562564432621,-0.020222580060362816
1783169796450864000,8.123864013671875,-0.00526802521198988,-0.017830265685915947,-0.022928085178136826
1783169796460934100,8.13393408203125,-0.004565471783280373,-0.023448191583156586,-0.012497219257056713
1783169796471004000,8.14400390625,-0.0037036726716905832,-0.03244328126311302,-0.004523449577391148
1783169796481074200,8.15407421875,-0.0030190160032361746,-0.04113601893186569,0.0009074490517377853
1783169796491144200,8.164144287109375,0.00017198361456394196,-0.04817608743906021,0.0107417032122612
1783169796501214000,8.1742138671875,0.007447714917361736,-0.04762696847319603,0.0204826220870018
1783169796511283200,8.184283203125,0.010791046544909477,-0.04457844793796539,0.02174709178507328
1783169796521353000,8.19435302734375,0.008937815204262733,-0.03789864107966423,0.010491554625332355
1783169796531423000,8.204423095703126,0.008507448248565197,-0.030056428164243698,0.0024386881850659847
1783169796541493200,8.2144931640625,0.0005618516588583589,-0.02326476201415062,0.0007138755172491074
1783169796551563000,8.22456298828125,-0.0012957032304257154,-0.016152258962392807,-0.005144546274095774
1783169796561633000,8.234633056640625,0.0018263633828610182,-0.009764754213392735,-0.004180127754807472
1783169796571703300,8.244703369140625,0.008235793560743332,0.0017491565085947514,-0.0028032734990119934
1783169796581772000,8.25477197265625,0.008134011179208755,0.00812364462763071,-0.001963031943887472
1783169796591842000,8.264842041015624,0.006142233498394489,0.013163410127162933,-0.0037569375708699226
1783169796601912000,8.274912109375,0.001726730726659298,0.009847129695117474,-0.006944246590137482
1783169796611982000,8.284982177734374,-0.0007521396037191153,0.011643432080745697,-0.0053053367882966995
1783169796622052000,8.295052001953126,0.004091840703040361,0.01398656889796257,-0.003756266087293625
1783169796632122000,8.3051220703125,0.014749012887477875,0.01022378820925951,0.0032688863575458527
1783169796642191000,8.315191162109375,0.02197444625198841,0.013997767120599747,0.00925014354288578
1783169796652261000,8.32526123046875,0.023507628589868546,0.01888200454413891,0.0022987606935203075
1783169796662331100,8.3353310546875,0.01522862259298563,0.021956317126750946,-0.002802183385938406
1783169796672401200,8.345401123046875,0.011114038527011871,0.019917400553822517,-0.004876253195106983
1783169796682471000,8.355470947265625,0.0064001986756920815,0.020731884986162186,0.001121090492233634
1783169796692541200,8.365541259765624,0.003838237840682268,0.015003157779574394,0.015664346516132355
1783169796702611200,8.375611083984374,0.004230126738548279,0.01624433510005474,0.011261247098445892
1783169796712680200,8.38568017578125,0.006272505037486553,0.011061291210353374,0.0028347396291792393
1783169796722750200,8.395750244140626,0.0048234546557068825,0.0075126029551029205,-0.0005867485888302326
1783169796732820000,8.405820068359375,-0.000950278714299202,-0.0055083902552723885,0.000621527899056673
1783169796742890200,8.41589013671875,-0.006081694737076759,-0.017574680969119072,0.006877901032567024
1783169796752960300,8.425960205078125,-0.008363491855561733,-0.022295664995908737,0.005425945855677128
1783169796763030000,8.436030029296875,-0.011133147403597832,-0.020171629264950752,0.008249987848103046
1783169796773100000,8.44610009765625,-0.0032414025627076626,-0.03177395462989807,0.013821586966514587
1783169796783169000,8.4561689453125,-0.009932322427630424,-0.02781769260764122,0.02507547289133072
1783169796793239000,8.466239013671874,-0.010011950507760048,-0.024473294615745544,0.030169032514095306
1783169796803309300,8.476309326171876,-0.0076473793014883995,-0.023455750197172165,0.024232592433691025
1783169796813379000,8.486379150390626,-0.006848164834082127,-0.020646650344133377,0.011287765577435493
1783169796823449900,8.496449951171876,-0.013555001467466354,-0.017469026148319244,0.006002938374876976
1783169796833519900,8.506519775390625,-0.012059103697538376,-0.015790170058608055,0.009171567857265472
1783169796843588900,8.5165888671875,-0.01292865164577961,-0.010454285889863968,0.008618569001555443
1783169796853659000,8.526658935546875,-0.01400669850409031,-0.009778110310435295,0.007605502847582102
1783169796863728600,8.536728759765625,-0.011269766837358475,-0.0027212658897042274,-0.004620004445314407
1783169796873799000,8.546798828125,-0.01857668347656727,0.00034270063042640686,-0.004665011540055275
1783169796883869000,8.556868896484374,-0.019698748365044594,-0.0024286629632115364,0.000731765991076827
1783169796893938700,8.566938720703124,-0.013132191263139248,0.0023471838794648647,0.005870068911463022
1783169796904009000,8.577009033203124,-0.001621547620743513,0.005928929895162582,0.010528509505093098
1783169796914077700,8.58707763671875,0.008560249581933022,0.009397431276738644,0.005296729505062103
1783169796924148000,8.59714794921875,0.01082274504005909,0.01174488477408886,-0.007659901399165392
1783169796934218000,8.607218017578125,0.010874676518142223,0.02010694518685341,-0.03562895208597183
1783169796944287700,8.617287841796875,0.008757153525948524,-0.004298975691199303,-0.036708418279886246
1783169796954357800,8.627357666015625,0.0010044253431260586,0.003198621328920126,0.000708193052560091
1783169796964427800,8.637427734375,-0.0017859358340501785,-0.0011890958994626999,0.018569188192486763
1783169796974496800,8.647496826171874,-0.0019547801930457354,0.0014370470307767391,0.016225606203079224
1783169796984567000,8.657567138671874,-0.0019705668091773987,0.012241944670677185,-0.006728023756295443
1783169796994636800,8.66763671875,0.000655576353892684,0.018203962594270706,-0.015593687072396278
1783169797004706800,8.677706787109376,-0.0007569952867925167,0.024599377065896988,-0.0197136253118515
1783169797014776800,8.68777685546875,-0.0028419841546565294,0.016041308641433716,-0.021162383258342743
1783169797024846800,8.697846923828125,-0.004982545971870422,0.017532240599393845,-0.023610450327396393
1783169797034916900,8.707916748046875,-0.010576250031590462,0.01346719078719616,-0.02598465606570244
1783169797044985900,8.71798583984375,-0.010896943509578705,0.004625443369150162,-0.011195844039320946
1783169797055056000,8.728055908203125,-0.008679862134158611,-0.003682287409901619,0.002261109184473753
1783169797065125600,8.738125732421874,-0.008607442490756512,-0.008611951023340225,-0.0009130756370723248
1783169797075196000,8.74819580078125,-0.008709974586963654,-0.013253308832645416,-0.012823796831071377
1783169797085266000,8.758265869140626,-0.002574014011770487,-0.017540957778692245,-0.03346949443221092
1783169797095335700,8.768335693359376,0.000563455861993134,-0.031628549098968506,-0.03551773354411125
1783169797105405000,8.778405029296875,-0.003180244006216526,-0.02235059253871441,-0.023119203746318817
1783169797115474700,8.788474609375,-0.0009077684953808784,-0.034488480538129807,-0.014555808156728745
1783169797125544700,8.798544677734375,-0.0030806483700871468,-0.0226396843791008,-0.014795924536883831
1783169797135615000,8.808614990234375,0.0037247936706990004,-0.02156722918152809,-0.020735304802656174
1783169797145684700,8.818684814453125,0.004897142760455608,-0.028315918520092964,-0.015181686729192734
1783169797155754800,8.828754638671874,0.002330920659005642,-0.01848619244992733,-0.02238260768353939
1783169797165824800,8.83882470703125,-0.004639130085706711,-0.014745810069143772,-0.025613419711589813
1783169797175893800,8.848893798828126,-0.009428825229406357,-0.010046395473182201,-0.026578813791275024
1783169797185963800,8.8589638671875,-0.013062728568911552,0.005000578239560127,-0.046716272830963135
1783169797196033800,8.86903369140625,-0.010365478694438934,0.01596747525036335,-0.07160404324531555
1783169797206103800,8.879103759765625,-0.005570114124566317,0.019159086048603058,-0.06856472045183182
1783169797216173800,8.889173828125,-0.004535209387540817,0.005617976654320955,-0.05027946084737778
1783169797226243800,8.899243896484375,-0.002133868867531419,-0.004039608873426914,-0.045156631618738174
1783169797236312800,8.909312744140625,-0.004549356177449226,-0.009995503351092339,-0.05726282671093941
1783169797246382600,8.919382568359374,-0.000009712413884699345,-0.011437186039984226,-0.07496649771928787
1783169797256452900,8.929452880859374,-0.002427862724289298,-0.0019182497635483742,-0.06659751385450363
1783169797266523000,8.93952294921875,-0.002656337106600404,-0.01689104735851288,-0.032723039388656616
1783169797276592600,8.949592529296876,0.001971970545127988,-0.024807825684547424,0.005169483367353678
1783169797286663000,8.959662841796876,0.0036273025907576084,-0.026288636028766632,0.013654660433530807
1783169797296733000,8.96973291015625,0.011282559484243393,-0.00473114475607872,-0.026074644178152084
1783169797306802000,8.979802001953125,0.013681021519005299,0.02441411092877388,-0.061488326638936996
1783169797316872000,8.989871826171875,0.015132976695895195,0.040193069726228714,-0.05400804430246353
1783169797326941700,8.999941650390625,0.008679021149873734,0.027501460164785385,-0.019831160083413124
