time,seconds_elapsed,z,y,x
1783170042028608500,0.0726083984375,-0.5949135198414325,-0.2585502522908151,-0.13377771652797235
1783170042038679600,0.082679443359375,-0.3761030111342668,-0.2703641703337431,-0.08659883591951802
1783170042048749600,0.09274951171875,-0.08387012334167956,-0.2529793202906847,-0.09148249804154038
1783170042058818600,0.102818603515625,0.02991641483604908,-0.17784253850281237,-0.1767834213713184
1783170042068888800,0.112888916015625,0.08108487653732299,-0.12416896211281418,-0.22435009572096168
1783170042078958800,0.122958740234375,0.16750936053693294,-0.06907295170426368,-0.1967764628850855
1783170042089027800,0.13302783203125,0.2807388493537903,-0.049374271760880946,-0.12638123133480547
1783170042099097900,0.143097900390625,0.31400457461774345,-0.03712678460627794,-0.08507853101706132
1783170042109167900,0.15316796875,0.32218437394201754,-0.05972761573195457,0.03105893593467772
1783170042119236600,0.163236572265625,0.22798457976579664,-0.027828941037505862,0.0444580042771995
1783170042129307000,0.173306884765625,0.18753624952137468,0.0048025779761374,0.03286664294376969
1783170042139377000,0.183376953125,0.34707097791731356,0.041627895417809486,-0.014167102706106379
1783170042149446000,0.19344580078125,0.6933119347512722,-0.02105710881501436,-0.09872346387943252
1783170042159516000,0.203515869140625,0.9615022681772708,0.016057985353469847,-0.10718265553382225
1783170042169585700,0.213585693359375,1.2269570391595364,0.034787235742807385,-0.008125046062888577
1783170042179655700,0.22365576171875,1.371536775007844,0.0495461211964488,0.13944299401436
1783170042189724700,0.233724609375,1.4967255816876888,0.08618775263428688,0.12319571490017696
1783170042199794700,0.243794677734375,1.608414855325222,0.1415972129061818,0.03475686572071863
1783170042209865000,0.253864990234375,1.6492969008117913,0.18328151468634604,-0.08024068079814314
1783170042219933700,0.26393359375,1.7134435020297765,0.28768501522988077,-0.19366293397443368
1783170042230003700,0.274003662109375,1.9726713613212108,0.4424117588222027,-0.18748450106782838
1783170042240073700,0.28407373046875,2.1706272980481387,0.7057248416006565,-0.49416353683676567
1783170042250142700,0.294142822265625,2.3327841916412115,0.7205550387248396,-0.6256676276106387
1783170042260213000,0.304212890625,2.6293799508184192,0.5121794147923588,-0.19064017035346478
1783170042270282800,0.31428271484375,3.144077193650603,0.6175950149878859,0.014148288407782091
1783170042280352800,0.324352783203125,3.719136842986941,0.9964476170912384,-0.04516487390492111
1783170042290421800,0.334421875,3.5375755762219425,1.480598330490291,-0.5828258994236588
1783170042300491800,0.34449169921875,3.2040959012836217,1.4940242137745021,-0.3232999339684844
1783170042310561800,0.354561767578125,3.214251969116926,1.6198805444523692,-0.19979681535325944
1783170042320630800,0.364630859375,4.123386336675286,1.7206947883322834,-0.4369268976703286
1783170042330700800,0.37470068359375,5.110503523102403,1.7501444624394178,-0.33782376855723556
1783170042340770800,0.384770751953125,5.659647809937596,1.4573834591194987,0.1464136915435083
1783170042350839800,0.39483984375,5.763046809613704,0.9548547929868102,0.692292966967076
1783170042360909800,0.404909912109375,5.265876455643773,0.844985720513761,1.2303101489797235
1783170042370979800,0.414979736328125,3.874267783465981,1.0131509146109223,1.1528802147533743
1783170042381049900,0.4250498046875,2.2959201496243478,1.0900672732919454,0.6765639213070272
1783170042391118800,0.435118896484375,1.0888777712464333,1.0921528473943471,0.4741412874948233
1783170042401188900,0.44518896484375,0.6055214230954646,1.1021002409130334,0.2591260428847745
1783170042411258600,0.455258544921875,0.9517892679363489,0.882026580402255,0.024222294847667216
1783170042421328000,0.465327880859375,1.808376871177554,0.6218114636391401,-0.23148076958479358
1783170042431398000,0.47539794921875,2.4557979923695323,0.25912176856845615,-0.3940113005295396
1783170042441467600,0.485467529296875,1.9963900905609129,0.02423690789490938,-0.5621892079778015
1783170042451537000,0.495536865234375,0.12220774504244326,-0.11948767242878675,-0.8899779047328978
1783170042461606700,0.505606689453125,-1.9796862085193394,-0.5483271252334118,-0.6795610572963953
1783170042471677000,0.515677001953125,-4.0689200024724,-0.8179407694607973,0.1977829547801986
1783170042481745700,0.52574560546875,-6.655804627388715,-1.0414800602555274,1.1476314273796975
1783170042491815700,0.535815673828125,-9.139656747853756,-1.1748049732483923,1.4024933465465903
1783170042501886000,0.545885986328125,-10.405343038380146,-1.2493205543980002,0.9779289407126605
1783170042511955700,0.555955810546875,-10.01228480079174,-1.7498112849622964,-0.10922655505212023
1783170042522025000,0.56602490234375,-9.034774816143512,-2.4157415840521455,-1.020054921845719
1783170042532094700,0.5760947265625,-9.56804056584537,-2.974779488392174,-1.101833260539919
1783170042542164700,0.586164794921875,-11.45635781970024,-3.306873554190993,-0.6566355242609977
1783170042552233700,0.596233642578125,-14.221768289208411,-3.3354745025143027,0.20482863550800828
1783170042562303700,0.6063037109375,-19.512977339029312,-2.791248090597987,1.0589869292430578
1783170042572373800,0.616373779296875,-26.39242588663101,-2.1443666292406616,1.4747053269289434
1783170042582442800,0.62644287109375,-32.11228588094711,-1.5160878692835569,1.9126126139387487
1783170042592512800,0.6365126953125,-34.39811718275547,-0.9965363182879984,1.8702628339871763
1783170042602582800,0.646582763671875,-33.95555695537328,-0.6725206372655927,1.1895576481569559
1783170042612652800,0.65665283203125,-30.958175466811657,-0.9086769791796803,0.16745390402264893
1783170042622721800,0.6667216796875,-25.265339088499545,-1.4950395282968878,-0.5537979578599334
1783170042632791800,0.676791748046875,-17.910373800331353,-2.2751564707979557,-0.7440295839451253
1783170042642861800,0.68686181640625,-10.098868859267235,-2.736590325476229,-0.3962698200460523
1783170042652930800,0.696930908203125,-2.2952362590134143,-2.432588089434802,-0.4612389896932989
1783170042663000800,0.707000732421875,3.3879555081188677,-1.9188123453617094,-0.4945243695057928
1783170042673070800,0.71707080078125,6.254981601017713,-1.6044856991827487,-0.2599935099016875
1783170042683139800,0.727139892578125,8.709872415414452,-1.3502148777768015,-0.45729551276452834
1783170042693209900,0.7372099609375,11.53190844298601,-0.6668325086265802,-0.8436891778972
1783170042703279600,0.747279541015625,13.326089031028747,0.5399632015138864,-0.842811664410308
1783170042713348900,0.757348876953125,13.21817226166725,1.3871940706059336,-0.6763481596644967
1783170042723418600,0.767418701171875,13.025110526722669,1.9546666258141396,-0.4175627834435552
1783170042733489000,0.777489013671875,12.502787611317634,2.6630183087870476,-0.016141425853222608
1783170042743559000,0.787558837890625,12.271539061319828,2.936448296432197,0.078040248144418
1783170042753628000,0.7976279296875,13.109843988895415,3.140231624138355,0.5609769095785916
1783170042763698000,0.807697998046875,13.496304143393038,3.579369768117368,1.234085575865209
1783170042773767700,0.817767578125,13.52944302740693,3.7510298185929654,1.3417775965601204
1783170042783837000,0.8278369140625,12.928387351548672,3.6860707319483157,0.7530657078377903
1783170042793906700,0.83790673828125,11.766100645220279,3.732421564234793,0.06292005509771406
1783170042803976700,0.847976806640625,10.45992101626396,3.5547391847297547,-0.3447610204745084
1783170042814046000,0.8580458984375,9.652872227695584,3.0989523960277436,-0.4233609483283013
1783170042824115700,0.86811572265625,9.339065221476554,2.7849954599440094,-0.20387064066343008
1783170042834185700,0.878185791015625,9.290832813227176,2.577817521363497,0.3041020796867087
1783170042844255700,0.888255859375,9.059165161034464,2.285989999501407,0.7083230414003133
1783170042854324700,0.89832470703125,8.86640562390685,2.117994316752255,0.8118463981084525
1783170042864395000,0.90839501953125,8.454189681383967,2.375991465204954,0.7609661056987941
1783170042874464800,0.91846484375,7.662305728721618,2.5341706873387095,0.38802316603064535
1783170042884533800,0.92853369140625,6.783988524231314,2.6351985739693045,-0.04935187726598233
1783170042894603800,0.938603759765625,6.093755266273021,2.8036732724070546,-0.37841333390325305
1783170042904673800,0.948673828125,5.635142898756265,2.8763772740900513,-0.37219241356179117
1783170042914742800,0.95874267578125,5.411323037454485,2.7209844678044317,-0.04609493956295773
1783170042924812800,0.968812744140625,5.692011033403873,2.4863030207484957,0.2120594270117581
1783170042934882800,0.9788828125,6.457036789757013,2.3690496832430363,0.34388452990092333
1783170042944952800,0.988952880859375,7.286226098462939,2.4074632927894593,0.3592924903804436
1783170042955021800,0.999021728515625,7.92580761207044,2.5223931557834147,0.31270540165267885
1783170042965091600,1.009091552734375,8.39959358332157,2.6505881585419178,0.11988406960153951
1783170042975161900,1.019161865234375,8.7924408085078,2.800526498813927,-0.23395125135155392
1783170042985230600,1.029230712890625,8.969310702586174,2.9289722614631053,-0.48769890739992255
1783170042995300900,1.03930078125,8.809297835284472,3.0221736922517417,-0.6328994054950773
1783170043005371000,1.049370849609375,8.66205910935998,3.057915744501352,-0.6979531116206199
1783170043015440000,1.05943994140625,8.50750567650795,3.0388208756700155,-0.4558157956007868
1783170043025510000,1.069510009765625,8.74275703240633,3.0006615331456064,-0.06164855559086427
1783170043035579600,1.07957958984375,8.898132887557148,3.02998202791512,0.10039875841420143
1783170043045649700,1.089649658203125,9.31891266028583,3.1153049804136157,-0.15621941156918182
1783170043055719000,1.099718994140625,9.502308156740664,3.064282941445708,-0.40888014916367826
1783170043065789000,1.109788818359375,9.266928790548443,2.95545607150197,-0.7495259894043207
1783170043075859000,1.11985888671875,8.707310455971955,2.8417528276935218,-0.7742452739886939
1783170043085928000,1.129927978515625,7.955806444492936,2.37349964838922,-0.3562921760533005
1783170043095997700,1.139997802734375,7.418361363279819,1.681283984442055,0.15218248420329764
1783170043106068000,1.15006787109375,6.709902712801099,0.8781944548934698,0.5577676652085035
1783170043116137000,1.160136962890625,5.300424621933698,0.0672881141141057,1.1032754221722483
1783170043126207000,1.17020703125,2.91177825781703,-0.46949821092933414,1.7477799252651631
1783170043136277000,1.180277099609375,0.21054887631833552,-0.6750564393535256,2.1641301911137996
1783170043146346800,1.1903466796875,-3.052742725777626,-0.9237026988759637,2.283541145044565
1783170043156416000,1.200416015625,-6.648384121999144,-1.8400433445513247,1.8346863475628197
1783170043166486000,1.210486083984375,-9.711714877286553,-3.091435444526374,1.086578554393351
1783170043176555800,1.2205556640625,-12.573575550246238,-3.6463527618050575,0.7283544604294001
1783170043186625000,1.230625,-15.653167704504728,-3.372935925902426,0.6356549878135324
1783170043196694800,1.24069482421875,-18.766872556245325,-3.016744068418443,0.38038452437836673
1783170043206765000,1.25076513671875,-21.433070956373214,-2.4122974349476394,0.16805906684156507
1783170043216833800,1.260833740234375,-23.857840773272514,-1.7886720537543295,-0.5433240562491118
1783170043226903800,1.27090380859375,-25.468282750511168,-1.7297871724568306,-1.7153249318622052
1783170043236974000,1.28097412109375,-25.383517724156377,-2.0035816095001993,-2.7673785547107457
1783170043247043800,1.2910439453125,-23.319407265543937,-2.325030216513574,-3.245071178011596
1783170043257113000,1.301113037109375,-20.370798283457756,-3.1098236263930796,-3.1802614367097615
1783170043267182800,1.311182861328125,-18.41887628017664,-3.8393005149811503,-2.2300867643631994
1783170043277252900,1.3212529296875,-19.2018784227252,-3.6980408634662627,-0.7434867823053151
1783170043287321900,1.33132177734375,-21.884995224428177,-3.093509328190982,-0.11973342735078185
1783170043297391900,1.341391845703125,-24.137506440436837,-2.460947922478616,-0.31621878006849435
1783170043307462000,1.3514619140625,-24.57266428260803,-1.6177008623257279,-0.6512482782647013
1783170043317531000,1.36153076171875,-23.1111538066864,-0.9846002351701258,-1.312699386113882
1783170043327601000,1.371600830078125,-19.723788665676114,-0.6166428288295864,-1.564475906486064
1783170043337671000,1.3816708984375,-14.853117396521567,-0.4374050365760922,-0.8421038814671337
1783170043347740000,1.391739990234375,-9.31044352262616,-0.48587914462685583,0.35578524944446976
1783170043357810000,1.401809814453125,-4.241065206116438,-0.681369714153558,1.103274253128469
1783170043367880000,1.4118798828125,0.1702688883781433,-1.000407022241503,1.2397940166398882
1783170043377950000,1.421949951171875,3.7247780637443064,-1.1194377446830273,0.9467430904626846
1783170043388019000,1.43201904296875,6.175739721998572,-1.062588899257779,0.450449555859901
1783170043398089000,1.4420888671875,7.6718164843887084,-0.7914587129876017,0.167133001505211
1783170043408159000,1.452158935546875,8.519377900609374,-0.2743256213106215,-0.04006557800453156
1783170043418228000,1.46222802734375,8.344609947246312,0.4097242718376219,-0.33398784365616735
1783170043428298000,1.472298095703125,7.7713664074212305,0.8779536318749189,-0.27209347834438086
1783170043438367700,1.48236767578125,7.688096003538369,1.304083679590374,0.3123798229601234
1783170043448437000,1.49243701171875,7.9055510059833525,1.6467610987238586,0.7614852342020719
1783170043458506800,1.5025068359375,8.371776771113275,1.8617071870878337,1.0083143612999468
1783170043468577000,1.512576904296875,9.358118296992778,1.8034353231221436,1.025700891843438
1783170043478647000,1.52264697265625,10.464615896081924,1.8530396042466162,0.7248495941136032
1783170043488715800,1.5327158203125,11.622079127776622,1.8605378510475157,0.19935995830595493
1783170043498786000,1.5427861328125,12.909448842322826,1.694797838270664,-0.3150464118208736
1783170043508855800,1.552855712890625,13.901198949247599,1.676345651257038,-0.7313879829064012
1783170043518925000,1.562925048828125,14.089902488982677,1.9156971359506247,-1.0418897370349616
1783170043528995000,1.5729951171875,13.21309861166477,2.168266414135694,-0.9844327696487307
1783170043539064800,1.58306494140625,11.390926439368725,2.011839880888164,-0.4314910267593339
1783170043549134000,1.593134033203125,9.600911154311895,1.6851599490925668,0.19943784584775565
1783170043559203800,1.603203857421875,8.269825632157922,1.6199506870791316,0.6622000265203416
1783170043569273900,1.61327392578125,7.771040244206786,1.6776733927294611,0.8552339236099272
1783170043579342800,1.6233427734375,8.235695399019122,1.7515391316682098,0.904582476407662
1783170043589412900,1.633412841796875,9.142473558840155,1.9420888837918637,0.8838358948465436
1783170043599483100,1.643483154296875,9.833023627662659,2.2228087361842395,0.7174933130666613
1783170043609553000,1.653552978515625,9.602930677440762,2.528992115657031,0.45406635811757295
1783170043619622000,1.663621826171875,8.859485469254851,2.7090315796822306,0.15982512617725878
1783170043629692000,1.67369189453125,8.148951766067743,2.825390890957415,-0.06707532987995073
1783170043639762000,1.683761962890625,7.522751127558946,2.8855861242011187,-0.09875974990236572
1783170043649831000,1.693830810546875,7.191931027218699,2.8569772848322987,0.08640943256095052
1783170043659901000,1.70390087890625,7.124386600255966,2.731234059140086,0.34174722561128434
1783170043669971000,1.713970947265625,7.0770976103365415,2.668799814797938,0.3432872946601361
1783170043680040000,1.7240400390625,7.288645434564351,2.8163533057600256,0.28049974336829037
1783170043690110000,1.73410986328125,7.751642885297536,3.1150454526945945,0.39302755018919705
1783170043700179700,1.7441796875,8.298895659297704,3.215132259082794,0.4161334812927991
1783170043710250000,1.75425,9.000232495072483,3.1738366643592713,0.4141163693167269
1783170043720319000,1.764319091796875,9.585091069367527,3.3293568964168427,0.3493672721609473
1783170043730389000,1.774388916015625,9.483498242330551,3.2970383888751265,0.2458972713415511
1783170043740459000,1.784458984375,8.367655307269096,3.060264061193168,-0.020886190961208192
1783170043750527700,1.79452783203125,7.125092118176817,2.7169921832978723,-0.4234831499358639
1783170043760598000,1.804597900390625,6.683952278986573,1.9758806787565348,-0.7809910949870944
1783170043770668000,1.81466796875,6.173488143679499,0.9221417331695556,-1.0239393620636315
1783170043780737000,1.824737060546875,4.341233553308248,-0.11656067906618117,-0.8366152939882129
1783170043790807000,1.83480712890625,1.648212028184533,-1.2220043851882219,-0.49068303777724503
1783170043800876800,1.844876708984375,-2.0562299344956876,-2.1581614919677374,0.10423366040196269
1783170043810946800,1.85494677734375,-6.4773436647266145,-2.730607451674342,0.5227329575106501
1783170043821015800,1.865015869140625,-10.712882216376066,-3.112047732183337,-0.0648071474859491
1783170043831085800,1.8750859375,-15.215684634256363,-4.011488973245024,-0.7602911290466785
1783170043841156000,1.885156005859375,-19.309278474736214,-5.486621731805801,-0.8758155238676816
1783170043851224800,1.895224853515625,-21.642540220761298,-6.1341135801464315,-0.7471995192181319
1783170043861295000,1.905295166015625,-22.874314889335633,-6.487075369668006,-1.0250044340118765
1783170043871364900,1.91536474609375,-23.741803825819492,-6.833879221081733,-1.0196956600792706
1783170043881433900,1.925433837890625,-24.555902532899378,-6.515661412683129,-0.9547864039257168
1783170043891503900,1.93550390625,-26.263162377858162,-5.5508758850514885,-1.3697269491069017
1783170043901574000,1.945573974609375,-27.688320268416405,-4.891268651503324,-2.0964508857250213
1783170043911643100,1.95564306640625,-27.63895622578859,-4.140765049238503,-2.3525755183041093
1783170043921713000,1.965712890625,-26.347784780871866,-3.455417517495155,-2.259507066245377
1783170043931783000,1.975782958984375,-22.975479261827466,-3.3147222218647596,-1.9530369787856936
1783170043941853000,1.98585302734375,-18.595934974825383,-3.0607381084457037,-1.2569639087580144
1783170043951922000,1.995921875,-14.325443767738342,-2.233603978703916,-0.039260508699342604
1783170043961992000,2.005991943359375,-9.920108036875725,-1.3258163495793938,1.071505780684948
1783170043972062000,2.01606201171875,-4.602271676892042,-0.4154880960613489,1.0248112495273352
1783170043982131000,2.026130859375,0.3533130871772766,0.3243485662385821,0.5516696405943483
1783170043992201000,2.036200927734375,3.278147225922346,0.5359846532717347,-0.2187530063662678
1783170044002271000,2.04627099609375,4.169157907769084,-0.05747983680516481,-1.080521811637655
1783170044012339700,2.056339599609375,4.238979632014036,-0.39142303760200736,-1.098407085483521
1783170044022410000,2.066409912109375,3.1448692208111284,0.4390498811736703,-0.76705602007173
1783170044032480000,2.07647998046875,2.06918644670248,0.6688961631581187,-1.081186632221937
1783170044042549800,2.0865498046875,2.469978493413329,0.6694605190426111,-0.7595742860142141
1783170044052619000,2.096618896484375,3.1263930684000254,0.6159177294254302,0.15699684394877403
1783170044062689000,2.10668896484375,3.7255233291536567,0.6181228382542729,1.414581697616726
1783170044072759000,2.116759033203125,5.627438315728306,1.2246136909037828,2.0257346968583763
1783170044082828300,2.126828369140625,8.36160550571084,2.2367472451657053,1.2715255180738865
1783170044092898000,2.13689794921875,10.822415773284435,2.952481439605355,-0.10644238595999776
1783170044102968300,2.14696826171875,12.72172729936242,3.411776528689265,-1.6971185363031922
1783170044113037000,2.157037109375,13.824258332908153,2.591237559428811,-2.0735846816614267
1783170044123107000,2.167107177734375,14.565450793731213,1.3938321934461593,-0.8447032503105699
1783170044133177300,2.17717724609375,14.374686229813099,1.2237819162547587,0.571835499658063
1783170044143246000,2.18724609375,12.856590527838469,1.5983742305651307,1.030616282544285
1783170044153316400,2.19731640625,10.778936697041988,2.1520520691767335,0.75369779519625
1783170044163386000,2.20738623046875,9.243098417627811,2.7692174605756996,0.8190129287369549
1783170044173456100,2.2174560546875,8.579354522666335,2.9926588439539072,1.0192526655521243
1783170044183525000,2.227525146484375,8.671822378483414,3.062203504823148,1.114872994050756
1783170044193595100,2.23759521484375,9.332367185142635,3.145385938161611,1.0574188031435012
1783170044203665200,2.2476650390625,9.627314008069037,3.239108177953958,0.7848672057680786
1783170044213734100,2.257734130859375,9.620033787932991,3.326424350096285,0.2561224588883109
1783170044223804200,2.26780419921875,9.449486667135357,3.231536573655903,-0.28501535762920976
1783170044233874200,2.277874267578125,9.048987465891242,3.066906567947566,-0.7713508677214383
1783170044243943200,2.287943115234375,8.777703258103132,2.8894349085837603,-0.8512393740810453
1783170044254013200,2.29801318359375,8.574678932070732,2.407859014108777,-0.46644558189306407
1783170044264083200,2.308083251953125,8.543868198743462,2.1182094208076596,0.09797096501169726
1783170044274153200,2.3181533203125,8.693415201610327,2.40594207457155,0.16529086250355465
1783170044284222200,2.32822216796875,8.358533258658648,2.945791294316947,0.04235958895953372
1783170044294292200,2.338292236328125,7.534376683422923,3.0237577465727923,-0.29928428587513045
1783170044304362000,2.348362060546875,7.009226435637474,2.8940535082951184,-0.3580549844747409
1783170044314431200,2.35843115234375,6.655258683943748,3.04483619043678,0.16918723062127827
1783170044324501200,2.368501220703125,6.449681750819087,2.895938299128413,0.35439090900924053
1783170044334571000,2.378571044921875,6.52895577854216,2.7557673196330663,0.3295501534696668
1783170044344640300,2.38864013671875,6.365354531359672,2.526744336730242,0.10230510349217802
1783170044354710000,2.3987099609375,5.773740053063631,1.856503188703954,-0.11474345531007274
1783170044364780300,2.4087802734375,5.142293330594897,0.6795189717203378,-0.14070338760530576
1783170044374850300,2.418850341796875,3.9874475879222153,-0.22020663924068212,0.04603882546154782
1783170044384919000,2.4289189453125,2.3590952754616734,-0.880452462953329,0.33189225961640473
1783170044394989300,2.4389892578125,-0.37448096289038657,-1.7283502715215087,1.1308185320056974
1783170044405059000,2.44905908203125,-4.507568024846911,-2.460839785929024,2.0805637268938124
1783170044415128300,2.45912841796875,-9.649636314514279,-3.107370388022065,2.252411116635054
1783170044425198000,2.469197998046875,-13.985614431512355,-3.6098674899727103,1.0440281373031437
1783170044435268000,2.47926806640625,-16.74985585724115,-4.518602044558524,-1.0227551937803625
1783170044445337000,2.489337158203125,-18.025284958624837,-5.893297575858235,-2.246783047620207
1783170044455407000,2.499406982421875,-18.59384589359164,-6.783433812958002,-2.007502874597162
1783170044465477000,2.50947705078125,-18.64767685250044,-7.382446000289916,-1.020690516335517
1783170044475547100,2.519547119140625,-18.996435345113277,-7.218348494023084,-0.14976521219480782
1783170044485616000,2.5296162109375,-19.820606533396244,-6.489696365821361,-0.3249514275025576
1783170044495686100,2.53968603515625,-20.303402909576892,-5.402822335612774,-0.7671030010186135
1783170044505756200,2.549756103515625,-21.696837628138063,-4.261310706287622,-1.4150593981310724
1783170044515825200,2.5598251953125,-23.49240002592802,-3.5115751657858487,-2.3694556336954236
1783170044525895200,2.569895263671875,-24.317050522160528,-2.9116724593549965,-2.3359959932945666
1783170044535965200,2.579965087890625,-23.344733429980277,-2.5656203030914067,-0.7511738296765834
1783170044546034200,2.5900341796875,-21.06460706181526,-2.5449486864626407,1.3307163965806363
1783170044556104200,2.600104248046875,-17.988890287685393,-2.736116862745583,2.52142255718559
1783170044566174200,2.61017431640625,-14.057251096224784,-2.6169246661320327,2.9246564440906044
1783170044576243200,2.6202431640625,-9.269920958101748,-2.2442456380970777,2.8628894314855335
1783170044586313200,2.630313232421875,-4.492510156446695,-1.7482647861726581,2.662350492528081
1783170044596383000,2.640383056640625,-0.31809272071421146,-1.2443696539923548,2.1655608084388076
1783170044606453200,2.650453369140625,2.861914448973536,-0.4815294249847531,1.3724628038115798
1783170044616522000,2.66052197265625,5.9085442448288195,0.24626594025716184,0.18513594691399485
1783170044626592300,2.67059228515625,8.4307749035269,0.573778377354145,-0.7579059874758124
1783170044636662300,2.680662353515625,9.252509804573654,0.9597259061545133,-0.8410828678563237
1783170044646731300,2.690731201171875,7.9528499327749005,1.1988580490089953,-0.646808249990642
1783170044656801300,2.70080126953125,6.965570249262452,1.3035418277986346,-0.005786766707897186
1783170044666871000,2.71087109375,7.432038590976595,1.697703496584296,0.1362841281246394
1783170044676940300,2.720940185546875,8.796026265779137,1.896579909157008,-0.4107823660558089
1783170044687010300,2.73101025390625,11.056795022523403,1.8007039984621107,-1.0142506925463677
1783170044697080000,2.741080078125,14.191059847211838,1.5971055258035658,-1.170592616250366
1783170044707150300,2.751150390625,16.53258439466953,1.555611632028967,-1.112113247013837
1783170044717219000,2.761218994140625,17.076208456778524,1.3949727417834101,-1.1067983356013893
1783170044727289000,2.7712890625,15.85626451125145,1.1310095245331526,-0.9140452282145619
1783170044737359400,2.781359375,13.674966766107081,1.155783608044684,-0.7441388164732605
1783170044747428000,2.791427978515625,11.715298678743839,1.2725658209070563,-0.6375511768236756
1783170044757498400,2.801498291015625,10.147844779360295,1.4059269742570817,-0.3992676501551643
1783170044767568100,2.811568115234375,8.812815488016605,1.6030312625907361,0.04774182998714968
1783170044777637000,2.82163720703125,8.23457896220982,2.0649638605713845,0.6404609998557717
1783170044787707100,2.83170703125,8.18036280337572,2.5691905627936125,0.941227907237783
1783170044797777200,2.841777099609375,8.209145830267667,2.8417414295166727,0.7084679297637194
1783170044807847200,2.85184716796875,8.619933785814046,2.7916280298262834,0.26197262795493004
1783170044817916200,2.861916259765625,9.181291073012352,2.7426918572217223,0.21819228547727687
1783170044827986200,2.871986083984375,9.26743674007058,2.600060625092685,0.25136278847213833
1783170044838056200,2.88205615234375,8.786033279553056,2.4109224933326243,0.15915577554833144
1783170044848125200,2.892125244140625,7.980605370184779,2.148110345813632,0.1039576199395582
1783170044858195000,2.90219482421875,7.55422529323101,1.9578566540271043,-0.01353737626809161
1783170044868265200,2.91226513671875,7.683352608403563,2.0176602576047182,0.13639447489762677
1783170044878334200,2.922334228515625,7.86288441516757,2.0223092524543405,0.4783019873708486
1783170044888404200,2.932404296875,7.960198541972041,2.0630948518291117,0.5468124463541433
1783170044898474200,2.94247412109375,7.919925568294524,2.170296897049993,0.6215295048926025
1783170044908543200,2.952543212890625,7.896185796266794,2.43280699288249,0.6264136236723512
1783170044918613200,2.96261328125,7.824099634221196,2.694676598854363,0.23935791443437338
1783170044928683300,2.972683349609375,7.384597625365853,2.9417922878086564,-0.052316115632746366
1783170044938753000,2.9827529296875,6.6281719395756715,3.1251325469449163,-0.09300247415043413
1783170044948822300,2.992822265625,5.691304346439242,3.2958167381256818,-0.18516305411662906
1783170044958892000,3.00289208984375,4.8682373200058935,3.239310130266845,-0.26579333702055735
1783170044968962300,3.01296240234375,4.565538567778468,2.967612373241782,-0.038187381308805196
1783170044979031000,3.023031005859375,4.514152079412341,2.1158171188436445,0.44280894144624466
1783170044989101000,3.03310107421875,2.88583600730896,1.3374309456579387,0.5634524693792685
1783170044999171300,3.04317138671875,-0.6151169344365597,0.1065621398821473,0.457970160623081
1783170045009241000,3.053240966796875,-5.812092872333526,-1.0290843968018888,0.9218187848255037
1783170045019310300,3.063310302734375,-11.769734033286571,-1.5859921572454272,0.554042178411968
1783170045029380000,3.073380126953125,-17.114926017707585,-1.6111666382513938,-0.6431899133630097
1783170045039450000,3.0834501953125,-20.063634368515014,-2.6530355516940354,-1.6553510862842202
1783170045049519000,3.09351904296875,-20.410075816357136,-3.887263166378438,-1.0480042013272644
1783170045059589000,3.103589111328125,-19.870714087867736,-4.7410617234230035,0.10609969173585995
1783170045069658600,3.11365869140625,-20.041198080301285,-5.901770220649242,0.9896290231175721
1783170045079727600,3.1237275390625,-21.827265504515168,-6.716198013553023,0.9023265872396529
1783170045089797600,3.133797607421875,-23.092421049165726,-7.038891506060957,0.2046774635342881
1783170045099867600,3.14386767578125,-22.339437612783907,-6.47293227802515,-0.2791024803236127
1783170045109936600,3.1539365234375,-21.454286762881278,-5.98291997911632,-1.0421182120285928
1783170045120006700,3.164006591796875,-20.423594638621807,-5.819463108840584,-1.5121591515325008
1783170045130076700,3.17407666015625,-19.237787940496204,-5.300128853857517,-1.5084187959603965
1783170045140146700,3.184146728515625,-17.79271305106878,-4.513251915702224,-2.0748945952162146
1783170045150215700,3.194215576171875,-16.091443386435508,-3.5734964921697974,-2.071760827235132
1783170045160285700,3.20428564453125,-14.220299970221518,-3.1686718289420006,-1.2612369099020957
1783170045170355500,3.21435546875,-11.436022303158044,-2.935493479925394,-0.6274716082926839
1783170045180424700,3.2244248046875,-8.103409327554703,-2.2113646743670103,-0.38911410307250915
1783170045190494500,3.234494384765625,-4.616035998350381,-1.3346391229823231,-0.4329197443882003
1783170045200564700,3.244564697265625,-1.8746061238884926,-0.49734629505872724,-0.5096471563683822
1783170045210633500,3.254633544921875,0.03373100468814373,-0.02908902410119772,-1.1271326830998063
1783170045220703500,3.264703369140625,2.237084514296055,0.388404274302721,-2.0622152925156056
1783170045230773800,3.274773681640625,4.107468052053451,0.9021184974469244,-2.461926704382896
1783170045240843500,3.284843505859375,4.774102992281318,1.0361293468773365,-2.0475430624321103
1783170045250912800,3.294912841796875,5.419933044889569,1.1146752064563332,-0.37808936264589427
1783170045260982500,3.304982421875,6.609070348742604,1.0885326110705733,0.3065416183259338
1783170045271052500,3.315052490234375,8.689628668808936,1.590930344299972,0.6750169110607356
1783170045281121800,3.325121826171875,11.059162336176634,1.7629976604022084,1.2115820676341653
1783170045291191600,3.335191650390625,13.014955043411254,1.816329583747685,1.2038066113270818
1783170045301261600,3.345261474609375,14.236006073397396,2.005388512791693,0.530352638734132
1783170045311330600,3.35533056640625,14.621585937929153,2.171063497508317,0.13753124210890383
1783170045321400600,3.365400634765625,14.131431600201129,2.0392161097221075,0.12855024593695996
1783170045331470800,3.375470947265625,12.77542031110525,1.33732120167315,0.4233025692045688
1783170045341540600,3.38554052734375,11.379088702058791,0.9560193067215382,0.6290507672429084
1783170045351609600,3.395609619140625,10.09673184723854,0.7401059807606041,0.6607474896244704
1783170045361679600,3.4056796875,8.77317555154562,0.4322155051089823,0.6283261792954057
1783170045371749600,3.41574951171875,8.005486713463068,0.5834121748790144,0.6363790643043816
1783170045381818600,3.425818603515625,8.285310201537609,0.9683167704977095,0.5427088834928349
1783170045391888600,3.435888671875,8.73729409082532,1.2825440479554235,0.48790414764843876
1783170045401958700,3.445958740234375,9.33739582695961,1.6338472566150128,0.2417346717693843
1783170045412027600,3.456027587890625,9.624808162727952,2.1137102096922695,0.02121569691020995
1783170045422097700,3.46609765625,9.433005487933753,2.3179911116570233,-0.17789885353362186
1783170045432167400,3.47616748046875,9.270971343937516,2.370688536491245,-0.21034157197689637
1783170045442237700,3.48623779296875,9.437467143517733,2.355723607071489,-0.30565416796691713
1783170045452306700,3.496306640625,9.440187508392333,2.3029481485649943,-0.37274274092093107
1783170045462376700,3.506376708984375,9.184002085536719,2.1810474236451087,-0.25062663795100526
1783170045472446700,3.51644677734375,9.116852210849522,2.206984267325699,-0.057419521452672775
1783170045482515500,3.526515380859375,9.076837595847248,2.379665331412107,-0.033550442223157735
1783170045492585700,3.536585693359375,9.038735536468028,2.4520658201038836,-0.37086876374259586
1783170045502655700,3.54665576171875,8.946754002863168,2.599004978559911,-0.8320123302374035
1783170045512724700,3.556724853515625,8.476959147074819,2.778110376605391,-0.9309987741682678
1783170045522794800,3.566794677734375,8.028601047068834,2.7044278852790593,-0.9268697115395218
1783170045532864500,3.576864501953125,7.930361622112989,2.6185046287998555,-0.9481552222829311
1783170045542933800,3.586933837890625,7.722308654263615,2.5419290463805195,-0.9605467940833419
1783170045553003500,3.59700341796875,7.453278362882137,2.286121078535169,-0.8562617322877049
1783170045563073500,3.607073486328125,7.248730188283324,1.9430236804239451,-0.2862904008000158
1783170045573143800,3.617143798828125,6.513456011593341,1.4069427271708845,-0.014727156874816865
1783170045583212500,3.627212646484375,4.883154318630695,0.5584077897429466,-0.1714060574482195
1783170045593282800,3.63728271484375,2.058081115320325,-0.09722907886952162,0.3684817590082064
1783170045603352600,3.6473525390625,-2.354897823771834,-0.5042367852248251,1.0429187147565186
1783170045613421600,3.657421630859375,-7.114425178211927,-1.2969414066202938,1.5779158182956277
1783170045623491600,3.66749169921875,-11.032345640921593,-2.0434723058618602,1.9079731175698338
1783170045633561600,3.6775615234375,-13.499035029661655,-2.6840637271642684,1.8484255345799028
1783170045643631600,3.687631591796875,-15.059970340931415,-3.147508921664953,1.1083013605754821
1783170045653700600,3.69770068359375,-17.062687296426294,-3.634129824569821,0.020711473715119062
1783170045663770600,3.7077705078125,-18.900351636886594,-3.9485876959130164,-0.5125400647982955
1783170045673840600,3.717840576171875,-19.779474897062777,-4.341886171998083,0.20340583616327493
1783170045683909600,3.72790966796875,-19.866729986667632,-4.758855738788843,1.5330261446028948
1783170045693979600,3.737979736328125,-19.457372940707206,-4.9428790117532015,1.8024056878134607
1783170045704049700,3.748049560546875,-19.141663315737247,-4.637480352917313,1.6170308541096745
1783170045714118700,3.75811865234375,-21.824904036080834,-3.3794214885294434,1.0688934062294662
1783170045724188700,3.768188720703125,-25.736632073891162,-2.573107443976402,-0.8337110969793051
1783170045734258700,3.7782587890625,-30.170441035044192,-1.1030717162936925,-2.5028841531932353
1783170045744328700,3.78832861328125,-32.89006473588943,-0.4676677806317806,-2.7518486848846075
1783170045754397700,3.798397705078125,-32.06591459039449,-0.7445325650312006,-1.5290134018301962
1783170045764467700,3.8084677734375,-27.54919938249588,-1.3391665372788906,-0.4499519450686872
1783170045774537500,3.818537353515625,-20.56426333850622,-1.7235016624465584,0.14792817862653174
1783170045784606700,3.828606689453125,-12.76175068219304,-1.967683636036515,0.5606938548535109
1783170045794676500,3.838676513671875,-5.626010913273692,-2.064372178288549,0.7910025667179376
1783170045804746800,3.848746826171875,0.8181634723007678,-1.685936632553488,0.5987048749484122
1783170045814815500,3.8588154296875,6.22787030673027,-0.6811509568363427,-0.31554307276401666
1783170045824885500,3.868885498046875,9.452921902281046,0.0972621043562889,-1.0177258213110267
1783170045834955800,3.878955810546875,10.467087254631519,0.5101964242815971,-1.517219795922935
1783170045845024500,3.8890244140625,10.238685326236485,0.4321930010162294,-1.6317496998138725
1783170045855094800,3.8990947265625,10.595993036007881,0.4599089831985533,-1.3456681742578744
1783170045865164500,3.90916455078125,11.406479397809505,0.31006869647353885,-0.42319132738243787
1783170045875234600,3.919234619140625,12.859528334856032,0.40798020464926954,0.015378432990936561
1783170045885303800,3.9293037109375,13.821237523782253,1.1119514805808663,-0.5367969195026904
1783170045895373600,3.93937353515625,13.438666777938604,1.4891719514377415,-0.9952354648225009
1783170045905443600,3.949443603515625,11.84011982115507,1.6168030367031692,-1.3628835129529238
1783170045915512600,3.9595126953125,10.047992073988913,1.8789979291066525,-1.4852733365640043
1783170045925582600,3.96958251953125,8.822656498551368,1.8672363257728517,-1.2906845381826162
1783170045935652600,3.979652587890625,8.655974236488342,1.6566608537085354,-1.252868310007453
1783170045945721600,3.9897216796875,8.84740047918558,1.7535666919730604,-0.9686554278675467
1783170045955791600,3.99979150390625,8.917100038355589,1.6855051092684268,-0.16201774085070936
1783170045965861600,4.009861572265625,9.079636286655068,1.4837911351822315,0.8700352599658071
1783170045975931600,4.019931640625,9.648224694150686,1.6706364798299966,1.5093455554164945
1783170045986000600,4.030000732421875,9.888581264233588,1.8434458464711903,1.5314059960551558
1783170045996070700,4.040070556640625,9.932153863978385,1.8801229876138268,1.1901844748184085
1783170046006140700,4.050140625,9.888457345592975,1.8219092835761606,1.0117655246671289
1783170046016209700,4.060209716796875,9.872524447923897,1.6735365851856767,0.7735152792137115
1783170046026279700,4.07027978515625,10.151758737933635,1.703279835411906,0.6496727725762873
1783170046036349400,4.080349365234375,10.403893424093722,1.6740664542786776,0.556532314727269
1783170046046418700,4.090418701171875,10.375572169494628,1.622323845951259,0.6751683752954005
1783170046056488400,4.100488525390625,9.828983412361145,1.5815582664512098,0.8198623121079057
1783170046066558700,4.110558837890625,9.069136519950627,1.5717304076589642,0.5754013023808598
1783170046076628700,4.120628662109375,8.321866200518608,1.5753101658418773,0.28980865632034836
1783170046086697700,4.13069775390625,7.7418585733860725,1.527612156730145,0.04257119501675479
1783170046096767700,4.140767822265625,7.8348185966342685,1.3582383174955843,-0.22187186903916298
1783170046106837800,4.150837646484375,8.514868898752331,1.1454958766557275,-0.3228066705588251
1783170046116906800,4.16090673828125,9.245788971886038,1.0888667383957653,-0.3466345227288082
1783170046126976800,4.170976806640625,9.810290402328967,1.0653558797530829,-0.39754513721149415
1783170046137046800,4.181046875,10.013708696115016,1.3084883442901074,-0.29277578076394273
1783170046147115800,4.19111572265625,8.896024517101049,1.7267000200964508,-0.3157121822532266
1783170046157185800,4.201185791015625,7.169263268336653,1.9501310282111166,-0.4193876607831567
1783170046167255600,4.211255615234375,5.546163469576835,2.118020035715401,-0.19106263354923575
1783170046177324800,4.22132470703125,4.112626457729935,1.8873755890905857,-0.0815626318505965
1783170046187394800,4.231394775390625,3.143714205557108,1.5723089381992816,-0.2629044106460176
1783170046197464800,4.24146484375,2.9238398670107126,1.091550132260844,-0.4447275614839047
1783170046207534800,4.251534912109375,2.4973762034267186,0.4946874511130154,-0.23284741829549893
1783170046217603600,4.261603515625,1.3205693888366221,-0.10708689440861344,0.2570118272097781
1783170046227673900,4.271673828125,-0.9097726654618978,-0.5675985196754336,1.2888986776791511
1783170046237743900,4.281743896484375,-4.922214409387111,-0.6542109274625778,1.9248425654366612
1783170046247812900,4.291812744140625,-9.673890465804934,-0.9790447930000722,1.4244699082940817
1783170046257883000,4.3018828125,-13.222868310528993,-1.1282634406954049,0.6410326622638851
1783170046267952600,4.31195263671875,-15.170990921527146,-1.543597076847404,0.10125910157058388
1783170046278022000,4.32202197265625,-16.787489714586734,-2.700144508871436,0.10179641418452375
1783170046288091600,4.332091552734375,-18.696916976487636,-3.805967569699883,0.07262595887756906
1783170046298161700,4.34216162109375,-21.36632557083368,-4.542201531332731,-0.07511170214554294
1783170046308232000,4.35223193359375,-24.129533561861514,-4.761645661768317,0.12068250823654234
1783170046318300700,4.36230078125,-26.530695708680152,-3.27040903288573,-0.44064909653123463
1783170046328370700,4.37237060546875,-27.996515279972552,-1.3818097472190856,-3.3229879459068177
1783170046338440700,4.382440673828125,-27.8036557896018,-0.2807024628661573,-5.724920200315117
1783170046348509700,4.392509765625,-25.834478700137137,-0.3072093615196645,-5.6034530445069075
1783170046358580000,4.402580078125,-22.626629583799836,-1.1048315655730665,-4.315337772290408
1783170046368649700,4.412649658203125,-19.504796370661257,-1.9551092550151048,-2.752884457673132
1783170046378719000,4.422718994140625,-17.10133588377237,-2.3674330418266356,-1.5650748952925204
1783170046388788700,4.432788818359375,-14.798712437117098,-2.289667080578953,-0.6139097506038844
1783170046398858800,4.442858642578125,-11.932892797398566,-1.885366002833843,0.45155517901424314
1783170046408928800,4.4529287109375,-8.880942683303356,-1.380301242352277,1.3392739431761205
1783170046418997800,4.462997802734375,-6.305234701439738,-0.8769546839654445,1.2094340227548033
1783170046429067800,4.47306787109375,-3.9585324590831994,-0.29773879173249007,0.6950628700718283
1783170046439137800,4.4831376953125,-1.2318079863220452,0.19162571079209445,0.24249694311246275
1783170046449206800,4.493206787109375,2.1021990739881993,0.1697882652543485,-0.369109937376529
1783170046459276800,4.50327685546875,4.77094598955512,-0.07728139260113238,0.015091094816382973
1783170046469346800,4.513346923828125,6.265194367474317,-0.6598758213564753,1.3154540916495023
1783170046479415600,4.52341552734375,7.106962587246298,-0.7850314564190805,1.419711315590143
1783170046489485800,4.53348583984375,8.009543879899383,-0.26830504584684967,0.9193333977505564
1783170046499555800,4.543555908203125,8.975048953977227,0.2332392854236066,0.7086313766971231
1783170046509625600,4.55362548828125,10.78342816324234,0.4206337883867323,0.5930142986239865
1783170046519694800,4.56369482421875,12.606175505077838,0.6482134406134485,0.5422967224953695
1783170046529764600,4.5737646484375,13.51724639365673,1.0925134974002837,0.5805700467882677
1783170046539834600,4.583834716796875,13.573210857462882,1.4327647123001515,0.5495141795935109
1783170046549904000,4.59390380859375,13.140239127159118,1.4378572131335734,0.273485005768016
1783170046559973600,4.6039736328125,12.60848553558588,1.1620954215399921,-0.02631017050500959
1783170046570044000,4.6140439453125,12.350253117072581,0.9805639653913676,0.01232044279295951
1783170046580112600,4.624112548828125,11.931887419748305,0.9458604624092578,0.15929938527010382
1783170046590182700,4.6341826171875,11.415689124703407,0.8969595072485506,0.436568001230061
1783170046600253000,4.6442529296875,11.239572679340839,0.796401283956319,1.1063638897068797
1783170046610322700,4.65432275390625,11.369624123620985,1.0360260326333344,2.145307563352585
1783170046620392000,4.664391845703125,10.990269417214392,1.5749879481501876,2.427463147636503
1783170046630461700,4.674461669921875,10.167739566397666,2.165422276750952,1.8281088688686489
1783170046640531700,4.68453173828125,9.234028391465545,2.7969746515512464,1.2436582908526062
1783170046650600700,4.6946005859375,8.070844444036483,2.90752586106956,0.9156567550644278
1783170046660670700,4.704670654296875,7.161891862785816,2.721948344400525,0.5619435261210426
1783170046670740700,4.71474072265625,6.926629985493421,2.5377128899902104,0.4236183936880901
1783170046680809700,4.724809814453125,7.320431150403619,2.1515039337746797,0.3276549508402124
1783170046690879700,4.734879638671875,8.192289388012886,1.9004909451209007,0.3420566934192553
1783170046700949800,4.74494970703125,8.975958470037579,1.77258089678362,0.44140966910757123
1783170046711018800,4.755018798828125,9.376140275895596,1.742919625752419,0.6047156962031498
1783170046721088800,4.7650888671875,9.214621095684171,1.80726993284896,0.5251122538626194
1783170046731158800,4.77515869140625,8.420549277588725,1.9169857144564388,0.3380492844088003
1783170046741228800,4.785228759765625,7.764932574981451,2.0473659522995353,0.17906627161148936
1783170046751297800,4.7952978515625,7.5031702287763355,2.0236204811833796,-0.24552944267615676
1783170046761367800,4.805367919921875,7.6205965847611425,2.0044474325492976,-0.3209022982422262
1783170046771437600,4.8154375,8.160904654189943,1.9468067060939966,0.13768665186632423
1783170046781506800,4.8255068359375,8.333981001204252,1.823160891072452,0.3644477542517707
1783170046791576800,4.835576904296875,8.265981231689453,1.385712599876523,0.43722697659544646
1783170046801646600,4.845646484375,7.1987249251425265,1.1224139840148388,0.2297421274902299
1783170046811715800,4.8557158203125,4.40760601388216,0.8866587702475488,-0.4523230946468189
1783170046821785600,4.86578564453125,0.8624439280539751,0.42458194149062034,-0.5911820051629096
1783170046831855900,4.87585595703125,-3.1470436422407624,0.11558028972670435,0.08785184992160648
1783170046841926000,4.88592578125,-7.154288402044773,-0.4184883007906377,0.8943706597991287
1783170046851995000,4.895994873046875,-10.695296290802956,-0.6716239806868135,1.1613539555229246
1783170046862065000,4.90606494140625,-13.157898702490328,-0.8559548582956195,0.6927148456409573
1783170046872134700,4.916134765625,-15.201866536784172,-1.836022126211226,-0.5707721447428689
1783170046882204000,4.926203857421875,-16.624744791972635,-3.273555221956968,-1.7915572538018225
1783170046892273700,4.936273681640625,-16.387033767962453,-3.957650415551662,-2.2708058743730186
1783170046902343700,4.94634375,-15.789126327002048,-3.612906419277191,-1.480544262215495
1783170046912412700,4.95641259765625,-17.545376120579242,-2.50943050609678,-0.22842896253243086
1783170046922482700,4.966482666015625,-22.26046870548725,-1.3297564655072986,-0.08397007658481598
1783170046932552700,4.976552734375,-27.47789706430435,-0.4205176146611571,-1.0312419401619584
1783170046942622700,4.986622802734375,-31.220361591386794,-0.5077903860531747,-1.6896296418525278
1783170046952691700,4.996691650390625,-32.41083160514831,-1.6070912055060267,-1.563377589855343
1783170046962761700,5.00676171875,-30.61392480701208,-3.0557728872537613,-1.2864537687450646
1783170046972831700,5.016831787109375,-26.52513573646545,-3.573852758261561,-1.8080287883922457
1783170046982900700,5.026900634765625,-21.571034488952158,-3.098752781802416,-2.571616036374867
1783170046992970800,5.036970703125,-16.482983036154508,-2.6080419792354106,-2.1008236939817664
1783170047003040800,5.047040771484375,-11.1328939273417,-2.5307559104591606,-1.0686747950427233
1783170047013109800,5.05710986328125,-5.8778889943242065,-2.6122920378953216,-0.1713738904779777
1783170047023179800,5.0671796875,-1.5201467892855405,-2.4573516515523193,0.015529504499956964
1783170047033249800,5.077249755859375,2.079766877427697,-2.294209984705597,-0.11725974897993728
1783170047043319800,5.08731982421875,4.542033773550391,-2.161239876499772,0.12135410562148317
1783170047053388800,5.097388916015625,6.1173413090437645,-1.5075222855120896,0.24840454145474358
1783170047063458600,5.10745849609375,6.56019613545835,-0.5400200462676584,-0.4166538519050926
1783170047073529000,5.117529052734375,6.314358503615856,0.8084227072700858,-1.0772979542203247
1783170047083597800,5.127597900390625,6.654243369421362,2.05502143548876,-1.4474230599887667
1783170047093668000,5.137668212890625,7.761174683752656,2.8787396193072197,-1.604955070260167
1783170047103737900,5.14773779296875,8.930690172290802,3.3084301359832287,-1.9638311983920633
1783170047113806800,5.157806884765625,10.357045163679123,3.1594442741304634,-2.0872883589737117
1783170047123876900,5.167876953125,12.275904270792006,2.9876632276237007,-1.3165370645806194
1783170047133947000,5.17794677734375,14.469867436242103,2.674446588513255,-0.3561456802546978
1783170047144017000,5.188016845703125,15.486481935310362,2.095252323590219,0.19566735086571424
1783170047154086000,5.1980859375,15.01919058677554,1.6761612346008419,0.15419808007571845
1783170047164156000,5.208156005859375,13.38787065668106,1.497987564447522,-0.17334098929986358
1783170047174226000,5.218225830078125,11.300170063644646,1.6973637432359159,-0.3515772763606161
1783170047184295000,5.228294921875,9.572531447523831,1.8600987289778887,-0.22440862097516653
1783170047194365000,5.238364990234375,8.22025583782494,1.9126031154580414,0.12975965825933963
1783170047204435000,5.24843505859375,7.843257923677563,1.9649043805815278,0.7860065850615501
1783170047214504000,5.25850390625,8.20891669768691,2.005087922409922,1.3121620643667875
1783170047224574000,5.268573974609375,8.712723128670454,1.9673253241181372,1.3623735176041722
1783170047234644000,5.27864404296875,8.683681158581376,2.068639041952789,1.662682452085614
1783170047244712700,5.288712646484375,8.384888181620836,2.0079105786152183,1.8133894386425613
1783170047254783000,5.298782958984375,8.254701128262282,1.9173216684125363,1.5709049166202544
1783170047264853000,5.30885302734375,8.282534307083488,2.023865541985631,1.2424524221941828
1783170047274922800,5.3189228515625,8.506714818391204,2.03024501388967,0.8009927033998072
1783170047284992000,5.328991943359375,8.97388692446053,1.8702147570617496,0.5252831899827346
1783170047295061000,5.33906103515625,9.168316440626977,1.6697262331172822,0.5641394652627408
1783170047305131000,5.349131103515625,9.053672993358969,1.3581253586404025,0.5608929576221853
1783170047315200800,5.35920068359375,9.289385537028313,1.2812835265003144,0.6026417760059237
1783170047325270000,5.36927001953125,9.75569547331035,1.3016989764109252,0.683123718214035
1783170047335340000,5.379340087890625,10.484101517796516,1.4779972080811856,0.6582700666602701
1783170047345409800,5.389409912109375,11.080103417396545,1.6109452505856752,0.4587533103574067
1783170047355479000,5.39947900390625,11.090940453231333,1.7082482714742422,0.4719479421690106
1783170047365548800,5.409548828125,10.391448953062294,1.680380021339655,0.5721538083596155
1783170047375618800,5.419618896484375,9.819521172010898,1.6642099539138375,0.7179005786933005
1783170047385689000,5.429689208984375,9.241638281947374,1.6415245132446288,1.1183715767562388
1783170047395757800,5.4397578125,7.804001433566212,1.4697909591414033,1.5924471786037087
1783170047405828000,5.449828125,6.167756322029232,0.8138476549282669,1.656281937393546
1783170047415897900,5.45989794921875,5.245880546319484,-0.035785891391336914,2.2202860858388243
1783170047425967000,5.469967041015625,4.289660602459311,-1.2070967389136553,3.122355483447015
1783170047436036900,5.480036865234375,2.0599071617037055,-2.347946543329209,3.728792267821729
1783170047446107000,5.49010693359375,-1.0834095689684151,-3.368917630171776,3.6896596963509913
1783170047456175900,5.50017578125,-5.63425793261528,-3.499523785725236,3.550204756170511
1783170047466246000,5.510245849609375,-11.759247710585594,-2.545121704941988,2.7038828186169264
1783170047476316000,5.52031591796875,-17.485304805976153,-2.0324568447202442,0.1468441645157989
1783170047486385000,5.530385009765625,-20.425170509636402,-1.5134341399043798,-1.9827391663491725
1783170047496455000,5.540454833984375,-20.58850696840286,-1.652831504678726,-2.4192821792684494
1783170047506525000,5.55052490234375,-19.473587577927113,-2.1124517340637743,-1.6955049636267125
1783170047516595000,5.560594970703125,-19.894272658109664,-2.6783096936821935,-1.0436804929092527
1783170047526664000,5.570663818359375,-22.829007428622244,-2.7860218803822994,-0.9674206984408199
1783170047536734000,5.58073388671875,-26.204997773659226,-2.5497996336251494,-2.029190244139731
1783170047546804000,5.590803955078125,-28.450281961023805,-1.8383318644583224,-2.97991509771496
1783170047556873000,5.600873046875,-30.616959644663332,-1.5553382219150662,-2.917574084614217
1783170047566943000,5.61094287109375,-31.66485541718006,-1.5864552447125315,-1.8276741307131945
1783170047577013000,5.621012939453125,-30.272898369956014,-2.139125513716787,-1.081900187318772
1783170047587082000,5.63108203125,-26.937003888463973,-2.5283687230616807,-1.2690600047431886
1783170047597152000,5.641152099609375,-22.66734270246029,-2.6345477088451386,-2.062303116929531
1783170047607221800,5.6512216796875,-18.421522995293138,-2.557331782695651,-2.210286085350066
1783170047617292000,5.6612919921875,-14.29612882592678,-2.4661539666891095,-1.608811015035957
1783170047627360800,5.67136083984375,-10.559576153236627,-2.4134864986017344,-0.20903971386440098
1783170047637431800,5.681431884765625,-6.669588238069415,-2.1629563250288366,0.7034821772404015
1783170047647501800,5.691501708984375,-2.47370657402575,-1.4427917469263076,0.48337929063513874
1783170047657572000,5.701572021484375,1.2624141369879245,-0.7279103699237108,0.023801219891384243
1783170047667640800,5.711640869140625,4.516878289505839,-0.3441796403899789,-0.775791699713096
1783170047677711000,5.721711181640625,7.096326042419672,0.1331895961754024,-1.3701628563061357
1783170047687780900,5.73178076171875,9.577173720371723,0.7752062279753387,-1.3690510956719517
1783170047697851000,5.741850830078125,12.325588631415366,1.1295049651890992,-0.41698849068693816
1783170047707920000,5.751919921875,14.347060556262731,1.0987171743459998,0.43960707666501403
1783170047717990000,5.761989990234375,16.012769078171253,1.388435302838683,0.5182599768150598
1783170047728060000,5.772059814453125,17.284347349345683,1.6594181895926594,0.15014825669564305
1783170047738129000,5.78212890625,17.635787628388403,1.9431521291092038,-0.19317878545299172
1783170047748199000,5.792198974609375,16.769640754163266,2.1690675013855096,-0.1776549800414592
1783170047758269000,5.80226904296875,15.101296038532256,2.1255011852510273,0.2740415436722338
1783170047768338000,5.812337890625,13.171777590239047,1.8808090701818465,1.0497248876400291
1783170047778408000,5.822407958984375,11.77751051250696,1.9186337739244101,1.8014697221376001
1783170047788478000,5.83247802734375,11.117772346055506,2.052430688343197,1.8140394269838929
1783170047798548000,5.8425478515625,10.700496197533607,2.247840739979595,1.593393811804056
1783170047808617000,5.852616943359375,10.194410131180286,2.4381075835086405,1.4857096821546554
1783170047818687000,5.86268701171875,9.507605094105005,2.473354691848159,1.2918354617834091
1783170047828756700,5.8727568359375,8.955121433714032,2.6843656327202914,1.1642002848647535
1783170047838826000,5.882825927734375,8.834822152641415,2.7229823636233803,1.1723949164319782
1783170047848896000,5.89289599609375,8.798989791759848,2.6786758966460824,1.20321332160905
1783170047858965800,5.9029658203125,8.706206878644227,2.4960218662083147,1.1696602307710795
1783170047869035000,5.913034912109375,8.64583278170228,2.3008913621656597,1.1589227097880095
1783170047879104800,5.923104736328125,8.695082258039712,2.133712402626872,0.9876727744832634
1783170047889175000,5.933175048828125,8.576708392071723,2.1330659214168786,0.5335000699143857
1783170047899243800,5.943243896484375,8.605719967022537,2.1376414126388728,0.32420309335328634
1783170047909313800,5.953313720703125,9.092409843510389,2.0483685534708203,0.11212013933546841
1783170047919384000,5.963384033203125,9.738297763785718,2.0745989732705055,-0.048356107694283126
1783170047929453800,5.973453857421875,10.149350507748126,2.042842775786668,-0.040316301362589
1783170047939523000,5.983523193359375,10.267833094787598,1.984521081329882,0.31522724828049536
1783170047949592800,5.9935927734375,10.03065515474081,1.8522095831632612,0.6674024174690246
1783170047959662800,6.003662841796875,9.862294145810603,1.9792941404618323,0.763991298738867
1783170047969731800,6.01373193359375,9.728433956897257,2.2176744420357046,0.7205870412983
1783170047979801900,6.0238017578125,9.437327442786097,2.3542599642597137,0.4305493985276669
1783170047989871900,6.033871826171875,8.92912540719211,2.465893854448199,0.17067374285198747
1783170047999942000,6.04394189453125,8.198703931230305,2.3207984241627155,-0.23318894347585736
1783170048010011000,6.054010986328125,7.49178491140902,2.181242215564847,-0.6295338015194982
1783170048020081000,6.064080810546875,6.617550007796287,1.9654902176454663,-0.5375982259482145
1783170048030151000,6.07415087890625,5.04607167520225,1.3584272641964257,-0.5610178991761058
1783170048040220000,6.084219970703125,2.3564357008635994,0.6506377451509237,-0.5044049813985825
1783170048050290000,6.0942900390625,-1.155123390570283,-0.16929755912795663,-0.10382763688433914
1783170048060360000,6.10435986328125,-4.886076343557238,-0.874793268147856,0.3109493517655879
1783170048070429200,6.11442919921875,-8.056293356114626,-1.6110663927473128,0.40388303499612954
1783170048080499000,6.1244990234375,-9.961952789914607,-2.433185763067007,0.41805878679957237
1783170048090569000,6.13456884765625,-10.89547516427636,-3.086158088645339,0.6255751270215958
1783170048100638200,6.14463818359375,-12.547149315613508,-4.315041711953282,0.7175339373379945
1783170048110708000,6.1547080078125,-15.340585271644592,-5.324433274030685,0.5409586057594046
1783170048120778000,6.164778076171875,-18.991268171608446,-5.240139956840872,-0.07796612346228211
1783170048130848000,6.174847900390625,-23.25598664051294,-4.289651834630966,-0.02020790810715407
1783170048140917000,6.1849169921875,-28.389746536040306,-2.1221689720883963,0.1665625812061131
1783170048150987300,6.1949873046875,-33.81393665385246,-0.09685323129445314,-0.6651579995431005
1783170048161057000,6.20505712890625,-37.12092302076816,1.5302442587994038,-1.7127257091492414
1783170048171126000,6.2151259765625,-36.179786664271354,1.8244483005344867,-2.6377017889618872
1783170048181196000,6.225196044921875,-31.51341748600006,0.6903422712907195,-2.551518712502718
1783170048191266000,6.23526611328125,-25.343629950404164,-0.8022707605116068,-1.5275027050063013
1783170048201335000,6.2453349609375,-19.52497172820568,-2.016981335429847,-0.8323840130940079
1783170048211405000,6.255405029296875,-14.95027896311283,-2.6615382993623613,-0.4130057777263224
1783170048221475000,6.26547509765625,-11.58892153906226,-2.2476916868977246,-0.10373254247941076
1783170048231545000,6.275545166015625,-8.921296905523539,-1.5219477012276648,0.653099897480756
1783170048241614000,6.285614013671875,-6.563666441917419,-0.45323812713250516,1.5557826046817005
1783170048251683800,6.295683837890625,-4.397258807390928,0.3646607028827071,1.5323565747782588
1783170048261754000,6.305754150390625,-2.657709388723969,1.0692262914456427,0.8327806111961603
1783170048271822800,6.31582275390625,-1.0818822132706643,0.9897853827230632,0.2573128194503486
1783170048281893000,6.32589306640625,0.5471867230266332,0.7117864797271788,0.08515428140070289
1783170048291963100,6.335963134765625,2.558849786043167,0.8384997194953262,0.08757895126435905
1783170048302032000,6.346031982421875,5.888817800095677,1.007675698070228,0.23314252878455444
1783170048312102100,6.35610205078125,9.518829083430767,1.2243280058301984,0.06952054934129119
1783170048322172200,6.366172119140625,12.372163335585594,1.5006260962575673,-0.4087365029092878
1783170048332242000,6.376241943359375,13.948141902208327,1.4325117604523896,-0.5584703335851431
1783170048342311200,6.386311279296875,14.05067405592203,0.8305142736993729,-0.5901095901584252
1783170048352381000,6.396380859375,13.639324959361552,0.3378510218903422,-0.3319095030121505
1783170048362451200,6.406451171875,13.086819671660662,0.2745376566261053,-0.35988340547829867
1783170048372520000,6.41652001953125,12.509200985491274,0.364641267529875,-0.7964568866010755
1783170048382590000,6.42658984375,12.483501896089315,0.492922925658524,-0.8823821158416568
1783170048392660200,6.43666015625,12.928226023507117,0.39228155412748456,-0.5686542758060619
1783170048402729000,6.44672900390625,13.174707213950157,0.26039763372316954,-0.38219047782178966
1783170048412799200,6.45679931640625,12.765582807701826,0.047741555992513895,-0.33684020087998356
1783170048422869000,6.466868896484375,12.301356691956519,0.02477232994586229,-0.05859554296210408
1783170048432938000,6.47693798828125,11.566871035295724,0.33005510731711984,0.42172238734103734
1783170048443008000,6.487008056640625,10.915385148882866,0.8070847366645931,0.4285905560774728
1783170048453078000,6.497078125,10.137432106417418,1.5149414757274091,0.3408944081742316
1783170048463148000,6.50714794921875,9.148905053192376,2.126649624633789,0.6830178466867655
1783170048473217000,6.517217041015625,8.44068371860087,2.465420391717553,1.0105579755082725
1783170048483287000,6.527287109375,7.956381614032387,2.330585512553155,0.9606484278269112
1783170048493357000,6.537357177734375,7.854394819241762,2.097498056690395,0.8370943827420473
1783170048503426000,6.547426025390625,7.899877052000164,1.9502717518560586,0.6897564342267811
1783170048513496000,6.55749609375,7.7511583166509865,1.5923125924386083,0.22897793818470089
1783170048523566000,6.567566162109375,7.549178531235456,1.5451020745828747,-0.02509852969292551
1783170048533635000,6.577635009765625,7.647706125482916,1.5836461786411702,-0.11856884055081754
1783170048543705000,6.587705078125,8.024118348696827,1.546743850440532,0.05248626630157232
1783170048553775000,6.597775146484375,8.381737608635426,1.5611019000083206,0.49585364534817633
1783170048563845000,6.60784521484375,8.674304258427023,1.5566370295539498,0.8916665154069662
1783170048573914000,6.6179140625,9.10163827510476,1.580136416954547,0.8852496341019869
1783170048583984000,6.627984130859375,9.751586284425855,1.5603475745096802,0.7839989715661853
1783170048594054000,6.638053955078125,10.18268929824829,1.5999506861016153,0.6199929429750889
1783170048604123100,6.648123046875,10.311949299889802,1.678576479049027,0.5406137013118714
1783170048614193000,6.65819287109375,9.898707521450518,1.5947697763323783,0.6113707701781764
1783170048624263200,6.66826318359375,8.894087996080517,1.3069341005854307,0.4625073656613007
1783170048634332000,6.678331787109375,7.932882665023207,1.021700424030423,0.4551151730507612
1783170048644402000,6.68840185546875,6.598598054566979,0.51467166999951,0.5695788433050737
1783170048654472200,6.69847216796875,5.004890939030051,-0.09918255102485418,0.5637221531661227
1783170048664542000,6.7085419921875,3.8151369645833966,-0.8078275178559124,0.8036197639677674
1783170048674611200,6.718611083984375,3.181165107551217,-1.677366664867848,1.14848000703305
1783170048684681000,6.728680908203125,2.3570599702417847,-2.7842887729793784,1.4391659576445817
1783170048694751000,6.7387509765625,-0.22042437364459036,-3.467480295732617,2.2467016529470683
1783170048704820200,6.7488203125,-4.7871851766943925,-3.6361452560454603,3.603019816035032
1783170048714890000,6.758889892578125,-10.527466027748584,-3.2185055349081755,3.9961096178054807
1783170048724960000,6.7689599609375,-17.680917394447327,-2.3425436613723636,2.9165850735768672
1783170048735029000,6.779029052734375,-24.43473348325491,-1.1481883306100964,0.9617796968791633
1783170048745099000,6.78909912109375,-28.073218580424783,-0.036518297319114205,-1.0326303988456726
1783170048755169300,6.799169189453125,-29.703529625737666,0.12803089823797345,-2.185478830221295
1783170048765239000,6.809239013671875,-30.056124920034407,-0.38088951475843785,-2.5303327166110274
1783170048775308000,6.81930810546875,-29.49944965317249,-0.6219874047279358,-2.52074188144505
1783170048785378000,6.8293779296875,-28.63283983761072,-0.6754870858557522,-2.420083997170627
1783170048795448000,6.839447998046875,-27.426898698472975,-1.0953111652947962,-2.3399866703659296
1783170048805517000,6.84951708984375,-25.12666945347786,-1.4016934283405542,-1.8426352607406675
1783170048815587000,6.859587158203125,-22.745077099525925,-1.5187642488859594,-1.6592903254292903
1783170048825657000,6.869656982421875,-20.683019481790065,-1.573759867659956,-1.9200180678896606
1783170048835726000,6.87972607421875,-18.568925387346745,-1.6122855592787264,-2.3866195344641805
1783170048845796000,6.889796142578125,-15.956646793454885,-1.9553977165676653,-2.536488316631317
1783170048855865900,6.899865966796875,-12.571397621685266,-2.0931385463066396,-1.6835406773276627
1783170048865935000,6.90993505859375,-9.738045834851265,-1.820387626966834,-0.535246548255533
1783170048876004900,6.9200048828125,-8.11454680764079,-1.6388362970739603,-0.12201459709051996
1783170048886075100,6.9300751953125,-6.299063319328427,-1.3168190963923931,-0.040168417324498294
1783170048896145200,6.940145263671875,-4.83484066183865,-0.6532127102054656,-0.40552060960270464
1783170048906214000,6.9502138671875,-4.31614528928101,-0.07931699008196592,-1.2027999915678054
1783170048916284200,6.9602841796875,-2.8569921901404856,0.33952567710429427,-1.3317571378052233
1783170048926354000,6.97035400390625,-0.011483517044782638,0.7720797665178776,-0.6691172585628926
1783170048936423200,6.980423095703125,3.272259336927533,1.0519885947883127,-0.1369830701742321
1783170048946493200,6.9904931640625,6.486222552230954,1.0982453190505503,0.3048822337463498
1783170048956563000,7.00056298828125,9.253139334648846,1.2965430549524724,0.47157158313728864
1783170048966632200,7.010632080078125,11.473175683510302,1.7197297426924107,0.18662534522153437
1783170048976702000,7.020701904296875,12.870769859838484,2.042328542654216,-0.07149155715331434
1783170048986772000,7.03077197265625,13.496736689591406,2.048748784960061,-0.13910327719859777
1783170048996842200,7.04084228515625,13.718918136036395,1.9619668658249079,-0.11959332476034759
1783170049006911000,7.050910888671875,13.938580293136834,1.8793398744121192,0.14592340554222463
1783170049016981200,7.060981201171875,13.884937550276517,1.647263495288044,0.3580604278348386
1783170049027051000,7.071051025390625,13.497441622990369,1.4299464400090276,0.6873618672404438
1783170049037120000,7.0811201171875,13.281300625753403,1.3919330818265676,1.3142819791302085
1783170049047190000,7.09118994140625,13.071811487621067,1.4388748657435178,1.7791873093113302
1783170049057260000,7.101260009765625,13.05894148465395,1.449935773462057,1.992944772412628
1783170049067328800,7.111328857421875,12.907883492702245,1.6496886766083538,2.051288678701222
1783170049077398500,7.1213984375,12.269634689003228,1.707997657714039,1.7223828875496983
1783170049087468500,7.131468505859375,11.514314334106444,1.84533940513283,1.1690104616254566
1783170049097537500,7.14153759765625,10.44843399208784,2.1384685111127792,1.0460722834166138
1783170049107607600,7.151607666015625,9.3293370236665,2.4809230812758205,1.0159023322109133
1783170049117677600,7.161677490234375,8.05054107619822,2.697063201729953,1.439157774338126
1783170049127747600,7.17174755859375,7.0432105383038515,2.7893261826246976,1.8468067012064158
1783170049137816600,7.181816650390625,6.597059592953324,2.943663634638488,1.6042358160749077
1783170049147886600,7.191886474609375,6.601297961175441,3.0099323425769806,1.2612545916892588
1783170049157956600,7.20195654296875,7.094215918397903,2.844945193994045,0.9277654913354665
1783170049168025900,7.21202587890625,7.660631658029556,2.725902050462365,0.3845986714746803
1783170049178095600,7.222095703125,7.917678081628679,2.561198979517817,0.02004939307719469
1783170049188165600,7.23216552734375,8.05579885059595,2.5470249082148073,-0.030775588948652146
1783170049198234600,7.242234619140625,8.342574057504534,2.5633225475430486,0.12576806787252426
1783170049208304600,7.2523046875,8.915727580958604,2.4658242963433263,0.5358623420663178
1783170049218374700,7.262374755859375,9.5120714258641,2.237243211989105,1.0794210107889026
1783170049228443600,7.272443603515625,9.839556244301795,2.147028541926294,1.4229989589586853
1783170049238513700,7.282513671875,9.592574118599295,2.064713100680709,1.3083683711722491
1783170049248583700,7.292583740234375,9.26424934220612,2.1395842172697184,0.8715932299975305
1783170049258653700,7.30265380859375,9.210620627871155,2.141415670480579,0.5702935309130698
1783170049268722400,7.312722412109375,9.099712860000134,1.9619407084703444,0.5991179857939481
1783170049278792700,7.322792724609375,8.53628052009344,1.97670105522871,0.7305234750315547
1783170049288862700,7.33286279296875,7.398060333529115,1.8187021580979228,0.6467341618411243
1783170049298931700,7.342931640625,5.42899547226727,1.351744863823056,0.8877253765657543
1783170049309001700,7.353001708984375,3.1302737092256545,0.5001435245618224,1.4176236956611274
1783170049319071500,7.363071533203125,1.2766174343854189,-0.6128216631062329,1.7699153308361768
1783170049329140700,7.373140625,-0.058227732563018796,-1.513469941870123,1.7097969622209668
1783170049339210800,7.383210693359375,-1.2580348989903927,-2.156745487689972,1.503642521469295
1783170049349280500,7.393280517578125,-3.0950960128605365,-1.7561090699322521,1.209703633476421
1783170049359350800,7.403350830078125,-6.407378148096799,-1.2981949138127267,0.9156226335991173
1783170049369419500,7.41341943359375,-11.11250931096077,-1.6214260203287005,0.633804537641257
1783170049379489500,7.423489501953125,-16.243592096233368,-2.2609971586726605,0.05431545449011028
1783170049389559800,7.433559814453125,-19.70985366382599,-2.9545658446639775,-1.0608346760015934
1783170049399628500,7.443628662109375,-20.586816531097888,-3.758460553115606,-2.0402894380420444
1783170049409698800,7.45369873046875,-19.15128220795393,-4.297906160496175,-2.079856309276819
1783170049419768600,7.4637685546875,-18.079584704089164,-3.9508112171813843,-1.8726867001332341
1783170049429837800,7.473837890625,-19.918605135333536,-3.135166157442331,-2.2747065350733697
1783170049439907600,7.483907470703125,-23.58076336903572,-2.220351113899052,-2.638131120289862
1783170049449977600,7.4939775390625,-27.007008568060396,-1.3926108349576591,-2.9755633322462436
1783170049460046600,7.504046630859375,-28.650639698195455,-1.4039058436930179,-3.3099832106441256
1783170049470116600,7.51411669921875,-27.827328926134108,-1.6658295179396867,-2.7608500297248364
1783170049480186600,7.5241865234375,-26.01254277243614,-1.932414754256606,-1.6206247869484125
1783170049490256600,7.534256591796875,-23.880903668951987,-2.2051506221577526,-0.831290957160294
1783170049500325600,7.54432568359375,-21.81311072243452,-2.0105175462432205,-0.9808230547189712
1783170049510395600,7.554395751953125,-19.308532624804972,-1.552754489032179,-1.079355982728675
1783170049520465700,7.564465576171875,-15.733528942942618,-1.0705611933112145,-0.904158990298584
1783170049530534700,7.57453466796875,-12.035035659533738,-0.6183676067955791,-0.6628280222255736
1783170049540604700,7.584604736328125,-9.267954626464844,-0.6660575787313282,-0.8454687547903508
1783170049550674700,7.5946748046875,-6.632224429836869,-0.6859208015866577,-1.2695967419683933
1783170049560743700,7.60474365234375,-3.826602361449599,-0.5581751500308514,-1.5902169353336095
1783170049570813700,7.614813720703125,-0.9518114797681569,-0.41690424646958707,-1.4566805715471505
1783170049580883700,7.6248837890625,1.683880138415098,-0.3058646689124405,-1.0407861597072332
1783170049590953500,7.634953369140625,4.287727004048228,0.2393406710386276,-0.952649172701314
1783170049601022700,7.645022705078125,6.667572806593776,1.0409358703762293,-0.8547370069384574
1783170049611092500,7.655092529296875,8.448069737198947,1.784870615644753,-0.6347833926107734
1783170049621162800,7.665162841796875,9.633066872507333,2.594911571766436,-0.580757276456058
1783170049631231500,7.6752314453125,10.88563064661026,2.922783343695104,-0.6078291155159473
1783170049641301500,7.685301513671875,12.433365115523337,2.9533061999917027,-0.25533377446234223
1783170049651371800,7.695371826171875,13.502085064882039,2.855863186110556,0.08417648587711155
1783170049661440500,7.7054404296875,13.935485834252834,2.5978543472200633,0.17559147164039313
1783170049671510800,7.7155107421875,13.866652536523342,2.337874792778492,0.18429872890487312
1783170049681580500,7.72558056640625,13.071235149037838,2.2396488118261098,-0.08100282427705824
1783170049691649800,7.73564990234375,11.702722105765343,2.076760096827149,-0.40845089090093967
1783170049701719600,7.745719482421875,10.57053593866825,2.0629510594442486,-0.02841470503620803
1783170049711789600,7.75578955078125,10.307845956224202,2.24509421775043,0.7658649836562573
1783170049721859600,7.765859619140625,10.680519577431678,2.256961181154847,1.739667053697258
1783170049731928600,7.775928466796875,10.935620127660036,2.3736051545903085,2.369827681878209
1783170049741998600,7.78599853515625,11.089182211387158,2.704339330212772,2.455459261934459
1783170049752068600,7.796068603515625,11.044737504982947,3.0761504893720146,2.3017983940079807
1783170049762137600,7.8061376953125,10.587311716902255,3.23992592407763,1.7947160100936888
1783170049772207600,7.81620751953125,9.860714767664671,3.100529728347063,1.2529160946719349
1783170049782277600,7.826277587890625,9.013057489854097,2.8795871760472656,1.1976027882508933
1783170049792346600,7.8363466796875,8.064930836078524,2.6509555305495858,0.9747612704619765
1783170049802416600,7.846416748046875,7.4150658288657665,2.5559096409380433,0.7874271193839609
1783170049812486700,7.856486572265625,7.29079296798706,2.566129129396379,0.9323081032011657
1783170049822555600,7.8665556640625,7.849289020535349,2.6484374102488157,1.0100168543688952
1783170049832625700,7.876625732421875,8.678069163918495,2.824902230657637,0.9055394118063151
1783170049842695700,7.88669580078125,9.129008512589335,2.97088949521631,0.6223129834204911
1783170049852765400,7.896765380859375,9.1917166054368,2.8058985472410916,0.5298607635639607
1783170049862834700,7.906834716796875,9.840185189855099,2.6706585944071413,0.5419802404247224
1783170049872904400,7.916904541015625,9.568098433512448,2.6413623572960496,0.10965122847128658
1783170049882974700,7.926974609375,9.567529693713784,2.4419781413316723,0.0454571348497644
1783170049893043500,7.93704345703125,9.283694047388433,2.5243492582872507,0.21270959801618008
1783170049903113700,7.94711376953125,9.111137340334057,2.8519363680556413,-0.09852960354145615
