time,seconds_elapsed,z,y,x
1783170042028608500,0.0726083984375,0.07618899643421173,-0.05066583305597305,0.039922069758176804
1783170042038679600,0.082679443359375,0.08246258646249771,-0.003187921829521656,0.04659339785575867
1783170042048749600,0.09274951171875,0.08486635982990265,0.054670851677656174,0.04590736702084541
1783170042058818600,0.102818603515625,0.08088057488203049,0.10201958566904068,0.05311903357505798
1783170042068888800,0.112888916015625,0.07896176725625992,0.13786306977272034,0.060412101447582245
1783170042078958800,0.122958740234375,0.0790114477276802,0.16725996136665344,0.05038881674408913
1783170042089027800,0.13302783203125,0.0800279751420021,0.18925927579402924,0.03537578135728836
1783170042099097900,0.143097900390625,0.09569127857685089,0.20808491110801697,0.03275232017040253
1783170042109167900,0.15316796875,0.10664193332195282,0.21327461302280426,0.04643803462386131
1783170042119236600,0.163236572265625,0.11530406028032303,0.20018476247787476,0.0801629051566124
1783170042129307000,0.173306884765625,0.11549793928861618,0.18682076036930084,0.09484304487705231
1783170042139377000,0.183376953125,0.1133059412240982,0.18692675232887268,0.08334074914455414
1783170042149446000,0.19344580078125,0.10797296464443207,0.21003100275993347,0.0693863183259964
1783170042159516000,0.203515869140625,0.12013757973909378,0.24538272619247437,0.047131504863500595
1783170042169585700,0.213585693359375,0.14552417397499084,0.2654755115509033,0.03162578493356705
1783170042179655700,0.22365576171875,0.1669655591249466,0.28134581446647644,0.01974470354616642
1783170042189724700,0.233724609375,0.1803511530160904,0.2767294943332672,0.010807136073708534
1783170042199794700,0.243794677734375,0.18210381269454956,0.22612781822681427,0.007895583286881447
1783170042209865000,0.253864990234375,0.17468664050102234,0.20317377150058746,0.026790179312229156
1783170042219933700,0.26393359375,0.14562766253948212,0.20404581725597382,0.027375755831599236
1783170042230003700,0.274003662109375,0.06316368281841278,0.2118062674999237,0.04215230420231819
1783170042240073700,0.28407373046875,0.0051718344911932945,0.23412995040416718,0.08378042280673981
1783170042250142700,0.294142822265625,-0.002295402344316244,0.3004375994205475,0.122209832072258
1783170042260213000,0.304212890625,-0.0068549602292478085,0.38623759150505066,0.11750348657369614
1783170042270282800,0.31428271484375,-0.03841368481516838,0.4466908276081085,0.05747450888156891
1783170042280352800,0.324352783203125,-0.09451424330472946,0.40451779961586,0.044449515640735626
1783170042290421800,0.334421875,-0.06430147588253021,0.33171817660331726,0.12358934432268143
1783170042300491800,0.34449169921875,-0.02858634665608406,0.12385377287864685,0.2188078761100769
1783170042310561800,0.354561767578125,-0.010529316030442715,-0.17272037267684937,0.17494934797286987
1783170042320630800,0.364630859375,0.021780461072921753,-0.39870142936706543,0.02652045525610447
1783170042330700800,0.37470068359375,0.0818864107131958,-0.5109456777572632,-0.1366996318101883
1783170042340770800,0.384770751953125,0.1743253767490387,-0.4984320104122162,-0.27519458532333374
1783170042350839800,0.39483984375,0.2875235378742218,-0.4556712508201599,-0.35920000076293945
1783170042360909800,0.404909912109375,0.35575205087661743,-0.4764913022518158,-0.34210923314094543
1783170042370979800,0.414979736328125,0.3745395839214325,-0.4657853841781616,-0.18777982890605927
1783170042381049900,0.4250498046875,0.37437114119529724,-0.3986416459083557,0.07552792131900787
1783170042391118800,0.435118896484375,0.3534136414527893,-0.28858011960983276,0.3357430100440979
1783170042401188900,0.44518896484375,0.3326081931591034,-0.13456618785858154,0.4890279769897461
1783170042411258600,0.455258544921875,0.29384908080101013,-0.050999656319618225,0.43409228324890137
1783170042421328000,0.465327880859375,0.2671564817428589,0.0003266455605626106,0.19269485771656036
1783170042431398000,0.47539794921875,0.23386353254318237,0.10368712246417999,-0.0919874832034111
1783170042441467600,0.485467529296875,0.14685428142547607,0.18635058403015137,-0.2851371169090271
1783170042451537000,0.495536865234375,0.06960424035787582,0.21543043851852417,-0.43908461928367615
1783170042461606700,0.505606689453125,0.04975108802318573,0.14672300219535828,-0.5184968709945679
1783170042471677000,0.515677001953125,0.11070311814546585,-0.04054887965321541,-0.4116135239601135
1783170042481745700,0.52574560546875,0.19217002391815186,-0.2639766335487366,-0.1051580011844635
1783170042491815700,0.535815673828125,0.2484186440706253,-0.44002968072891235,0.24124974012374878
1783170042501886000,0.545885986328125,0.21633809804916382,-0.4826085865497589,0.3841429352760315
1783170042511955700,0.555955810546875,0.1347082257270813,-0.3656531870365143,0.24071785807609558
1783170042522025000,0.56602490234375,0.06285964697599411,-0.18612046539783478,-0.026690520346164703
1783170042532094700,0.5760947265625,0.003911107778549194,-0.035100582987070084,-0.4090735614299774
1783170042542164700,0.586164794921875,-0.003370588179677725,0.10362879931926727,-0.9554514288902283
1783170042552233700,0.596233642578125,0.04326402768492699,0.037637267261743546,-1.3680624961853027
1783170042562303700,0.6063037109375,0.11368291825056076,-0.2860565185546875,-1.400559425354004
1783170042572373800,0.616373779296875,0.23223327100276947,-0.6659880876541138,-1.1082102060317993
1783170042582442800,0.62644287109375,0.3281112611293793,-0.9102623462677002,-0.6264902949333191
1783170042592512800,0.6365126953125,0.3452204763889313,-1.0560797452926636,0.06867222487926483
1783170042602582800,0.646582763671875,0.2917344570159912,-1.0056498050689697,0.9359919428825378
1783170042612652800,0.65665283203125,0.2130766361951828,-0.7344455122947693,1.7309191226959229
1783170042622721800,0.6667216796875,0.11622510105371475,-0.37321045994758606,2.2057957649230957
1783170042632791800,0.676791748046875,0.08630236238241196,0.05389879643917084,2.2305221557617188
1783170042642861800,0.68686181640625,0.07849244028329849,0.32263264060020447,1.7785605192184448
1783170042652930800,0.696930908203125,0.106258824467659,0.17785681784152985,1.0810939073562622
1783170042663000800,0.707000732421875,0.19116713106632233,-0.1413165032863617,0.56889808177948
1783170042673070800,0.71707080078125,0.21454541385173798,-0.09137264639139175,0.34040367603302
1783170042683139800,0.727139892578125,0.20159709453582764,0.2567552328109741,0.19909891486167908
1783170042693209900,0.7372099609375,0.21221405267715454,0.46044766902923584,0.08475928753614426
1783170042703279600,0.747279541015625,0.21641875803470612,0.3138182461261749,0.02885664813220501
1783170042713348900,0.757348876953125,0.20462681353092194,0.02551668882369995,0.026241956278681755
1783170042723418600,0.767418701171875,0.16027233004570007,-0.013984518125653267,0.15251938998699188
1783170042733489000,0.777489013671875,0.09588668495416641,0.16090233623981476,0.35740169882774353
1783170042743559000,0.787558837890625,0.06321163475513458,0.275180846452713,0.33919376134872437
1783170042753628000,0.7976279296875,0.06638079881668091,0.3422698676586151,0.18062302470207214
1783170042763698000,0.807697998046875,0.08798684924840927,0.43952038884162903,-0.030770575627684593
1783170042773767700,0.817767578125,0.07214157283306122,0.5586406588554382,-0.20110076665878296
1783170042783837000,0.8278369140625,0.006323864683508873,0.6151899099349976,-0.2679719030857086
1783170042793906700,0.83790673828125,-0.07795400172472,0.5584771037101746,-0.2209135890007019
1783170042803976700,0.847976806640625,-0.18041092157363892,0.3873775601387024,-0.11325278878211975
1783170042814046000,0.8580458984375,-0.28131115436553955,0.21342334151268005,-0.028565868735313416
1783170042824115700,0.86811572265625,-0.3269829750061035,0.03044033795595169,-0.008379854261875153
1783170042834185700,0.878185791015625,-0.3184523582458496,-0.06890382617712021,-0.03214457258582115
1783170042844255700,0.888255859375,-0.2876378297805786,-0.05023013800382614,-0.1447421759366989
1783170042854324700,0.89832470703125,-0.2277635782957077,0.035440295934677124,-0.29305946826934814
1783170042864395000,0.90839501953125,-0.17297399044036865,0.12420664727687836,-0.3909364640712738
1783170042874464800,0.91846484375,-0.14815545082092285,0.1987948715686798,-0.4005025327205658
1783170042884533800,0.92853369140625,-0.14486344158649445,0.23757687211036682,-0.3341789245605469
1783170042894603800,0.938603759765625,-0.14098002016544342,0.21304596960544586,-0.21238110959529877
1783170042904673800,0.948673828125,-0.11677946150302887,0.1083412617444992,-0.056217849254608154
1783170042914742800,0.95874267578125,-0.09378013759851456,-0.003642796538770199,0.09788037091493607
1783170042924812800,0.968812744140625,-0.08293534815311432,-0.043130550533533096,0.19936080276966095
1783170042934882800,0.9788828125,-0.07895099371671677,-0.03519592806696892,0.23691882193088531
1783170042944952800,0.988952880859375,-0.07083424925804138,-0.024068307131528854,0.2115786075592041
1783170042955021800,0.999021728515625,-0.05159131437540054,0.036342836916446686,0.1685997098684311
1783170042965091600,1.009091552734375,-0.04704950377345085,0.11430820822715759,0.13024449348449707
1783170042975161900,1.019161865234375,-0.028460107743740082,0.15684901177883148,0.10879113525152206
1783170042985230600,1.029230712890625,-0.012541156262159348,0.16135042905807495,0.1433952897787094
1783170042995300900,1.03930078125,-0.010774681344628334,0.15677671134471893,0.2183944284915924
1783170043005371000,1.049370849609375,-0.02175578661262989,0.08834638446569443,0.3202863335609436
1783170043015440000,1.05943994140625,-0.015812143683433533,-0.025074448436498642,0.37242329120635986
1783170043025510000,1.069510009765625,-0.03187445551156998,-0.10127134621143341,0.39174601435661316
1783170043035579600,1.07957958984375,-0.08246758580207825,-0.14172635972499847,0.3486432731151581
1783170043045649700,1.089649658203125,-0.14503435790538788,-0.13187959790229797,0.29746222496032715
1783170043055719000,1.099718994140625,-0.23110106587409973,-0.09606300294399261,0.28669798374176025
1783170043065789000,1.109788818359375,-0.29590219259262085,-0.08509930223226547,0.28283119201660156
1783170043075859000,1.11985888671875,-0.31310543417930603,-0.15104876458644867,0.26196053624153137
1783170043085928000,1.129927978515625,-0.278378427028656,-0.23563514649868011,0.15873786807060242
1783170043095997700,1.139997802734375,-0.2086488902568817,-0.2629450559616089,-0.07068652659654617
1783170043106068000,1.15006787109375,-0.1396840214729309,-0.18259084224700928,-0.3409323990345001
1783170043116137000,1.160136962890625,-0.05960463359951973,0.08717112988233566,-0.5507471561431885
1783170043126207000,1.17020703125,0.04064219444990158,0.471127986907959,-0.6992564797401428
1783170043136277000,1.180277099609375,0.14151155948638916,0.7473656535148621,-0.7851290702819824
1783170043146346800,1.1903466796875,0.20001372694969177,0.6548766493797302,-0.8376829624176025
1783170043156416000,1.200416015625,0.21392075717449188,0.328870564699173,-0.9768171310424805
1783170043166486000,1.210486083984375,0.2272445112466812,-0.12950856983661652,-1.2337520122528076
1783170043176555800,1.2205556640625,0.24358779191970825,-0.6358263492584229,-1.4427070617675781
1783170043186625000,1.230625,0.2407601922750473,-0.9861041903495789,-1.4985582828521729
1783170043196694800,1.24069482421875,0.2525281608104706,-1.0519039630889893,-1.3997021913528442
1783170043206765000,1.25076513671875,0.23568257689476013,-0.8387483358383179,-1.09329092502594
1783170043216833800,1.260833740234375,0.2138073742389679,-0.5013875961303711,-0.5779069662094116
1783170043226903800,1.27090380859375,0.1599312573671341,-0.19465748965740204,-0.04322154074907303
1783170043236974000,1.28097412109375,0.08310092240571976,0.10509513318538666,0.26628783345222473
1783170043247043800,1.2910439453125,0.0074353995732963085,0.34184348583221436,0.20078696310520172
1783170043257113000,1.301113037109375,-0.006186136044561863,0.5240795612335205,-0.1508677452802658
1783170043267182800,1.311182861328125,0.05623825639486313,0.5980393290519714,-0.5317327976226807
1783170043277252900,1.3212529296875,0.12231660634279251,0.490660697221756,-0.6853045225143433
1783170043287321900,1.33132177734375,0.12171238660812378,0.25285398960113525,-0.580154299736023
1783170043297391900,1.341391845703125,0.03512024134397507,-0.012199527584016323,-0.26297420263290405
1783170043307462000,1.3514619140625,-0.11881136149168015,-0.15813663601875305,0.1810300201177597
1783170043317531000,1.36153076171875,-0.2731572687625885,-0.15542340278625488,0.6556503176689148
1783170043327601000,1.371600830078125,-0.3173327147960663,-0.10757465660572052,0.987480103969574
1783170043337671000,1.3816708984375,-0.2638370096683502,-0.1230955496430397,1.0721222162246704
1783170043347740000,1.391739990234375,-0.14254580438137054,-0.2500895857810974,0.9709029197692871
1783170043357810000,1.401809814453125,-0.009700414724647999,-0.40490633249282837,0.7383676767349243
1783170043367880000,1.4118798828125,0.063489630818367,-0.4771393835544586,0.45624876022338867
1783170043377950000,1.421949951171875,0.07334864884614944,-0.42557471990585327,0.16707606613636017
1783170043388019000,1.43201904296875,0.06104443222284317,-0.3013218641281128,-0.09805311262607574
1783170043398089000,1.4420888671875,0.06265884637832642,-0.13311398029327393,-0.3095824122428894
1783170043408159000,1.452158935546875,0.04826399311423302,-0.03241411969065666,-0.35068050026893616
1783170043418228000,1.46222802734375,0.029914014041423798,-0.04377303272485733,-0.21651284396648407
1783170043428298000,1.472298095703125,0.02820366434752941,-0.10632922500371933,0.01616586744785309
1783170043438367700,1.48236767578125,0.031656187027692795,-0.16676008701324463,0.3034120202064514
1783170043448437000,1.49243701171875,0.05502116307616234,-0.19077381491661072,0.5808740258216858
1783170043458506800,1.5025068359375,0.09261886775493622,-0.172319695353508,0.773258626461029
1783170043468577000,1.512576904296875,0.09852046519517899,-0.12221444398164749,0.8522491455078125
1783170043478647000,1.52264697265625,0.05863350257277489,-0.02804534137248993,0.7900933623313904
1783170043488715800,1.5327158203125,-0.008727949112653732,0.11743715405464172,0.5323181748390198
1783170043498786000,1.5427861328125,-0.0780327171087265,0.35352903604507446,0.1506565511226654
1783170043508855800,1.552855712890625,-0.14529982209205627,0.6344030499458313,-0.2459278404712677
1783170043518925000,1.562925048828125,-0.1954391598701477,0.9021583199501038,-0.5136341452598572
1783170043528995000,1.5729951171875,-0.1995835304260254,1.0790514945983887,-0.5606226921081543
1783170043539064800,1.58306494140625,-0.16812387108802795,1.077966570854187,-0.4208908677101135
1783170043549134000,1.593134033203125,-0.11410031467676163,0.8988722562789917,-0.14922615885734558
1783170043559203800,1.603203857421875,-0.06337747722864151,0.6207205653190613,0.12413693964481354
1783170043569273900,1.61327392578125,-0.018677707761526108,0.3505532145500183,0.2681482434272766
1783170043579342800,1.6233427734375,0.027024000883102417,0.08158514648675919,0.19127345085144043
1783170043589412900,1.633412841796875,0.06376698613166809,-0.10995937883853912,-0.03689202666282654
1783170043599483100,1.643483154296875,0.08668854087591171,-0.15893518924713135,-0.2347142994403839
1783170043609553000,1.653552978515625,0.09538666158914566,-0.09710577130317688,-0.33204829692840576
1783170043619622000,1.663621826171875,0.0904020220041275,-0.011883280239999294,-0.3273662030696869
1783170043629692000,1.67369189453125,0.07796034216880798,0.026066765189170837,-0.2675042152404785
1783170043639762000,1.683761962890625,0.0671021044254303,-0.008110646158456802,-0.19021767377853394
1783170043649831000,1.693830810546875,0.0664227306842804,-0.054268285632133484,-0.07558776438236237
1783170043659901000,1.70390087890625,0.05615624412894249,-0.08427038788795471,0.10041256248950958
1783170043669971000,1.713970947265625,0.0525980070233345,-0.10154113173484802,0.2806887626647949
1783170043680040000,1.7240400390625,0.06704431772232056,-0.1270558089017868,0.41958779096603394
1783170043690110000,1.73410986328125,0.09169308841228485,-0.15360206365585327,0.4881759583950043
1783170043700179700,1.7441796875,0.12974727153778076,-0.17973938584327698,0.43904969096183777
1783170043710250000,1.75425,0.1698627471923828,-0.17924191057682037,0.3021448850631714
1783170043720319000,1.764319091796875,0.20544710755348206,-0.15677282214164734,0.16486027836799622
1783170043730389000,1.774388916015625,0.20775248110294342,-0.13278093934059143,0.1367475539445877
1783170043740459000,1.784458984375,0.16679786145687103,-0.19240884482860565,0.17482542991638184
1783170043750527700,1.79452783203125,0.09442369639873505,-0.35003775358200073,0.12100386619567871
1783170043760598000,1.804597900390625,0.029169859364628792,-0.5037232041358948,-0.05752513185143471
1783170043770668000,1.81466796875,-0.022175166755914688,-0.6171509623527527,-0.27373063564300537
1783170043780737000,1.824737060546875,-0.03667741268873215,-0.6363004446029663,-0.514790952205658
1783170043790807000,1.83480712890625,0.03783746436238289,-0.4036730229854584,-0.7056626677513123
1783170043800876800,1.844876708984375,0.1441601663827896,0.08928714692592621,-0.8047048449516296
1783170043810946800,1.85494677734375,0.16940394043922424,0.5866191983222961,-0.8514858484268188
1783170043821015800,1.865015869140625,0.15724606812000275,0.8478292226791382,-0.6778357625007629
1783170043831085800,1.8750859375,0.1603144407272339,0.7320396304130554,-0.27308666706085205
1783170043841156000,1.885156005859375,0.17945139110088348,0.22802971303462982,0.060921113938093185
1783170043851224800,1.895224853515625,0.13895907998085022,-0.5026852488517761,0.15407291054725647
1783170043861295000,1.905295166015625,0.07350470870733261,-1.0478699207305908,0.012197272852063179
1783170043871364900,1.91536474609375,0.033124495297670364,-1.1369808912277222,-0.2928787171840668
1783170043881433900,1.925433837890625,0.008664690889418125,-0.8558788299560547,-0.4319937527179718
1783170043891503900,1.93550390625,-0.015142252668738365,-0.4406263828277588,-0.3235733211040497
1783170043901574000,1.945573974609375,-0.010346964001655579,-0.1065962091088295,-0.04621893912553787
1783170043911643100,1.95564306640625,-0.009578349068760872,0.15878938138484955,0.3301531970500946
1783170043921713000,1.965712890625,-0.0372278206050396,0.39501577615737915,0.6786690354347229
1783170043931783000,1.975782958984375,-0.11422476172447205,0.6010605692863464,0.8863286375999451
1783170043941853000,1.98585302734375,-0.18000537157058716,0.5188916921615601,0.9855872988700867
1783170043951922000,1.995921875,-0.13476932048797607,0.1846379041671753,0.9669299125671387
1783170043961992000,2.005991943359375,-0.023534152656793594,-0.185993954539299,0.7115705609321594
1783170043972062000,2.01606201171875,0.11856495589017868,-0.4383079707622528,0.22654831409454346
1783170043982131000,2.026130859375,0.14054907858371735,-0.6045598387718201,-0.27190834283828735
1783170043992201000,2.036200927734375,0.020815709605813026,-0.6454001665115356,-0.49899786710739136
1783170044002271000,2.04627099609375,-0.08668384701013565,-0.4088613986968994,-0.5641387701034546
1783170044012339700,2.056339599609375,-0.09934230893850327,0.07385679334402084,-0.46037402749061584
1783170044022410000,2.066409912109375,-0.15404389798641205,0.4627630114555359,-0.2257237285375595
1783170044032480000,2.07647998046875,-0.2645871043205261,0.63214510679245,-0.05433575436472893
1783170044042549800,2.0865498046875,-0.369981974363327,0.6188532710075378,0.19481788575649261
1783170044052619000,2.096618896484375,-0.3463038206100464,0.283323734998703,0.552112877368927
1783170044062689000,2.10668896484375,-0.205026313662529,-0.2479287087917328,0.7803550958633423
1783170044072759000,2.116759033203125,-0.013415111228823662,-0.6780077219009399,0.8175908923149109
1783170044082828300,2.126828369140625,0.13680528104305267,-0.7485482096672058,0.7089952230453491
1783170044092898000,2.13689794921875,0.09878905862569809,-0.6060273051261902,0.5573949217796326
1783170044102968300,2.14696826171875,-0.05038098618388176,-0.36109426617622375,0.3545736074447632
1783170044113037000,2.157037109375,-0.15304189920425415,-0.11715151369571686,0.012866084463894367
1783170044123107000,2.167107177734375,-0.14714325964450836,0.0017362609505653381,-0.39614248275756836
1783170044133177300,2.17717724609375,-0.0735999047756195,0.10823846608400345,-0.6231055855751038
1783170044143246000,2.18724609375,-0.010770073160529137,0.27365192770957947,-0.5840785503387451
1783170044153316400,2.19731640625,0.09538134187459946,0.4299381971359253,-0.38696250319480896
1783170044163386000,2.20738623046875,0.20056208968162537,0.61935955286026,-0.17265471816062927
1783170044173456100,2.2174560546875,0.2843475639820099,0.7936872243881226,-0.022842343896627426
1783170044183525000,2.227525146484375,0.3632296025753021,0.8706454038619995,-0.01762600988149643
1783170044193595100,2.23759521484375,0.4023679196834564,0.8732393383979797,-0.09752367436885834
1783170044203665200,2.2476650390625,0.39697182178497314,0.7918336987495422,-0.1971874088048935
1783170044213734100,2.257734130859375,0.32777854800224304,0.6677979826927185,-0.27511706948280334
1783170044223804200,2.26780419921875,0.1707814633846283,0.48373207449913025,-0.29833051562309265
1783170044233874200,2.277874267578125,-0.035093843936920166,0.26523926854133606,-0.2733216881752014
1783170044243943200,2.287943115234375,-0.21476134657859802,0.06847560405731201,-0.21726854145526886
1783170044254013200,2.29801318359375,-0.33342117071151733,-0.04326663911342621,-0.1863032430410385
1783170044264083200,2.308083251953125,-0.3784504532814026,-0.17209865152835846,-0.23378688097000122
1783170044274153200,2.3181533203125,-0.3506207764148712,-0.20642520487308502,-0.2602379620075226
1783170044284222200,2.32822216796875,-0.3321909010410309,-0.16442342102527618,-0.1762826144695282
1783170044294292200,2.338292236328125,-0.32132577896118164,-0.1494404822587967,-0.05774364247918129
1783170044304362000,2.348362060546875,-0.2858586013317108,-0.20645476877689362,0.10941872000694275
1783170044314431200,2.35843115234375,-0.26528576016426086,-0.18815872073173523,0.2797315716743469
1783170044324501200,2.368501220703125,-0.27785056829452515,-0.06548179686069489,0.3909217417240143
1783170044334571000,2.378571044921875,-0.3227480947971344,-0.013647361658513546,0.4293572008609772
1783170044344640300,2.38864013671875,-0.35834285616874695,-0.08640172332525253,0.41045090556144714
1783170044354710000,2.3987099609375,-0.3355852961540222,-0.12089870870113373,0.30613014101982117
1783170044364780300,2.4087802734375,-0.27899712324142456,-0.0633467435836792,0.12093659490346909
1783170044374850300,2.418850341796875,-0.24696366488933563,0.060825545340776443,-0.11639290302991867
1783170044384919000,2.4289189453125,-0.1871943473815918,0.12354325503110886,-0.3290218114852905
1783170044394989300,2.4389892578125,-0.03640715777873993,0.06330747157335281,-0.4229831397533417
1783170044405059000,2.44905908203125,0.15158112347126007,-0.019077681005001068,-0.30295100808143616
1783170044415128300,2.45912841796875,0.2898322343826294,0.008886710740625858,-0.06686446070671082
1783170044425198000,2.469197998046875,0.2962283492088318,0.12646792829036713,0.19095616042613983
1783170044435268000,2.47926806640625,0.2147502899169922,0.2271592617034912,0.3671758472919464
1783170044445337000,2.489337158203125,0.11101670563220978,0.2303507924079895,0.4127132296562195
1783170044455407000,2.499406982421875,0.04036565124988556,0.12859992682933807,0.24439355731010437
1783170044465477000,2.50947705078125,0.011414960958063602,-0.10345141589641571,-0.015131482854485512
1783170044475547100,2.519547119140625,-0.00610743835568428,-0.3417800962924957,-0.31351375579833984
1783170044485616000,2.5296162109375,0.021362535655498505,-0.5213572978973389,-0.703533947467804
1783170044495686100,2.53968603515625,0.02495936118066311,-0.5148287415504456,-0.9157583117485046
1783170044505756200,2.549756103515625,-0.03075077384710312,-0.1845352053642273,-0.8502094149589539
1783170044515825200,2.5598251953125,-0.13223020732402802,0.3130519390106201,-0.6030485033988953
1783170044525895200,2.569895263671875,-0.2108619064092636,0.6700665354728699,-0.3977392613887787
1783170044535965200,2.579965087890625,-0.232242152094841,0.7246802449226379,-0.27742522954940796
1783170044546034200,2.5900341796875,-0.24870635569095612,0.5150386095046997,-0.15266093611717224
1783170044556104200,2.600104248046875,-0.26462408900260925,0.16837650537490845,-0.04220686852931976
1783170044566174200,2.61017431640625,-0.25569236278533936,-0.21336713433265686,-0.012209820561110973
1783170044576243200,2.6202431640625,-0.1905028373003006,-0.5635714530944824,-0.05594277381896973
1783170044586313200,2.630313232421875,-0.08267410099506378,-0.8172727227210999,-0.12653490900993347
1783170044596383000,2.640383056640625,0.06415121257305145,-0.7721438407897949,-0.17060010135173798
1783170044606453200,2.650453369140625,0.14950419962406158,-0.3957827389240265,-0.229457288980484
1783170044616522000,2.66052197265625,0.17588616907596588,-0.05700055509805679,-0.4157295525074005
1783170044626592300,2.67059228515625,0.16453498601913452,-0.011199777014553547,-0.5556003451347351
1783170044636662300,2.680662353515625,0.12253428250551224,-0.09934122115373611,-0.39470425248146057
1783170044646731300,2.690731201171875,0.1345512717962265,-0.20359519124031067,0.0073526352643966675
1783170044656801300,2.70080126953125,0.161566361784935,-0.34514471888542175,0.44208502769470215
1783170044666871000,2.71087109375,0.15429966151714325,-0.5048409104347229,0.8240121603012085
1783170044676940300,2.720940185546875,0.11160658299922943,-0.473261296749115,1.013519048690796
1783170044687010300,2.73101025390625,0.08735184371471405,-0.1859794408082962,0.872233510017395
1783170044697080000,2.741080078125,0.08896798640489578,0.1267598271369934,0.4760628938674927
1783170044707150300,2.751150390625,0.09561656415462494,0.3656030297279358,-0.008594085462391376
1783170044717219000,2.761218994140625,0.09511402994394302,0.5058991312980652,-0.39285388588905334
1783170044727289000,2.7712890625,0.07353656738996506,0.6135236620903015,-0.5787718296051025
1783170044737359400,2.781359375,0.015976598486304283,0.7763833999633789,-0.61176997423172
1783170044747428000,2.791427978515625,-0.037565186619758606,0.8908711075782776,-0.5309142470359802
1783170044757498400,2.801498291015625,-0.040184274315834045,0.8444199562072754,-0.4120767116546631
1783170044767568100,2.811568115234375,0.05256377160549164,0.6663923859596252,-0.3136311173439026
1783170044777637000,2.82163720703125,0.1947496086359024,0.4526515007019043,-0.2510532736778259
1783170044787707100,2.83170703125,0.3253800570964813,0.3148592710494995,-0.20836760103702545
1783170044797777200,2.841777099609375,0.403726190328598,0.22360193729400635,-0.24618613719940186
1783170044807847200,2.85184716796875,0.44227224588394165,0.17533135414123535,-0.33875441551208496
1783170044817916200,2.861916259765625,0.4285122752189636,0.16101646423339844,-0.417980819940567
1783170044827986200,2.871986083984375,0.37586769461631775,0.1556994616985321,-0.43866613507270813
1783170044838056200,2.88205615234375,0.2957765460014343,0.15521183609962463,-0.35465091466903687
1783170044848125200,2.892125244140625,0.1939426213502884,0.12226267158985138,-0.2419949471950531
1783170044858195000,2.90219482421875,0.1298511028289795,0.005542580038309097,-0.1640559881925583
1783170044868265200,2.91226513671875,0.11935371905565262,-0.12956543266773224,-0.10279423743486404
1783170044878334200,2.922334228515625,0.1273082196712494,-0.23496364057064056,-0.029577938839793205
1783170044888404200,2.932404296875,0.17743396759033203,-0.29609915614128113,0.06737390160560608
1783170044898474200,2.94247412109375,0.2623578906059265,-0.28651681542396545,0.15205249190330505
1783170044908543200,2.952543212890625,0.3161065876483917,-0.2004149854183197,0.20075371861457825
1783170044918613200,2.96261328125,0.34031182527542114,-0.09362474828958511,0.26604315638542175
1783170044928683300,2.972683349609375,0.3395560383796692,0.04245133325457573,0.39631274342536926
1783170044938753000,2.9827529296875,0.29209625720977783,0.13579246401786804,0.5571457743644714
1783170044948822300,2.992822265625,0.19423626363277435,0.1126389354467392,0.6533636450767517
1783170044958892000,3.00289208984375,0.0789644867181778,-0.19461846351623535,0.5331465601921082
1783170044968962300,3.01296240234375,0.007562207989394665,-0.5485988855361938,0.18130967020988464
1783170044979031000,3.023031005859375,-0.03740641474723816,-0.6096513271331787,-0.1846240907907486
1783170044989101000,3.03310107421875,-0.03787459805607796,-0.3518379330635071,-0.48100385069847107
1783170044999171300,3.04317138671875,0.058835990726947784,0.02293887734413147,-0.6415718793869019
1783170045009241000,3.053240966796875,0.12983693182468414,0.36737027764320374,-0.6114294528961182
1783170045019310300,3.063310302734375,0.07200680673122406,0.4321347773075104,-0.34467700123786926
1783170045029380000,3.073380126953125,-0.03275582939386368,0.24584585428237915,0.015284094028174877
1783170045039450000,3.0834501953125,-0.07909096032381058,0.012179974466562271,0.2691238522529602
1783170045049519000,3.09351904296875,-0.044946834444999695,-0.24588964879512787,0.26419222354888916
1783170045059589000,3.103589111328125,0.0048497505486011505,-0.5654399394989014,0.06480826437473297
1783170045069658600,3.11365869140625,0.040195755660533905,-0.8218288421630859,0.016452450305223465
1783170045079727600,3.1237275390625,0.06985913217067719,-0.7585633397102356,0.09969921410083771
1783170045089797600,3.133797607421875,0.13435690104961395,-0.4587201774120331,0.0719996765255928
1783170045099867600,3.14386767578125,0.14531704783439636,-0.06550456583499908,0.02389274165034294
1783170045109936600,3.1539365234375,0.14204588532447815,0.3925112187862396,0.037552360445261
1783170045120006700,3.164006591796875,0.12059551477432251,0.7662091255187988,0.10695341229438782
1783170045130076700,3.17407666015625,0.015554845333099365,0.8777199387550354,0.144246444106102
1783170045140146700,3.184146728515625,-0.1049104779958725,0.5875325798988342,0.08701545745134354
1783170045150215700,3.194215576171875,-0.17266209423542023,-0.027942273765802383,-0.020292092114686966
1783170045160285700,3.20428564453125,-0.1794660985469818,-0.6166686415672302,-0.12161066383123398
1783170045170355500,3.21435546875,-0.14131711423397064,-1.014180302619934,-0.18773987889289856
1783170045180424700,3.2244248046875,-0.07691004127264023,-1.2362664937973022,-0.23053507506847382
1783170045190494500,3.234494384765625,0.04103177785873413,-1.0637866258621216,-0.20473836362361908
1783170045200564700,3.244564697265625,0.10935256630182266,-0.5578890442848206,-0.13950085639953613
1783170045210633500,3.254633544921875,0.03965204581618309,0.101443812251091,-0.12685483694076538
1783170045220703500,3.264703369140625,-0.09296176582574844,0.7596883177757263,-0.10929536074399948
1783170045230773800,3.274773681640625,-0.2644890546798706,1.1195284128189087,0.004619226790964603
1783170045240843500,3.284843505859375,-0.33509567379951477,1.1992135047912598,0.16922704875469208
1783170045250912800,3.294912841796875,-0.3729405105113983,1.0669326782226562,0.36098742485046387
1783170045260982500,3.304982421875,-0.34706318378448486,0.6474465131759644,0.4745442569255829
1783170045271052500,3.315052490234375,-0.21741650998592377,0.1369878351688385,0.4442305862903595
1783170045281121800,3.325121826171875,-0.02511007711291313,-0.25916534662246704,0.2927207350730896
1783170045291191600,3.335191650390625,0.15077359974384308,-0.34121841192245483,0.12181184440851212
1783170045301261600,3.345261474609375,0.28118377923965454,-0.13729646801948547,-0.06284889578819275
1783170045311330600,3.35533056640625,0.39154037833213806,0.15164746344089508,-0.23580336570739746
1783170045321400600,3.365400634765625,0.438738077878952,0.3348940908908844,-0.3671988844871521
1783170045331470800,3.375470947265625,0.41869404911994934,0.43808600306510925,-0.4370131194591522
1783170045341540600,3.38554052734375,0.33291926980018616,0.5331348776817322,-0.4212094247341156
1783170045351609600,3.395609619140625,0.2329028993844986,0.6247071623802185,-0.2821018695831299
1783170045361679600,3.4056796875,0.1685093194246292,0.6383455991744995,-0.10854710638523102
1783170045371749600,3.41574951171875,0.14166811108589172,0.5453882813453674,-0.0067086294293403625
1783170045381818600,3.425818603515625,0.16231101751327515,0.3845524787902832,0.002519079018384218
1783170045391888600,3.435888671875,0.20802044868469238,0.2346561998128891,-0.0722007006406784
1783170045401958700,3.445958740234375,0.2758941948413849,0.16232606768608093,-0.17015580832958221
1783170045412027600,3.456027587890625,0.32537999749183655,0.11686937510967255,-0.22455140948295593
1783170045422097700,3.46609765625,0.3435014486312866,0.06002473086118698,-0.26385498046875
1783170045432167400,3.47616748046875,0.309705913066864,0.006720498204231262,-0.3103921115398407
1783170045442237700,3.48623779296875,0.2499375343322754,-0.07594987750053406,-0.35129067301750183
1783170045452306700,3.496306640625,0.19692279398441315,-0.19706538319587708,-0.3495228588581085
1783170045462376700,3.506376708984375,0.18525579571723938,-0.2851872742176056,-0.32284820079803467
1783170045472446700,3.51644677734375,0.20825299620628357,-0.3208097219467163,-0.27066701650619507
1783170045482515500,3.526515380859375,0.23391519486904144,-0.3356825113296509,-0.24397940933704376
1783170045492585700,3.536585693359375,0.23469550907611847,-0.2941497266292572,-0.23088331520557404
1783170045502655700,3.54665576171875,0.2274497002363205,-0.2542208135128021,-0.16877789795398712
1783170045512724700,3.556724853515625,0.19070713222026825,-0.2641642689704895,-0.09697454422712326
1783170045522794800,3.566794677734375,0.12348835915327072,-0.32002726197242737,-0.057884298264980316
1783170045532864500,3.576864501953125,0.04380577802658081,-0.3647729158401489,-0.020144643262028694
1783170045542933800,3.586933837890625,-0.01730276644229889,-0.3551546335220337,0.007616924587637186
1783170045553003500,3.59700341796875,-0.015851877629756927,-0.31018316745758057,-0.0452691949903965
1783170045563073500,3.607073486328125,0.018958471715450287,-0.13995510339736938,-0.12388212978839874
1783170045573143800,3.617143798828125,0.0037819172721356153,0.11284919828176498,-0.2642142176628113
1783170045583212500,3.627212646484375,-0.012828683480620384,0.31242021918296814,-0.45117443799972534
1783170045593282800,3.63728271484375,-0.04163343086838722,0.25829175114631653,-0.5312791466712952
1783170045603352600,3.6473525390625,-0.07149530202150345,0.015395215712487698,-0.43007877469062805
1783170045613421600,3.657421630859375,-0.08375409990549088,-0.15228459239006042,-0.1424797624349594
1783170045623491600,3.66749169921875,-0.05411693826317787,-0.10374010354280472,0.05894532427191734
1783170045633561600,3.6775615234375,-0.03754967823624611,0.006100110709667206,0.11341176182031631
1783170045643631600,3.687631591796875,-0.12702777981758118,0.1317957192659378,0.20832262933254242
1783170045653700600,3.69770068359375,-0.32344791293144226,0.14399433135986328,0.37651991844177246
1783170045663770600,3.7077705078125,-0.45352429151535034,0.036618079990148544,0.4323417544364929
1783170045673840600,3.717840576171875,-0.4515628516674042,-0.27027392387390137,0.3244480490684509
1783170045683909600,3.72790966796875,-0.3522825837135315,-0.569612443447113,-0.028883574530482292
1783170045693979600,3.737979736328125,-0.10755325853824615,-0.5774293541908264,-0.6279659271240234
1783170045704049700,3.748049560546875,0.17144140601158142,-0.4304303228855133,-1.0577729940414429
1783170045714118700,3.75811865234375,0.300767183303833,-0.010620279237627983,-1.1570104360580444
1783170045724188700,3.768188720703125,0.1967380940914154,0.33918699622154236,-0.8309518098831177
1783170045734258700,3.7782587890625,-0.07765406370162964,0.44284096360206604,-0.19138146936893463
1783170045744328700,3.78832861328125,-0.2856009304523468,0.33628761768341064,0.5294894576072693
1783170045754397700,3.798397705078125,-0.41596531867980957,0.2608051002025604,1.14584219455719
1783170045764467700,3.8084677734375,-0.45461317896842957,0.21730130910873413,1.5152883529663086
1783170045774537500,3.818537353515625,-0.40334758162498474,0.11402125656604767,1.604467511177063
1783170045784606700,3.828606689453125,-0.2569219768047333,-0.005876258946955204,1.480364441871643
1783170045794676500,3.838676513671875,-0.05562563240528107,0.018143590539693832,1.1326507329940796
1783170045804746800,3.848746826171875,0.0980868935585022,0.19295108318328857,0.637457549571991
1783170045814815500,3.8588154296875,0.21834298968315125,0.3172578513622284,0.14219029247760773
1783170045824885500,3.868885498046875,0.27560684084892273,0.2895456850528717,-0.17613959312438965
1783170045834955800,3.878955810546875,0.2707742750644684,0.1483062505722046,-0.2109130173921585
1783170045845024500,3.8890244140625,0.19782839715480804,-0.036097802221775055,-0.1299898326396942
1783170045855094800,3.8990947265625,0.16916079819202423,-0.17659473419189453,-0.026095928624272346
1783170045865164500,3.90916455078125,0.14498478174209595,-0.29154741764068604,-0.14741496741771698
1783170045875234600,3.919234619140625,0.05179331824183464,-0.41766223311424255,-0.4475516080856323
1783170045885303800,3.9293037109375,-0.050524238497018814,-0.4513714611530304,-0.7269256711006165
1783170045895373600,3.93937353515625,-0.1584578901529312,-0.42411214113235474,-0.8174960017204285
1783170045905443600,3.949443603515625,-0.27064937353134155,-0.393722265958786,-0.7383922934532166
1783170045915512600,3.9595126953125,-0.367223858833313,-0.26998329162597656,-0.5402179956436157
1783170045925582600,3.96958251953125,-0.4714145362377167,-0.011126413941383362,-0.3325114846229553
1783170045935652600,3.979652587890625,-0.5763002038002014,0.2806500196456909,-0.1680823266506195
1783170045945721600,3.9897216796875,-0.5967715978622437,0.42281490564346313,-0.05092277750372887
1783170045955791600,3.99979150390625,-0.5333662629127502,0.4634416997432709,-0.002060430822893977
1783170045965861600,4.009861572265625,-0.40765151381492615,0.458833783864975,-0.06614869087934494
1783170045975931600,4.019931640625,-0.274515300989151,0.4015960395336151,-0.16262036561965942
1783170045986000600,4.030000732421875,-0.17307834327220917,0.27247267961502075,-0.24044309556484222
1783170045996070700,4.040070556640625,-0.09395848959684372,0.14851611852645874,-0.2926250696182251
1783170046006140700,4.050140625,-0.05594562366604805,0.021197838708758354,-0.3407713770866394
1783170046016209700,4.060209716796875,-0.046175550669431686,-0.12423019856214523,-0.43915465474128723
1783170046026279700,4.07027978515625,-0.048419289290905,-0.2316911369562149,-0.5785710215568542
1783170046036349400,4.080349365234375,-0.03267441317439079,-0.2555306851863861,-0.6944400668144226
1783170046046418700,4.090418701171875,-0.00007451244164258242,-0.23531503975391388,-0.7331996560096741
1783170046056488400,4.100488525390625,0.013107867911458015,-0.18283319473266602,-0.674852192401886
1783170046066558700,4.110558837890625,0.010182143189013004,-0.0746297538280487,-0.5188899636268616
1783170046076628700,4.120628662109375,0.0005156674887984991,-0.0489606112241745,-0.3061361610889435
1783170046086697700,4.13069775390625,-0.02391158789396286,-0.0954761728644371,-0.11793676018714905
1783170046096767700,4.140767822265625,-0.0313711017370224,-0.20578616857528687,-0.04032931849360466
1783170046106837800,4.150837646484375,-0.03478631377220154,-0.32768145203590393,-0.05219044163823128
1783170046116906800,4.16090673828125,-0.041015978902578354,-0.35320228338241577,-0.1377412974834442
1783170046126976800,4.170976806640625,-0.03173637017607689,-0.24442799389362335,-0.2665920555591583
1783170046137046800,4.181046875,-0.03227725997567177,-0.11366862803697586,-0.2904411852359772
1783170046147115800,4.19111572265625,-0.05988391861319542,-0.03274727985262871,-0.19555097818374634
1783170046157185800,4.201185791015625,-0.060448773205280304,0.00930190272629261,0.012343108654022217
1783170046167255600,4.211255615234375,-0.0710286870598793,0.03824513405561447,0.30130866169929504
1783170046177324800,4.22132470703125,-0.12280426174402237,0.030427690595388412,0.6069820523262024
1783170046187394800,4.231394775390625,-0.2057202309370041,0.00820294488221407,0.7295129895210266
1783170046197464800,4.24146484375,-0.29265913367271423,0.009130257181823254,0.6900191307067871
1783170046207534800,4.251534912109375,-0.3488655388355255,0.09972274303436279,0.500126302242279
1783170046217603600,4.261603515625,-0.2895950376987457,0.3432701528072357,0.19174663722515106
1783170046227673900,4.271673828125,-0.1641232818365097,0.5833287239074707,0.028666507452726364
1783170046237743900,4.281743896484375,-0.06928173452615738,0.7235108613967896,0.14042632281780243
1783170046247812900,4.291812744140625,-0.04870804399251938,0.7040023803710938,0.3872261643409729
1783170046257883000,4.3018828125,-0.09786626696586609,0.29436689615249634,0.49901556968688965
1783170046267952600,4.31195263671875,-0.1958709955215454,-0.36239176988601685,0.44329679012298584
1783170046278022000,4.32202197265625,-0.3635002076625824,-0.9325183033943176,0.22387468814849854
1783170046288091600,4.332091552734375,-0.5098919868469238,-1.2806153297424316,-0.04180876165628433
1783170046298161700,4.34216162109375,-0.5153434872627258,-1.3057520389556885,-0.23051582276821136
1783170046308232000,4.35223193359375,-0.44360634684562683,-0.9621214270591736,-0.2704492509365082
1783170046318300700,4.36230078125,-0.5414469242095947,-0.6273924112319946,-0.20899203419685364
1783170046328370700,4.37237060546875,-0.7491068243980408,-0.4758027493953705,-0.028215069323778152
1783170046338440700,4.382440673828125,-0.8904902935028076,-0.5195196270942688,0.13837896287441254
1783170046348509700,4.392509765625,-0.941604733467102,-0.5250263214111328,0.1665065884590149
1783170046358580000,4.402580078125,-0.9413397312164307,-0.2992717921733856,0.07804569602012634
1783170046368649700,4.412649658203125,-0.9027733206748962,0.08520731329917908,-0.004871397279202938
1783170046378719000,4.422718994140625,-0.8127190470695496,0.4670550525188446,-0.05710397660732269
1783170046388788700,4.432788818359375,-0.6347338557243347,0.6647066473960876,-0.13428381085395813
1783170046398858800,4.442858642578125,-0.40075117349624634,0.5656799077987671,-0.22064213454723358
1783170046408928800,4.4529287109375,-0.1887015402317047,0.2962457835674286,-0.2564745247364044
1783170046418997800,4.462997802734375,-0.052513618022203445,-0.018462087959051132,-0.2104806751012802
1783170046429067800,4.47306787109375,-0.01710434816777706,-0.13423888385295868,-0.109000064432621
1783170046439137800,4.4831376953125,-0.1017444059252739,0.028834722936153412,-0.010511837899684906
1783170046449206800,4.493206787109375,-0.20740118622779846,0.21577519178390503,0.1059626042842865
1783170046459276800,4.50327685546875,-0.2860429883003235,0.18333947658538818,0.20908208191394806
1783170046469346800,4.513346923828125,-0.43148812651634216,0.1053428053855896,0.3216836452484131
1783170046479415600,4.52341552734375,-0.5889887809753418,0.059589434415102005,0.45666754245758057
1783170046489485800,4.53348583984375,-0.7095170021057129,-0.1144365519285202,0.58188396692276
1783170046499555800,4.543555908203125,-0.7466837763786316,-0.4539903700351715,0.5655215382575989
1783170046509625600,4.55362548828125,-0.6970715522766113,-0.7206194400787354,0.45286595821380615
1783170046519694800,4.56369482421875,-0.5851585865020752,-0.7883065938949585,0.3441653251647949
1783170046529764600,4.5737646484375,-0.45958319306373596,-0.6755675077438354,0.29598280787467957
1783170046539834600,4.583834716796875,-0.3794984817504883,-0.42010754346847534,0.2976885735988617
1783170046549904000,4.59390380859375,-0.36857491731643677,-0.09998677670955658,0.2941010296344757
1783170046559973600,4.6039736328125,-0.40905097126960754,0.1919769048690796,0.24918332695960999
1783170046570044000,4.6140439453125,-0.496978759765625,0.34212392568588257,0.1926611214876175
1783170046580112600,4.624112548828125,-0.6059771776199341,0.3021030128002167,0.1236564964056015
1783170046590182700,4.6341826171875,-0.6607785224914551,0.10232850909233093,-0.01399378851056099
1783170046600253000,4.6442529296875,-0.5896785259246826,-0.08316625654697418,-0.21304909884929657
1783170046610322700,4.65432275390625,-0.462963342666626,-0.18956592679023743,-0.38681942224502563
1783170046620392000,4.664391845703125,-0.35995733737945557,-0.1432674080133438,-0.48740488290786743
1783170046630461700,4.674461669921875,-0.2695545554161072,-0.07506398111581802,-0.5004025101661682
1783170046640531700,4.68453173828125,-0.1992737352848053,-0.08043264597654343,-0.38735052943229675
1783170046650600700,4.6946005859375,-0.16797634959220886,-0.15002784132957458,-0.19737382233142853
1783170046660670700,4.704670654296875,-0.16906903684139252,-0.21459244191646576,0.033605869859457016
1783170046670740700,4.71474072265625,-0.20119991898536682,-0.27599775791168213,0.16714417934417725
1783170046680809700,4.724809814453125,-0.233966663479805,-0.33853915333747864,0.16386450827121735
1783170046690879700,4.734879638671875,-0.2539481520652771,-0.3523528277873993,0.0714426189661026
1783170046700949800,4.74494970703125,-0.24988976120948792,-0.2844371795654297,-0.03468461334705353
1783170046711018800,4.755018798828125,-0.2333294153213501,-0.1412651091814041,-0.07173951715230942
1783170046721088800,4.7650888671875,-0.22864890098571777,-0.014528738334774971,0.026692243292927742
1783170046731158800,4.77515869140625,-0.21865884959697723,0.07198112457990646,0.22770899534225464
1783170046741228800,4.785228759765625,-0.23822829127311707,0.11177727580070496,0.4740618169307709
1783170046751297800,4.7952978515625,-0.26828235387802124,0.10986819118261337,0.6434703469276428
1783170046761367800,4.805367919921875,-0.2880832254886627,-0.042779143899679184,0.6381019353866577
1783170046771437600,4.8154375,-0.29729127883911133,-0.24979332089424133,0.5076480507850647
1783170046781506800,4.8255068359375,-0.2591300308704376,-0.3606865406036377,0.27052420377731323
1783170046791576800,4.835576904296875,-0.24870936572551727,-0.2875444293022156,0.03938443958759308
1783170046801646600,4.845646484375,-0.3068344295024872,0.019483432173728943,-0.009698948822915554
1783170046811715800,4.8557158203125,-0.3697999119758606,0.4135388433933258,-0.00592469610273838
1783170046821785600,4.86578564453125,-0.3857589066028595,0.6688180565834045,0.05425582081079483
1783170046831855900,4.87585595703125,-0.3490190804004669,0.6470617055892944,0.14360401034355164
1783170046841926000,4.88592578125,-0.2971625328063965,0.4299145042896271,0.2575462758541107
1783170046851995000,4.895994873046875,-0.2793065011501312,0.05041603744029999,0.312613844871521
1783170046862065000,4.90606494140625,-0.3334120810031891,-0.3517068922519684,0.4220050573348999
1783170046872134700,4.916134765625,-0.4415140748023987,-0.6813939809799194,0.46303310990333557
1783170046882204000,4.926203857421875,-0.551239550113678,-0.8995063304901123,0.20942562818527222
1783170046892273700,4.936273681640625,-0.5287774801254272,-0.7145114541053772,-0.42589426040649414
1783170046902343700,4.94634375,-0.3439897894859314,-0.2778462767601013,-1.099719524383545
1783170046912412700,4.95641259765625,-0.12138240039348602,0.043854814022779465,-1.3835023641586304
1783170046922482700,4.966482666015625,0.028235847130417824,0.08857274800539017,-1.2936502695083618
1783170046932552700,4.976552734375,0.09229367971420288,-0.10926150530576706,-0.9139388203620911
1783170046942622700,4.986622802734375,0.08803129196166992,-0.40285688638687134,-0.3900279104709625
1783170046952691700,4.996691650390625,0.06621802598237991,-0.36921119689941406,0.08730380982160568
1783170046962761700,5.00676171875,0.0058380356058478355,0.10277871787548065,0.4331965148448944
1783170046972831700,5.016831787109375,-0.060420893132686615,0.7073672413825989,0.6875207424163818
1783170046982900700,5.026900634765625,-0.011146820150315762,1.0108983516693115,0.8458051681518555
1783170046992970800,5.036970703125,0.18959063291549683,0.9927933216094971,0.8643734455108643
1783170047003040800,5.047040771484375,0.45079612731933594,0.801230251789093,0.7502902746200562
1783170047013109800,5.05710986328125,0.6867889165878296,0.6192620396614075,0.5559497475624084
1783170047023179800,5.0671796875,0.8518998622894287,0.5092183351516724,0.26811397075653076
1783170047033249800,5.077249755859375,0.945775032043457,0.3591974675655365,-0.05821816623210907
1783170047043319800,5.08731982421875,0.9335295557975769,0.23585182428359985,-0.35934633016586304
1783170047053388800,5.097388916015625,0.8044111728668213,0.1155356615781784,-0.5000710487365723
1783170047063458600,5.10745849609375,0.6126337647438049,-0.03714656084775925,-0.4157465398311615
1783170047073529000,5.117529052734375,0.4322875440120697,-0.2039688378572464,-0.21413014829158783
1783170047083597800,5.127597900390625,0.27065765857696533,-0.4114261269569397,0.04096579924225807
1783170047093668000,5.137668212890625,0.07910777628421783,-0.5943588614463806,0.3223598897457123
1783170047103737900,5.14773779296875,-0.1035323441028595,-0.6380160450935364,0.5828598737716675
1783170047113806800,5.157806884765625,-0.20022541284561157,-0.6452696919441223,0.6441355347633362
1783170047123876900,5.167876953125,-0.20039665699005127,-0.6807475090026855,0.4346449077129364
1783170047133947000,5.17794677734375,-0.16885724663734436,-0.5991935133934021,0.03825901821255684
1783170047144017000,5.188016845703125,-0.16827428340911865,-0.2848643362522125,-0.36221328377723694
1783170047154086000,5.1980859375,-0.19617116451263428,0.17134366929531097,-0.6090124249458313
1783170047164156000,5.208156005859375,-0.24032798409461975,0.6030434370040894,-0.6655492186546326
1783170047174226000,5.218225830078125,-0.2703517973423004,0.830145001411438,-0.5851506590843201
1783170047184295000,5.228294921875,-0.2598584294319153,0.7355396747589111,-0.4169520437717438
1783170047194365000,5.238364990234375,-0.19973339140415192,0.40231192111968994,-0.2881416380405426
1783170047204435000,5.24843505859375,-0.11005757004022598,0.07479555159807205,-0.23095399141311646
1783170047214504000,5.25850390625,-0.04890337213873863,-0.15027165412902832,-0.26685675978660583
1783170047224574000,5.268573974609375,0.03256458789110184,-0.27514326572418213,-0.29927703738212585
1783170047234644000,5.27864404296875,0.11872982978820801,-0.25480765104293823,-0.30205392837524414
1783170047244712700,5.288712646484375,0.1991003006696701,-0.12590160965919495,-0.25782787799835205
1783170047254783000,5.298782958984375,0.2439100295305252,-0.018284456804394722,-0.2109723687171936
1783170047264853000,5.30885302734375,0.23779433965682983,0.04874784126877785,-0.14536327123641968
1783170047274922800,5.3189228515625,0.20157639682292938,0.08780349791049957,-0.11852170526981354
1783170047284992000,5.328991943359375,0.15846967697143555,0.06255486607551575,-0.07976125925779343
1783170047295061000,5.33906103515625,0.10272231698036194,0.022161902859807014,0.0022874372079968452
1783170047305131000,5.349131103515625,0.06869511306285858,-0.01836474984884262,0.06575136631727219
1783170047315200800,5.35920068359375,0.05247584357857704,-0.033158078789711,0.08867187798023224
1783170047325270000,5.36927001953125,0.07678012549877167,0.012640567496418953,0.05973237380385399
1783170047335340000,5.379340087890625,0.07994067668914795,0.057242121547460556,-0.026985198259353638
1783170047345409800,5.389409912109375,0.07611557841300964,0.027635496109724045,-0.10798550397157669
1783170047355479000,5.39947900390625,0.04947434365749359,0.019019775092601776,-0.12390930950641632
1783170047365548800,5.409548828125,0.010348247364163399,0.034960389137268066,-0.11379329115152359
1783170047375618800,5.419618896484375,0.017687128856778145,0.018738672137260437,-0.11365892738103867
1783170047385689000,5.429689208984375,0.08281819522380829,-0.062270957976579666,-0.031802140176296234
1783170047395757800,5.4397578125,0.14297831058502197,-0.10348443686962128,0.12205486744642258
1783170047405828000,5.449828125,0.23496496677398682,-0.040305472910404205,0.1663171350955963
1783170047415897900,5.45989794921875,0.36548569798469543,0.15221844613552094,0.06183387339115143
1783170047425967000,5.469967041015625,0.500691831111908,0.40806126594543457,-0.11471583694219589
1783170047436036900,5.480036865234375,0.5796929597854614,0.6800711154937744,-0.383220374584198
1783170047446107000,5.49010693359375,0.6198843121528625,0.8559654355049133,-0.6497215628623962
1783170047456175900,5.50017578125,0.5713250637054443,0.7388613224029541,-0.6022298336029053
1783170047466246000,5.510245849609375,0.3393576443195343,0.39674094319343567,-0.24891598522663116
1783170047476316000,5.52031591796875,0.05224094167351723,-0.032924920320510864,0.11356933414936066
1783170047486385000,5.530385009765625,-0.13471217453479767,-0.32599276304244995,0.22742053866386414
1783170047496455000,5.540454833984375,-0.13615506887435913,-0.5025818943977356,-0.0492108017206192
1783170047506525000,5.55052490234375,0.00011675304267555475,-0.5026165246963501,-0.5196651816368103
1783170047516595000,5.560594970703125,0.21537832915782928,-0.09093815088272095,-0.849459171295166
1783170047526664000,5.570663818359375,0.3075561821460724,0.44097980856895447,-0.95264732837677
1783170047536734000,5.58073388671875,0.2177213579416275,0.7855353355407715,-0.975879430770874
1783170047546804000,5.590803955078125,0.024924471974372864,0.6298360228538513,-0.8353782296180725
1783170047556873000,5.600873046875,-0.15861211717128754,0.06501522660255432,-0.5515366196632385
1783170047566943000,5.61094287109375,-0.28291037678718567,-0.46644681692123413,-0.2257089763879776
1783170047577013000,5.621012939453125,-0.36570292711257935,-0.8096460700035095,0.01265676785260439
1783170047587082000,5.63108203125,-0.45183223485946655,-1.023726463317871,0.1513374149799347
1783170047597152000,5.641152099609375,-0.5003507733345032,-0.9304601550102234,0.2762146592140198
1783170047607221800,5.6512216796875,-0.4916493892669678,-0.6987113356590271,0.3995315432548523
1783170047617292000,5.6612919921875,-0.35480615496635437,-0.6127033233642578,0.5695217251777649
1783170047627360800,5.67136083984375,-0.16773933172225952,-0.6221034526824951,0.7151092886924744
1783170047637431800,5.681431884765625,-0.0014810755383223295,-0.6052423715591431,0.8108075857162476
1783170047647501800,5.691501708984375,0.13827602565288544,-0.5399760007858276,0.9308516979217529
1783170047657572000,5.701572021484375,0.1849048137664795,-0.3286783993244171,1.099951982498169
1783170047667640800,5.711640869140625,0.12507475912570953,-0.01357399020344019,1.3035844564437866
1783170047677711000,5.721711181640625,-0.01922634430229664,0.10182809829711914,1.4453750848770142
1783170047687780900,5.73178076171875,-0.11298239976167679,0.09075121581554413,1.4225808382034302
1783170047697851000,5.741850830078125,-0.15514296293258667,-0.054791875183582306,1.3081289529800415
1783170047707920000,5.751919921875,-0.176451176404953,-0.18390804529190063,1.065098524093628
1783170047717990000,5.761989990234375,-0.20278555154800415,-0.1796380579471588,0.7149872183799744
1783170047728060000,5.772059814453125,-0.24090763926506042,-0.08282417058944702,0.3357003629207611
1783170047738129000,5.78212890625,-0.27958327531814575,-0.012807000428438187,0.021655377000570297
1783170047748199000,5.792198974609375,-0.3025045692920685,0.040812019258737564,-0.15572792291641235
1783170047758269000,5.80226904296875,-0.2766485810279846,0.1223369687795639,-0.18310095369815826
1783170047768338000,5.812337890625,-0.20366597175598145,0.20173805952072144,-0.14169864356517792
1783170047778408000,5.822407958984375,-0.13353189826011658,0.3003312349319458,-0.1312110871076584
1783170047788478000,5.83247802734375,-0.09506439417600632,0.324379563331604,-0.19981731474399567
1783170047798548000,5.8425478515625,-0.06785552948713303,0.2588810920715332,-0.2914723753929138
1783170047808617000,5.852616943359375,-0.07228276878595352,0.13970811665058136,-0.3386143147945404
1783170047818687000,5.86268701171875,-0.07451103627681732,-0.008179622702300549,-0.3459462821483612
1783170047828756700,5.8727568359375,-0.06005033850669861,-0.11440672725439072,-0.3666438162326813
1783170047838826000,5.882825927734375,-0.033682823181152344,-0.14896750450134277,-0.371552437543869
1783170047848896000,5.89289599609375,-0.008230727165937424,-0.15576469898223877,-0.3691193759441376
1783170047858965800,5.9029658203125,0.021635938435792923,-0.142558753490448,-0.3404822051525116
1783170047869035000,5.913034912109375,0.04513354226946831,-0.06545570492744446,-0.30093052983283997
1783170047879104800,5.923104736328125,0.05867260321974754,0.03134248033165932,-0.23058606684207916
1783170047889175000,5.933175048828125,0.06905573606491089,0.061298780143260956,-0.1557730734348297
1783170047899243800,5.943243896484375,0.061106130480766296,0.04925396665930748,-0.12135180085897446
1783170047909313800,5.953313720703125,0.03376159071922302,0.0017820564098656178,-0.13324308395385742
1783170047919384000,5.963384033203125,0.003032832406461239,-0.051830172538757324,-0.1756824404001236
1783170047929453800,5.973453857421875,-0.010205209255218506,-0.08783957362174988,-0.20293642580509186
1783170047939523000,5.983523193359375,-0.016660267487168312,-0.09124934673309326,-0.17714783549308777
1783170047949592800,5.9935927734375,-0.014234393835067749,-0.08421646803617477,-0.1444213092327118
1783170047959662800,6.003662841796875,0.0051788524724543095,-0.044622715562582016,-0.1319466531276703
1783170047969731800,6.01373193359375,-0.000954407500103116,0.003028959035873413,-0.13893797993659973
1783170047979801900,6.0238017578125,-0.02325977198779583,0.00016179215162992477,-0.14699450135231018
1783170047989871900,6.033871826171875,-0.08102399855852127,-0.010245841927826405,-0.13409627974033356
1783170047999942000,6.04394189453125,-0.18563953042030334,-0.09375311434268951,-0.15260162949562073
1783170048010011000,6.054010986328125,-0.30328118801116943,-0.16382673382759094,-0.21841420233249664
1783170048020081000,6.064080810546875,-0.43213361501693726,-0.13334965705871582,-0.30512115359306335
1783170048030151000,6.07415087890625,-0.5063905119895935,0.01751548796892166,-0.3272506892681122
1783170048040220000,6.084219970703125,-0.47955572605133057,0.3425094187259674,-0.23978972434997559
1783170048050290000,6.0942900390625,-0.3184131681919098,0.5874917507171631,-0.11484301090240479
1783170048060360000,6.10435986328125,-0.05824857950210571,0.68006432056427,0.0549597293138504
1783170048070429200,6.11442919921875,0.22952620685100555,0.6065349578857422,0.15145830810070038
1783170048080499000,6.1244990234375,0.4861519932746887,0.42626065015792847,0.050573211163282394
1783170048090569000,6.13456884765625,0.5903801321983337,0.18497000634670258,-0.17118021845817566
1783170048100638200,6.14463818359375,0.49714604020118713,-0.06263714283704758,-0.43427470326423645
1783170048110708000,6.1547080078125,0.17037993669509888,-0.23042933642864227,-0.7624834775924683
1783170048120778000,6.164778076171875,-0.18153530359268188,-0.3375107944011688,-1.1779510974884033
1783170048130848000,6.174847900390625,-0.3862426280975342,-0.5111662149429321,-1.3696472644805908
1783170048140917000,6.1849169921875,-0.4449882507324219,-0.6642988920211792,-1.0214643478393555
1783170048150987300,6.1949873046875,-0.40154677629470825,-0.799919068813324,-0.277840256690979
1783170048161057000,6.20505712890625,-0.373995840549469,-0.833949863910675,0.476002037525177
1783170048171126000,6.2151259765625,-0.3872850239276886,-0.6143117547035217,0.9848501086235046
1783170048181196000,6.225196044921875,-0.46515876054763794,-0.3669854700565338,1.1211282014846802
1783170048191266000,6.23526611328125,-0.5800755023956299,-0.11062104254961014,0.9453917741775513
1783170048201335000,6.2453349609375,-0.7404228448867798,0.10784072428941727,0.6307662129402161
1783170048211405000,6.255405029296875,-0.8326699137687683,0.30081257224082947,0.2935067117214203
1783170048221475000,6.26547509765625,-0.7540873289108276,0.35664305090904236,0.007407656405121088
1783170048231545000,6.275545166015625,-0.519591748714447,0.21146191656589508,-0.21070896089076996
1783170048241614000,6.285614013671875,-0.22351546585559845,0.12373140454292297,-0.36494046449661255
1783170048251683800,6.295683837890625,0.04657753184437752,0.2629327178001404,-0.32216954231262207
1783170048261754000,6.305754150390625,0.2596369683742523,0.5239238142967224,-0.09530129283666611
1783170048271822800,6.31582275390625,0.3983871340751648,0.8009766936302185,0.29554447531700134
1783170048281893000,6.32589306640625,0.49822086095809937,1.0178581476211548,0.7083224654197693
1783170048291963100,6.335963134765625,0.5915734767913818,1.0154699087142944,0.8656934499740601
1783170048302032000,6.346031982421875,0.5930136442184448,0.8803215622901917,0.7592880725860596
1783170048312102100,6.35610205078125,0.5220414400100708,0.5497055649757385,0.442494660615921
1783170048322172200,6.366172119140625,0.40420112013816833,0.17413319647312164,0.12392609566450119
1783170048332242000,6.376241943359375,0.23986409604549408,-0.15877525508403778,-0.05449291318655014
1783170048342311200,6.386311279296875,0.1199297085404396,-0.46913474798202515,-0.08717415481805801
1783170048352381000,6.396380859375,0.03680046647787094,-0.6751984357833862,-0.01735060289502144
1783170048362451200,6.406451171875,-0.044024232774972916,-0.8103367686271667,0.11014936119318008
1783170048372520000,6.41652001953125,-0.09883714467287064,-0.7660694718360901,0.2225203812122345
1783170048382590000,6.42658984375,-0.12536734342575073,-0.538638174533844,0.21146942675113678
1783170048392660200,6.43666015625,-0.16303643584251404,-0.19077792763710022,0.06132093816995621
1783170048402729000,6.44672900390625,-0.23512525856494904,0.178608238697052,-0.10509342700242996
1783170048412799200,6.45679931640625,-0.3007833659648895,0.48867183923721313,-0.25734901428222656
1783170048422869000,6.466868896484375,-0.32755473256111145,0.6219627261161804,-0.3762315511703491
1783170048432938000,6.47693798828125,-0.32557573914527893,0.6205994486808777,-0.485626220703125
1783170048443008000,6.487008056640625,-0.26908373832702637,0.4129248559474945,-0.5412245988845825
1783170048453078000,6.497078125,-0.15770366787910461,0.058993685990571976,-0.5168260335922241
1783170048463148000,6.50714794921875,-0.015700172632932663,-0.254043847322464,-0.46477553248405457
1783170048473217000,6.517217041015625,0.09753929823637009,-0.4162737727165222,-0.39694589376449585
1783170048483287000,6.527287109375,0.16652698814868927,-0.4253038763999939,-0.36209988594055176
1783170048493357000,6.537357177734375,0.19276897609233856,-0.322559118270874,-0.3459954857826233
1783170048503426000,6.547426025390625,0.15822088718414307,-0.15456067025661469,-0.31630125641822815
1783170048513496000,6.55749609375,0.10180341452360153,0.0110557209700346,-0.23635903000831604
1783170048523566000,6.567566162109375,0.037866104394197464,0.1255640685558319,-0.13038840889930725
1783170048533635000,6.577635009765625,-0.011541659012436867,0.15369823575019836,-0.048995018005371094
1783170048543705000,6.587705078125,-0.035455647855997086,0.09627274423837662,0.02978859469294548
1783170048553775000,6.597775146484375,-0.01905377209186554,0.024185769259929657,0.11733575165271759
1783170048563845000,6.60784521484375,-0.01000998541712761,-0.018411893397569656,0.1818857342004776
1783170048573914000,6.6179140625,0.021671779453754425,-0.08325507491827011,0.19405797123908997
1783170048583984000,6.627984130859375,0.038056761026382446,-0.18648891150951385,0.15623074769973755
1783170048594054000,6.638053955078125,0.05756494775414467,-0.3087732791900635,0.06466035544872284
1783170048604123100,6.648123046875,0.07039730995893478,-0.41242778301239014,-0.0041434550657868385
1783170048614193000,6.65819287109375,0.050835058093070984,-0.4127388298511505,-0.014902358874678612
1783170048624263200,6.66826318359375,0.030821962282061577,-0.3370171785354614,0.012079539708793163
1783170048634332000,6.678331787109375,0.012475712224841118,-0.14814551174640656,0.12135782837867737
1783170048644402000,6.68840185546875,-0.01394213829189539,0.09792377799749374,0.3321186602115631
1783170048654472200,6.69847216796875,-0.013119488023221493,0.40167301893234253,0.4852392375469208
1783170048664542000,6.7085419921875,0.02107805572450161,0.7293057441711426,0.4140196144580841
1783170048674611200,6.718611083984375,0.04454343393445015,1.092604637145996,0.0371178537607193
1783170048684681000,6.728680908203125,0.07176856696605682,1.3842040300369263,-0.45971977710723877
1783170048694751000,6.7387509765625,0.17976054549217224,1.4210848808288574,-0.8786856532096863
1783170048704820200,6.7488203125,0.32124024629592896,1.021560549736023,-1.099244236946106
1783170048714890000,6.758889892578125,0.4686667025089264,0.32333293557167053,-0.9482699632644653
1783170048724960000,6.7689599609375,0.49337199330329895,-0.243711456656456,-0.45123955607414246
1783170048735029000,6.779029052734375,0.3973146975040436,-0.587648332118988,-0.00004227040335536003
1783170048745099000,6.78909912109375,0.21077774465084076,-0.5824126601219177,0.3037915527820587
1783170048755169300,6.799169189453125,0.0296322051435709,-0.4642000198364258,0.44012385606765747
1783170048765239000,6.809239013671875,-0.11107586324214935,-0.38891392946243286,0.4244482219219208
1783170048775308000,6.81930810546875,-0.1848347783088684,-0.3047329783439636,0.43278470635414124
1783170048785378000,6.8293779296875,-0.1980801224708557,-0.22674991190433502,0.5282111167907715
1783170048795448000,6.839447998046875,-0.118325375020504,-0.19135037064552307,0.5552361011505127
1783170048805517000,6.84951708984375,-0.016015050932765007,-0.17385806143283844,0.5509070754051208
1783170048815587000,6.859587158203125,0.05459733307361603,-0.16018086671829224,0.5590025186538696
1783170048825657000,6.869656982421875,0.04398985207080841,-0.14108175039291382,0.6016370058059692
1783170048835726000,6.87972607421875,-0.013622577302157879,-0.18573284149169922,0.6087865233421326
1783170048845796000,6.889796142578125,-0.01281875278800726,-0.3510019779205322,0.4275682866573334
1783170048855865900,6.899865966796875,0.07304049283266068,-0.5079537630081177,0.18156595528125763
1783170048865935000,6.90993505859375,0.19288860261440277,-0.5407500863075256,0.005512101575732231
1783170048876004900,6.9200048828125,0.3035410940647125,-0.44079363346099854,-0.10078583657741547
1783170048886075100,6.9300751953125,0.34266501665115356,-0.3070544898509979,-0.07512211054563522
1783170048896145200,6.940145263671875,0.2735069990158081,-0.19111961126327515,0.21481624245643616
1783170048906214000,6.9502138671875,0.1900334507226944,-0.15314413607120514,0.5816658735275269
1783170048916284200,6.9602841796875,0.15761958062648773,-0.1470569521188736,0.8578473925590515
1783170048926354000,6.97035400390625,0.14567288756370544,-0.1657809615135193,0.9731245040893555
1783170048936423200,6.980423095703125,0.15057577192783356,-0.20786769688129425,0.9594800472259521
1783170048946493200,6.9904931640625,0.14829079806804657,-0.1712118238210678,0.8390569686889648
1783170048956563000,7.00056298828125,0.12253271043300629,-0.0694415271282196,0.6318255066871643
1783170048966632200,7.010632080078125,0.0877746194601059,-0.0516943484544754,0.44147399067878723
1783170048976702000,7.020701904296875,0.057980503886938095,-0.13021552562713623,0.32780173420906067
1783170048986772000,7.03077197265625,0.001534285256639123,-0.2688310444355011,0.26957908272743225
1783170048996842200,7.04084228515625,-0.047599174082279205,-0.41075384616851807,0.2203657478094101
1783170049006911000,7.050910888671875,-0.10882867872714996,-0.4270539879798889,0.1869676560163498
1783170049016981200,7.060981201171875,-0.15895362198352814,-0.3102770447731018,0.18094012141227722
1783170049027051000,7.071051025390625,-0.16159211099147797,-0.11892865598201752,0.1593882292509079
1783170049037120000,7.0811201171875,-0.11188500374555588,0.09828808903694153,0.13236087560653687
1783170049047190000,7.09118994140625,-0.04345398768782616,0.31256362795829773,0.042919501662254333
1783170049057260000,7.101260009765625,0.051089558750391006,0.4618740379810333,-0.10340921580791473
1783170049067328800,7.111328857421875,0.10853774100542068,0.5607386827468872,-0.2576671540737152
1783170049077398500,7.1213984375,0.11182168871164322,0.5693138241767883,-0.4187157154083252
1783170049087468500,7.131468505859375,0.12354594469070435,0.46562081575393677,-0.5204889178276062
1783170049097537500,7.14153759765625,0.10853876173496246,0.25316235423088074,-0.559578537940979
1783170049107607600,7.151607666015625,0.13844606280326843,0.011585155501961708,-0.5065009593963623
1783170049117677600,7.161677490234375,0.20525997877120972,-0.13093018531799316,-0.40247440338134766
1783170049127747600,7.17174755859375,0.25704631209373474,-0.18803447484970093,-0.2904794216156006
1783170049137816600,7.181816650390625,0.30056101083755493,-0.18788747489452362,-0.18357989192008972
1783170049147886600,7.191886474609375,0.33759528398513794,-0.09819593280553818,-0.1314074695110321
1783170049157956600,7.20195654296875,0.33187350630760193,0.0880061611533165,-0.10547732561826706
1783170049168025900,7.21202587890625,0.303129106760025,0.26345014572143555,-0.05197742581367493
1783170049178095600,7.222095703125,0.2624692916870117,0.3462640643119812,0.04404950514435768
1783170049188165600,7.23216552734375,0.20753513276576996,0.29718881845474243,0.11636175215244293
1783170049198234600,7.242234619140625,0.16123129427433014,0.13899864256381989,0.13755863904953003
1783170049208304600,7.2523046875,0.14957284927368164,-0.028571590781211853,0.11507316678762436
1783170049218374700,7.262374755859375,0.16742374002933502,-0.17081260681152344,0.09441236406564713
1783170049228443600,7.272443603515625,0.1942330002784729,-0.23880964517593384,0.11863106489181519
1783170049238513700,7.282513671875,0.22333575785160065,-0.20651909708976746,0.15882429480552673
1783170049248583700,7.292583740234375,0.24139520525932312,-0.15759600698947906,0.1724756807088852
1783170049258653700,7.30265380859375,0.2686164379119873,-0.09356296062469482,0.13863302767276764
1783170049268722400,7.312722412109375,0.2874899208545685,-0.02302035689353943,0.05446970835328102
1783170049278792700,7.322792724609375,0.26605066657066345,0.0022426540963351727,-0.074288010597229
1783170049288862700,7.33286279296875,0.24133047461509705,-0.07169748842716217,-0.16574274003505707
1783170049298931700,7.342931640625,0.24014084041118622,-0.13855667412281036,-0.1506282389163971
1783170049309001700,7.353001708984375,0.2513894736766815,-0.022506900131702423,-0.09280826151371002
1783170049319071500,7.363071533203125,0.2786772847175598,0.14565494656562805,-0.09861235320568085
1783170049329140700,7.373140625,0.35034748911857605,0.39677131175994873,-0.27246561646461487
1783170049339210800,7.383210693359375,0.4407508969306946,0.5579469203948975,-0.6187583804130554
1783170049349280500,7.393280517578125,0.5306892991065979,0.5293962359428406,-0.9655250906944275
1783170049359350800,7.403350830078125,0.5855152606964111,0.22892481088638306,-1.0427674055099487
1783170049369419500,7.41341943359375,0.5712332725524902,-0.17315073311328888,-0.6814002394676208
1783170049379489500,7.423489501953125,0.4657651484012604,-0.41447362303733826,-0.11970413476228714
1783170049389559800,7.433559814453125,0.2971348762512207,-0.49494194984436035,0.2768053412437439
1783170049399628500,7.443628662109375,0.16534754633903503,-0.5298277735710144,0.16075676679611206
1783170049409698800,7.45369873046875,0.11282245069742203,-0.4632672369480133,-0.3578125536441803
1783170049419768600,7.4637685546875,0.0785004273056984,-0.2469349354505539,-0.7835582494735718
1783170049429837800,7.473837890625,0.08963755518198013,0.09460001438856125,-0.8564477562904358
1783170049439907600,7.483907470703125,0.09189271926879883,0.4359522759914398,-0.530512273311615
1783170049449977600,7.4939775390625,0.05165400728583336,0.6108031868934631,-0.020903442054986954
1783170049460046600,7.504046630859375,-0.009981660172343254,0.5289427042007446,0.3862358331680298
1783170049470116600,7.51411669921875,-0.07944782823324203,0.1643209159374237,0.5883610844612122
1783170049480186600,7.5241865234375,-0.1263090819120407,-0.21274247765541077,0.6344500184059143
1783170049490256600,7.534256591796875,-0.15578234195709229,-0.3780371844768524,0.7124287486076355
1783170049500325600,7.54432568359375,-0.12833952903747559,-0.35585862398147583,0.8488750457763672
1783170049510395600,7.554395751953125,-0.027002926915884018,-0.2422758936882019,0.9088186025619507
1783170049520465700,7.564465576171875,0.1264641284942627,-0.1988072395324707,0.8878374695777893
1783170049530534700,7.57453466796875,0.2716904580593109,-0.13486327230930328,0.850334644317627
1783170049540604700,7.584604736328125,0.3345003128051758,-0.06796279549598694,0.8380177617073059
1783170049550674700,7.5946748046875,0.3033924996852875,-0.03278643637895584,0.8328781723976135
1783170049560743700,7.60474365234375,0.2064395695924759,-0.050914570689201355,0.8182957768440247
1783170049570813700,7.614813720703125,0.07251513004302979,-0.15199697017669678,0.78666090965271
1783170049580883700,7.6248837890625,-0.056787461042404175,-0.1799500435590744,0.7261815667152405
1783170049590953500,7.634953369140625,-0.12461353838443756,-0.03150719404220581,0.6408085227012634
1783170049601022700,7.645022705078125,-0.09359144419431686,0.25749051570892334,0.5646423697471619
1783170049611092500,7.655092529296875,0.0038693449459969997,0.45241740345954895,0.5187438726425171
1783170049621162800,7.665162841796875,0.11762414127588272,0.3962521255016327,0.4778721034526825
1783170049631231500,7.6752314453125,0.2253730148077011,0.19644302129745483,0.3933883607387543
1783170049641301500,7.685301513671875,0.27128300070762634,-0.046103570610284805,0.289402037858963
1783170049651371800,7.695371826171875,0.23170047998428345,-0.23273390531539917,0.19437025487422943
1783170049661440500,7.7054404296875,0.13309773802757263,-0.30885079503059387,0.09097648411989212
1783170049671510800,7.7155107421875,-0.015370689332485199,-0.2460261583328247,0.026147179305553436
1783170049681580500,7.72558056640625,-0.1960456669330597,-0.033628661185503006,0.07280576229095459
1783170049691649800,7.73564990234375,-0.33780357241630554,0.16198039054870605,0.19335711002349854
1783170049701719600,7.745719482421875,-0.41674819588661194,0.28945791721343994,0.2729581892490387
1783170049711789600,7.75578955078125,-0.40626588463783264,0.35924285650253296,0.2408929318189621
1783170049721859600,7.765859619140625,-0.31644147634506226,0.4194209575653076,0.14065873622894287
1783170049731928600,7.775928466796875,-0.18724073469638824,0.4415273666381836,-0.007054358720779419
1783170049741998600,7.78599853515625,-0.03502935916185379,0.44809576869010925,-0.16487647593021393
1783170049752068600,7.796068603515625,0.07766392827033997,0.4479905962944031,-0.2983018457889557
1783170049762137600,7.8061376953125,0.13861408829689026,0.3926492929458618,-0.41297194361686707
1783170049772207600,7.81620751953125,0.18833790719509125,0.26811203360557556,-0.4724893867969513
1783170049782277600,7.826277587890625,0.17432835698127747,0.16611161828041077,-0.42744573950767517
1783170049792346600,7.8363466796875,0.11835570633411407,0.13012485206127167,-0.29199740290641785
1783170049802416600,7.846416748046875,0.0725376233458519,0.10571591556072235,-0.15511919558048248
1783170049812486700,7.856486572265625,0.0652744472026825,0.10007068514823914,-0.08182147145271301
1783170049822555600,7.8665556640625,0.06731230020523071,0.10767240822315216,-0.0798581913113594
1783170049832625700,7.876625732421875,0.05050349235534668,0.13619938492774963,0.015095753595232964
1783170049842695700,7.88669580078125,0.04979615658521652,0.16028688848018646,-0.02121724747121334
1783170049852765400,7.896765380859375,0.06257323175668716,0.02149145118892193,-0.13623057305812836
1783170049862834700,7.906834716796875,0.0090903015807271,0.013654300943017006,-0.1938328742980957
1783170049872904400,7.916904541015625,-0.03533965349197388,0.009120937436819077,-0.21703684329986572
1783170049882974700,7.926974609375,-0.054280586540699005,0.00581542169675231,-0.17041368782520294
1783170049893043500,7.93704345703125,-0.0765865296125412,0.09195669740438461,-0.07841644436120987
1783170049903113700,7.94711376953125,-0.11258713901042938,0.15169060230255127,-0.04370240867137909
