time,seconds_elapsed,z,y,x
1783170404374223000,0.08422314453125,-0.3085211747705936,-0.6780944918751716,-0.20610592543482778
1783170404384294100,0.094294189453125,-0.3261994548022747,-0.6235837340086698,-0.11931231586188078
1783170404394364000,0.104364013671875,-0.4807739304423332,-0.6028279462277889,-0.17761136009544132
1783170404404435000,0.11443505859375,-0.6610527561813593,-0.6648860507339239,-0.2633466927871108
1783170404414505000,0.1245048828125,-0.8687222776710987,-0.6955500690668821,-0.310978504794836
1783170404424576000,0.134575927734375,-1.0660349480584264,-0.7728805615067481,-0.3913178236618638
1783170404434646000,0.14464599609375,-1.1340978459373117,-0.9100514824032783,-0.4752870234638452
1783170404444716000,0.154716064453125,-1.09466512247622,-1.0883008481413126,-0.5740645008191466
1783170404454787000,0.164787109375,-0.9413210654139518,-1.3069599656790494,-0.7158876314356922
1783170404464857000,0.174857177734375,-0.8136641150549053,-1.3815940586417912,-0.7990876004308461
1783170404474927900,0.184927978515625,-0.8086100465357303,-1.2961036406219004,-0.7105006777003408
1783170404484998000,0.194997802734375,-1.0374421830415725,-1.0561252562016248,-0.620164865475893
1783170404495069000,0.20506884765625,-1.4060814341664314,-0.709957364603877,-0.48387160419672726
1783170404505139000,0.215138916015625,-1.6912848617136478,-0.48352936663031576,-0.30204934840798375
1783170404515210000,0.2252099609375,-1.847122489157319,-0.38794893175065515,-0.16012977167963982
1783170404525280000,0.235280029296875,-1.7574013016998766,-0.39384383500814435,-0.1890025226816535
1783170404535350000,0.24535009765625,-1.3883634066462516,-0.46130993603765963,-0.348373877209425
1783170404545420800,0.2554208984375,-0.9280793065249919,-0.6120990479201078,-0.3869710266292095
1783170404555491000,0.265490966796875,-0.48711423937976356,-0.7725964838683604,-0.42239480670988555
1783170404565562000,0.27556201171875,-0.13740940582752226,-0.8928793983280658,-0.5763900211572647
1783170404575632100,0.285632080078125,0.004907645785808563,-1.063185696107149,-0.6690478465884924
1783170404585703000,0.295702880859375,-0.03413023313879966,-1.1754513083279132,-0.7145680732697248
1783170404595773000,0.30577294921875,-0.2650648948818445,-1.1345324379622936,-0.6989858887344599
1783170404605844000,0.315843994140625,-0.6442173567146062,-1.0212152708619833,-0.7201654548853635
1783170404615914000,0.3259140625,-0.9231599703013896,-0.8617477624833584,-0.6040858373343945
1783170404625985000,0.335985107421875,-1.0377402892053127,-0.6239958219408989,-0.3963420815646648
1783170404636055000,0.346054931640625,-1.0813152270376682,-0.48112347453236576,-0.2505518008828163
1783170404646125000,0.356125,-1.0462100113868713,-0.47878772506117817,-0.14850070868432522
1783170404656195800,0.36619580078125,-0.8638087866663933,-0.6189250945478677,-0.0699783761113882
1783170404666265900,0.376265869140625,-0.4865805708944797,-0.8331137886732817,-0.015835867035388945
1783170404676337000,0.3863369140625,0.09261632437705992,-1.0182786328881979,0.014216741400957108
1783170404686407200,0.3964072265625,0.5523112264335155,-1.1112643750995397,0.020540683725476263
1783170404696478000,0.40647802734375,0.7837310413450003,-1.069416699451208,-0.0031909049957990644
1783170404706548000,0.4165478515625,0.7827513826578855,-0.8797907841742039,-0.007663081973791122
1783170404716619000,0.426618896484375,0.28158932870328424,-1.027088546809554,-0.1214572189360857
1783170404726689000,0.43668896484375,0.04606149395108223,-1.1578080996096134,-0.4020142819821834
1783170404736759000,0.446759033203125,-0.002846621602773666,-1.2041595164179801,-0.438841499119997
1783170404746830000,0.456830078125,-0.05747866776138544,-1.1918892329096793,-0.4212444676309824
1783170404756900000,0.466900146484375,-0.05570405930429697,-1.0330839878320692,-0.27213585618138314
1783170404766971000,0.476970947265625,-0.09850859728604555,-0.7838724956423043,-0.1593336528658867
1783170404777041000,0.487041015625,-0.2616229377344251,-0.4252349985718727,-0.09574702361822128
1783170404787112000,0.49711181640625,-0.5462812986195087,-0.21638766547441482,-0.14534955117702483
1783170404797182200,0.50718212890625,-0.6412459396883845,-0.2802157022625208,-0.22108722146749496
1783170404807253000,0.5172529296875,-0.5698536051258445,-0.4404278915286064,-0.19654490088522433
1783170404817323000,0.527322998046875,-0.5323989037394523,-0.6341308469861745,-0.3549970947414636
1783170404827393000,0.53739306640625,-0.5563531953006983,-0.6703507458806037,-0.6243494576841593
1783170404837464000,0.547464111328125,-0.12999357661306857,-0.5367424859017134,-0.8214514079302548
1783170404847533800,0.557533935546875,-0.14548866738677024,-0.6242196938246488,-0.7310200263768434
1783170404857604900,0.56760498046875,0.0033528175592422486,-0.6400386097252369,-0.27219898454546926
1783170404867675100,0.577675048828125,0.27522505436837674,-0.48340603251159187,0.12907646176815032
1783170404877746000,0.587745849609375,0.401317531889677,-0.39048867936134335,0.12401625576913355
1783170404887816000,0.59781591796875,0.4883586864829063,-0.3816027775943279,0.001772270369529724
1783170404897887000,0.607886962890625,0.4610153370052576,-0.2999474076926708,-0.1444832897365093
1783170404907957000,0.61795703125,0.2676148716256022,-0.16588263611793516,-0.17900573706328868
1783170404918027000,0.628027099609375,0.13129676816612482,0.04648702588677406,0.15614567047953604
1783170404928098000,0.63809814453125,0.1015840592086315,0.23983166942596434,0.281446120840311
1783170404938168000,0.64816796875,0.09252513896226883,0.26695348510742184,0.22847382458746432
1783170404948239000,0.658239013671875,0.21373598192185161,0.29301380903720853,0.24187574247419832
1783170404958308400,0.668308349609375,0.29236586652249097,0.303895268535614,0.04567980115711689
1783170404968379100,0.678379150390625,0.29861119065284725,0.27404782728254795,-0.009211480459570884
1783170404978449400,0.688449462890625,0.3132411890298128,0.2684761646300554,-0.007266776132583618
1783170404988520400,0.6985205078125,0.19221768533587455,0.3277116129308939,0.007554945424199104
1783170404998590500,0.708590576171875,0.009237491683661937,0.3629278877407312,0.0869926392763853
1783170405008660200,0.71866015625,-0.1652443382143974,0.4075263234019279,0.12564064210057257
1783170405018731300,0.728731201171875,-0.31468495809733865,0.3895060980647802,0.12029051324427127
1783170405028801500,0.738801513671875,-0.43008594573438164,0.3571171556353569,0.2528156541615724
1783170405038872300,0.748872314453125,-0.41326048313975333,0.29217268203794955,0.263650351908803
1783170405048942300,0.7589423828125,-0.4874515085101127,0.19812895520627496,0.20164251628518104
1783170405059013400,0.769013427734375,-0.5703612623870372,0.16974691033065317,0.055659343379735944
1783170405069083400,0.77908349609375,-0.5644400556445122,0.17811843283474443,0.012569558715820313
1783170405079154200,0.789154296875,-0.5518418553560972,0.3192360455304384,-0.0015425532668828963
1783170405089224400,0.799224365234375,-0.6317381066307425,0.440659946718812,0.036572950115799904
1783170405099294500,0.80929443359375,-0.6295125395357608,0.44077275944352146,-0.004676175117492676
1783170405109365500,0.819365478515625,-0.42712008166611193,0.47526890328526494,-0.13474281696677207
1783170405119435300,0.829435302734375,-0.08736556424200534,0.6475578993141651,-0.2722837402194738
1783170405129506300,0.83950634765625,0.17213409772813318,0.8886901299446821,-0.302897489669919
1783170405139576300,0.849576416015625,0.2660848855793476,1.1031991420656442,-0.288928585550189
1783170405149647400,0.8596474609375,0.28159692748785015,1.282650284808874,-0.36655835319757457
1783170405159717400,0.86971728515625,0.24456337412297724,1.4414187050074339,-0.5400847820669412
1783170405169787400,0.879787353515625,0.22842940092384814,1.5344073698282241,-0.7559305957496166
1783170405179858400,0.8898583984375,0.3043336599528789,1.6063684441894293,-0.7409563139796257
1783170405189928200,0.89992822265625,0.24955109940767287,1.5867647490531205,-0.5762205098092555
1783170405199999200,0.909999267578125,0.016420096664130687,1.5781255155235527,-0.3664963938772678
1783170405210069500,0.920069580078125,-0.38421442139744755,1.475870425185561,-0.256236860781908
1783170405220140500,0.930140625,-0.6986304994255303,1.2872855433940886,-0.19082652323842048
1783170405230210300,0.940210205078125,-0.9151347770169377,0.9317325683355331,-0.19783961687088011
1783170405240281300,0.95028125,-0.9923200157672166,0.47214171117544174,-0.2016916161239147
1783170405250351400,0.960351318359375,-0.908673764309287,0.030178280642628667,-0.11851473574340343
1783170405260421400,0.97042138671875,-0.7587821857884526,-0.46444940310716626,-0.010284078127145766
1783170405270492400,0.980492431640625,-0.7199801614463329,-0.9972563031256199,-0.06265899300873279
1783170405280562400,0.9905625,-0.7499433380335568,-1.3995932411909102,-0.2107540435016155
1783170405290633500,1.000633544921875,-0.7397638893246651,-1.6736457446485757,-0.3173410255640745
1783170405300703200,1.010703125,-0.6566922228842973,-1.8796809429347514,-0.3439092990159988
1783170405310774300,1.020774169921875,-0.6004769991874694,-1.9046032027453184,-0.3357575567424297
1783170405320844300,1.03084423828125,-0.41555327025204897,-1.775107054260373,-0.2686275557994842
1783170405330914300,1.040914306640625,-0.0794619515106082,-1.4782622887581587,-0.11894611289799213
1783170405340985300,1.0509853515625,0.18901392085850238,-1.144414365029335,0.07557692677080631
1783170405351055400,1.061055419921875,0.29706717608124017,-0.809061881956458,0.12368366281390189
1783170405361126400,1.07112646484375,0.23994594345539808,-0.4093699054419994,0.10030746340155601
1783170405371196200,1.081196044921875,0.19019114794433115,-0.052635611644387244,0.19629647908210754
1783170405381267200,1.09126708984375,0.19957301653474568,0.28327801244258877,0.3571341067701578
1783170405391337500,1.10133740234375,0.20127251392900944,0.5783072529554367,0.47142216472923754
1783170405401408500,1.111408447265625,0.20352876842319964,0.7920692461013793,0.5916185699492693
1783170405411478300,1.121478271484375,0.22447540260106325,0.8923539131492376,0.7242845806419849
1783170405421548300,1.13154833984375,0.15468056636303662,0.8706710736513137,0.7294412327527999
1783170405431619300,1.141619384765625,0.041459553113579746,0.7160100887715816,0.6440314787536859
1783170405441689300,1.151689453125,-0.13852058193981648,0.47438861331939697,0.5025269125670194
1783170405451760400,1.161760498046875,-0.3395686394631862,0.19282266549170016,0.352032984238863
1783170405461830400,1.171830322265625,-0.4815177345469594,-0.026682255220413207,0.22511165467798708
1783170405471901400,1.1819013671875,-0.5970227670803666,-0.2097965966463089,0.11930910099148749
1783170405481971200,1.19197119140625,-0.5524602795153856,-0.42488019378483294,0.07246902388334274
1783170405492041500,1.20204150390625,-0.4697954403102398,-0.6046528235673904,0.13946692287921905
1783170405502112500,1.212112548828125,-0.35248277383297677,-0.732993956798315,0.2203495548427105
1783170405512182500,1.2221826171875,-0.16302549312114714,-0.8026455851733684,0.2506692897826433
1783170405522253300,1.23225341796875,0.04444207605570554,-0.8001309720039367,0.2858674444139004
1783170405532323300,1.2423232421875,0.2441600540190935,-0.8187865726351737,0.313873057192564
1783170405542394400,1.252394287109375,0.4230006636485457,-0.8264245201677084,0.3279115194171667
1783170405552464100,1.262464111328125,0.5386725771814584,-0.8371890752881764,0.2811170350164175
1783170405562534400,1.272534423828125,0.5332490908280014,-0.8830068236112594,0.1780979745686054
1783170405572605400,1.28260546875,0.5150160995230079,-0.9391694403380155,0.08697042744457721
1783170405582675500,1.292675537109375,0.4974374804735183,-0.9832868144840001,-0.05715455037355423
1783170405592746200,1.302746337890625,0.5806336500763892,-1.0512737245172261,-0.1829915918290615
1783170405602816300,1.312816162109375,0.7086845681890845,-1.0918617554932832,-0.28791619363725185
1783170405612886500,1.322886474609375,0.809938664790988,-1.0572107133507729,-0.3631991058975458
1783170405622957600,1.33295751953125,0.8593842482224107,-1.0602350296080112,-0.3935001361370086
1783170405633027300,1.34302734375,0.8918918485954404,-1.1151871015012265,-0.4611234735548496
1783170405643098400,1.353098388671875,0.9274746186301112,-1.1114601899325847,-0.5086953720688819
1783170405653168400,1.36316845703125,0.9480229011401533,-1.0965636495739222,-0.6040723933309317
1783170405663239200,1.3732392578125,0.9150959063112735,-1.0537895067304373,-0.7106780800938606
1783170405673309400,1.383309326171875,0.8954445726409554,-0.8808756568014621,-0.807525173908472
1783170405683379500,1.39337939453125,0.7951192813217639,-0.7266442955106497,-0.9698983406007289
1783170405693450500,1.403450439453125,0.7128805585741996,-0.6551034923881291,-1.039641738912463
1783170405703520300,1.413520263671875,0.6951938029751181,-0.5051157600164413,-1.0816074879825115
1783170405713591300,1.42359130859375,0.6480468518748879,-0.33397885663211346,-1.115264258390665
1783170405723661300,1.433661376953125,0.5210515802949667,-0.22428221811652183,-1.0910124451875687
1783170405733732400,1.443732421875,0.39299160209298134,-0.19496961439251898,-1.11523620133996
1783170405743802400,1.45380224609375,0.3571767768681049,-0.1852431701481342,-1.0469242971360684
1783170405753872400,1.463872314453125,0.2900292402684688,-0.21985271123647687,-1.186147474387288
1783170405763943400,1.473943359375,0.1522352190375328,-0.37238136026263235,-1.2657903354227542
1783170405774013200,1.48401318359375,0.01084901853352785,-0.4958896665096283,-1.3219652271091937
1783170405784084200,1.494084228515625,-0.07092530157268047,-0.6470037725627422,-1.4168664475530386
1783170405794154500,1.504154541015625,-0.13932576084285975,-0.7965268100321292,-1.4828572153329849
1783170405804225500,1.5142255859375,-0.15843553498238325,-0.8484767774999141,-1.605236809810996
1783170405814295300,1.52429541015625,-0.11476882721334696,-0.831492324951291,-1.7781033134669064
1783170405824365300,1.534365234375,-0.1275397537201643,-0.4990951845526695,-1.9728204144030808
1783170405834436400,1.544436279296875,-0.24511165565550325,-0.18740356305241584,-2.050608002960682
1783170405844506400,1.55450634765625,-0.34181875647753474,-0.040372926920652384,-2.0388252107083797
1783170405854577400,1.564577392578125,-0.28111411240696904,0.09488017765581608,-2.0793010134816168
1783170405864647400,1.5746474609375,-0.34572540852725503,0.25817864249944683,-2.1910306191295383
1783170405874717400,1.584717529296875,-0.4200193097501993,0.4053139080494642,-2.1766250771582127
1783170405884788200,1.594788330078125,-0.49149961485713717,0.6094195995777845,-2.0768968749493357
1783170405894858200,1.604858154296875,-0.7198305238425732,0.6962228537619114,-1.8038421503573654
1783170405904929300,1.61492919921875,-1.0348594730719924,0.5049380653619766,-1.6898434307336807
1783170405914999300,1.624999267578125,-1.3323802381396292,0.07845686612129212,-1.6960276723265646
1783170405925070300,1.6350703125,-1.5175883369743823,-0.42722354204058643,-1.7444354371428488
1783170405935140400,1.645140380859375,-1.5626049980476497,-0.9971697938859462,-1.836618630799651
1783170405945210400,1.65521044921875,-1.557426280235499,-1.4479402157306671,-1.9165368016451596
1783170405955281200,1.66528125,-1.8069903852552174,-1.7734458430498838,-2.0472557699233294
1783170405965350700,1.6753505859375,-2.1570551381610334,-2.0610195068597794,-2.031453805157542
1783170405975421400,1.68542138671875,-2.3205720680609345,-2.332404836934805,-1.8669687608778476
1783170405985491500,1.695491455078125,-2.463501406353712,-2.577837979629636,-1.7048872706085443
1783170405995562500,1.7055625,-2.6087644482910632,-2.566590609428286,-1.6296885295003651
1783170406005632500,1.715632568359375,-2.588277248318493,-2.4344044912070033,-1.4802473250955341
1783170406015702500,1.72570263671875,-2.5533172863572835,-2.174409154674411,-1.3863070586383341
1783170406025773600,1.735773681640625,-2.505373047399521,-1.7630682414203882,-1.1749503730684518
1783170406035843600,1.745843505859375,-2.2295389212220904,-1.3509259486556053,-0.9744938516974448
1783170406045914400,1.755914306640625,-1.9279943074658512,-1.037808678266406,-0.954661023980379
1783170406055984400,1.765984375,-1.714095243936777,-0.723458066689968,-0.9653273794233799
1783170406066054700,1.7760546875,-1.4526783501684666,-0.1728793631374836,-0.7709048775196075
1783170406076125700,1.786125732421875,-1.4028046044528484,0.021055062988400458,-0.7392974408566951
1783170406086195500,1.796195556640625,-1.3889495359711348,0.188054135915637,-0.42793022900521754
1783170406096266500,1.8062666015625,-1.3299750766940415,0.1743599570840597,-0.5454314037919045
1783170406106336500,1.81633642578125,-1.3258826928138732,0.09330079950988292,-0.6443190635234117
1783170406116407600,1.826407470703125,-1.3578979796253143,0.22021569932997226,-0.5686164645463228
1783170406126477600,1.8364775390625,-1.2942366777062415,0.5650350989282131,-0.2719914792746305
1783170406136547600,1.846547607421875,-1.248261692994833,0.38427170454263687,-0.392805724132061
1783170406146618600,1.85661865234375,-1.2181816120296716,0.11441489920914172,-0.4222720571130514
1783170406156688400,1.8666884765625,-1.0544906407371162,0.39796646789610385,-0.10012859970331191
1783170406166759400,1.876759521484375,-1.0807903263807297,0.4038070106178522,0.4533890799105167
1783170406176829700,1.88682958984375,-1.091903256547451,0.3481067507058382,0.7697334956526756
1783170406186899500,1.8968994140625,-1.0166852262169122,0.13906009564399718,1.1536503954082726
1783170406196970500,1.906970458984375,-0.7298901455640793,-0.204214412599802,1.490620835071802
1783170406207040500,1.91704052734375,-0.33543168578892946,-0.4342594320267439,1.5676859545737505
1783170406217111600,1.927111572265625,-0.017267068882286546,-0.5563374132096767,1.5046914460003376
1783170406227181300,1.937181396484375,0.1204486264154315,-0.5242144282400608,1.3252888185739515
1783170406237251600,1.94725146484375,0.26104922949969767,-0.3068441814690828,1.060733626779914
1783170406247322600,1.957322509765625,0.6007321429923176,-0.08411036183834075,0.8417705578595399
1783170406257392400,1.967392333984375,1.0219704731434582,0.11522270846068858,0.7031617131143808
1783170406267463400,1.97746337890625,1.3633832791686058,0.2243582059621811,0.7684919711589813
1783170406277533400,1.987533447265625,1.6244851156383753,0.3851753753840923,0.8418582361429929
1783170406287604500,1.9976044921875,1.897154640305042,0.6559171468585729,0.9126672178596258
1783170406297674500,2.007674560546875,2.0528128195285795,0.9571084171324967,1.1439309654265641
1783170406307744500,2.01774462890625,1.9715698298200963,1.1697978126108646,1.445392869335413
1783170406317815600,2.027815673828125,1.878368691292405,1.3146885141044855,1.8089988024681805
1783170406327885600,2.037885498046875,1.8091399645045398,1.673046609711647,2.0758102487564085
1783170406337956400,2.047956298828125,1.8054387718990443,2.329496840533614,2.306350358223915
1783170406348026600,2.058026611328125,1.9327862179175017,3.0881682594239708,2.7137685450762508
1783170406358096600,2.0680966796875,2.0121292192235587,3.5960154902309176,3.0224259134471416
1783170406368167700,2.078167724609375,2.064731513120234,3.950621539828181,2.8891075763255354
1783170406378237400,2.088237548828125,1.8233444309458136,3.8870559533685443,2.586338096949458
1783170406388308500,2.09830859375,1.355086867727339,3.4574101526170966,2.2086843492418526
1783170406398378500,2.10837841796875,0.8956342499941586,3.062256404054165,1.6667629993975162
1783170406408448500,2.118448486328125,0.3880430397748947,2.6936078005790707,1.2997837904393672
1783170406418519600,2.12851953125,0.05814604562893509,2.266498824828863,1.1258335831999777
1783170406428589600,2.138589599609375,0.025965046861767767,1.9161083471000193,0.891407572209835
1783170406438660600,2.14866064453125,-0.016713088261336086,1.6890075644314289,0.6480646797925234
1783170406448730400,2.15873046875,-0.12215572259426116,1.4817887093186377,0.5093354235380888
1783170406458801400,2.168801513671875,-0.1523743352472782,1.4245423890084028,0.4716460366129875
1783170406468871700,2.17887158203125,-0.15764511525705455,1.6234978581666946,0.4271417089760303
1783170406478941400,2.18894140625,-0.057761868616938584,1.8938497535407541,0.5636357535243034
1783170406489012500,2.199012451171875,0.03407294999361038,2.0565385620534418,0.7419885796368122
1783170406499082500,2.20908251953125,0.1981568661265075,1.9337246678113935,0.8593477156043052
1783170406509153500,2.219153564453125,0.5195370840787887,1.7233295207500456,0.8481453535884619
1783170406519223600,2.2292236328125,0.9838929636836051,1.5348480993330478,0.7675672575294971
1783170406529293600,2.23929345703125,1.3699801932156086,1.5023884297549723,0.6804027688175439
1783170406539364600,2.249364501953125,1.536555049381405,1.6030834311693907,0.6368962200462818
1783170406549434400,2.259434326171875,1.4834005284294485,1.7599708599269388,0.6111877782940864
1783170406559505400,2.26950537109375,1.4297190609939396,1.9819015464812515,0.4120458466529846
1783170406569575400,2.279575439453125,1.26152741728127,2.238014488622546,0.2025146229445934
1783170406579645700,2.289645751953125,1.0710080602958798,2.3502590580552813,0.06579027677178383
1783170406589716500,2.299716552734375,0.8880255285561084,2.356011337971687,-0.03361994552910328
1783170406599786500,2.309786376953125,0.8271469892233609,2.185444927951693,0.07293079617619513
1783170406609857500,2.319857421875,0.740496879774332,1.8443962790638206,0.4283393943279981
1783170406619927300,2.32992724609375,0.8349440728403628,1.4137725731909274,0.9023474838972091
1783170406629997600,2.33999755859375,1.0459481455802917,1.085630752149224,1.2419365816265344
1783170406640068600,2.350068603515625,1.0395954155527054,1.0383628050178288,1.6228484543472528
1783170406650138600,2.360138671875,1.0012279832355677,0.3327683117985725,1.52188223477602
1783170406660209400,2.37020947265625,0.9751070151597261,-0.18273615576326846,1.271706281468272
1783170406670279400,2.380279541015625,0.7743406971871852,-0.32051965560019013,1.3257429920822381
1783170406680349700,2.390349609375,0.6974835213474929,-0.3296311828166246,1.5199030436575411
1783170406690420700,2.400420654296875,0.6260726282149552,-0.47619653952419755,1.4969424393087625
1783170406700490500,2.410490478515625,0.5549189247138798,-0.4418938724279403,1.3682371489405631
1783170406710561500,2.4205615234375,0.513962937208265,-0.2675876913577318,1.3352940797597168
1783170406720631600,2.430631591796875,0.4797188684314489,0.013043605968356131,1.3728414278656242
1783170406730701600,2.44070166015625,0.5273696774005889,0.3820119429171085,1.3769640607535838
1783170406740772600,2.450772705078125,0.5170395681746304,0.7088064410030841,1.2499439469933509
1783170406750842600,2.460842529296875,0.5049949101157486,0.9280839827001094,1.0163415273457765
1783170406760913700,2.47091357421875,0.378061890117079,1.1597416980206965,0.7367804895997047
1783170406770983400,2.4809833984375,0.23847104859724638,1.269395666438341,0.42220016092061996
1783170406781053400,2.491053466796875,0.13290508014559746,1.2569359978377819,0.4027215534687042
1783170406791124500,2.50112451171875,-0.02903787843585014,1.2366788072288035,0.5177151293486356
1783170406801194500,2.511194580078125,-0.22134791823029518,1.2963719361692667,0.7805196780830621
1783170406811265500,2.521265625,-0.4030981316961348,1.4743477456629275,1.0911170746058225
1783170406821335600,2.53133544921875,-0.5542841339416802,1.5593898353934288,1.4282581946611403
1783170406831406600,2.541406494140625,-0.6611760903000832,1.524798999005556,1.7899644316524266
1783170406841476400,2.551476318359375,-0.7381364342533051,1.3357353937864302,2.0914485473930835
1783170406851546600,2.561546630859375,-0.8540875300537795,1.0262193627595901,2.2707412847042083
1783170406861617700,2.57161767578125,-0.8849486053287983,0.6804927851885557,2.2892098383307458
1783170406871687400,2.5816875,-0.922570918367058,0.28863106390833854,2.1566098786115644
1783170406881758500,2.591758544921875,-1.016243912190199,-0.09168635005056858,1.9506798942655323
1783170406891828500,2.601828369140625,-1.0628056838136166,-0.4263672174721956,1.737965364345908
1783170406901898500,2.6118984375,-1.0672626632224769,-0.712930242934823,1.5554793839514254
1783170406911969500,2.621969482421875,-1.0523766442578286,-0.9307534941703081,1.3686539130479096
1783170406922039600,2.63203955078125,-0.9366804730664938,-1.0132178423672913,1.2336159125268458
1783170406932109600,2.642109619140625,-0.8601298058927058,-1.0842542030990123,1.0397411076337097
1783170406942180600,2.6521806640625,-0.7576638492830097,-1.083316629987955,0.8113900326430797
1783170406952250400,2.66225048828125,-0.5890601176381111,-1.0185966127961874,0.604495002657175
1783170406962322400,2.672322509765625,-0.35877018353939055,-1.0099953731894493,0.4571159914791584
1783170406972392400,2.682392333984375,-0.16871223352067172,-0.9872878668189048,0.3098293347597122
1783170406982462500,2.69246240234375,-0.11215265336558222,-0.9554466214001178,0.10755261222422122
1783170406992533500,2.702533447265625,-0.1456943460267037,-0.953377998432517,-0.14253390923440457
1783170407002603300,2.712603271484375,-0.2671609903782606,-0.8755021470695733,-0.3135965783387422
1783170407012674300,2.72267431640625,-0.4991541481982916,-0.7449427532672882,-0.3791676594018936
1783170407022744300,2.732744384765625,-0.7949053463101386,-0.7139677692890167,-0.5951911677390337
1783170407032814300,2.742814453125,-0.9437987806390971,-0.7815811698347329,-0.8259025421202182
1783170407042885400,2.752885498046875,-0.8042701176352799,-0.9389636886328458,-1.1602549082398415
1783170407052955400,2.762955322265625,-0.5650760154604911,-1.2217092016339302,-1.5534452477753162
1783170407063026400,2.7730263671875,-0.16573942825496196,-1.493327171421051,-1.785433802485466
1783170407073096200,2.78309619140625,0.26404431966245173,-1.6276561468899249,-1.9000164594769477
1783170407083167200,2.793167236328125,0.47057636155486104,-1.5971996338278054,-1.9441186360538005
1783170407093237500,2.803237548828125,0.39622225457727905,-1.4135282430410385,-2.0176631802141665
1783170407103307300,2.813307373046875,0.20935827829428016,-1.2353081033974884,-2.004849291348457
1783170407113378300,2.82337841796875,0.06531622951924801,-1.1196966878801584,-2.0533950033307073
1783170407123448300,2.8334482421875,-0.061007061083242296,-1.1657160962551831,-2.4296920757323504
1783170407133518300,2.843518310546875,-0.25632395454347134,-1.3087222991764544,-2.8063182339578865
1783170407143589400,2.85358935546875,-0.13124503797888756,-1.5289140331089495,-2.0780366926342246
1783170407153659400,2.863659423828125,0.01109137592203915,-1.4568500828951596,-2.4821038154929873
1783170407163730400,2.87373046875,0.036459552869200704,-1.0777630875140427,-3.0177509073734283
1783170407173800400,2.883800537109375,0.11571546041369438,-0.6842787334680557,-3.1630303159236908
1783170407183870200,2.8938701171875,0.127994000293687,-0.30309038189351556,-3.0422862136930227
1783170407193941200,2.903941162109375,-0.04107318414449691,0.08612696235775948,-2.869242599904537
1783170407204011500,2.914011474609375,-0.1506020648777485,0.36351065606474875,-2.865699228209257
1783170407214082300,2.924082275390625,-0.2962960455782711,0.40061844370961186,-2.908543513679504
1783170407224152300,2.93415234375,-0.45548875560350716,0.22593641506433484,-2.9470459705531598
1783170407234222300,2.944222412109375,-0.6508459080088883,-0.12699556384086608,-2.9763118125259873
1783170407244293400,2.95429345703125,-0.9067033410191535,-0.5507166507184506,-2.9860224746793507
1783170407254363400,2.96436328125,-1.0668656997941435,-0.9996265393882989,-2.9628461817532776
1783170407264434400,2.974434326171875,-1.191629193734005,-1.5095435622066258,-2.9511989985793825
1783170407274504400,2.98450439453125,-1.3498761473417282,-1.909866822361946,-2.9468571699827906
1783170407284574200,2.99457421875,-1.4862830981284378,-2.1389672544151543,-2.881224714121222
1783170407294645200,3.004645263671875,-1.597510014951229,-2.1840841609925032,-2.731519305822253
1783170407304715500,3.014715576171875,-1.6467969006896017,-2.1258242797255513,-2.55227859095931
1783170407314786600,3.02478662109375,-1.70690913182497,-1.9662492193192243,-2.4023247608572245
1783170407324856300,3.034856201171875,-1.7288555906951426,-1.8485463844805954,-2.2968436942100525
1783170407334926300,3.04492626953125,-1.6980740834623573,-1.8369921402871607,-1.9636434207350015
1783170407344997400,3.054997314453125,-1.5575380700469017,-1.776349163275957,-1.810243834093213
1783170407355067100,3.065067138671875,-1.5541759001374245,-1.712659073653817,-1.8355922103613613
1783170407365138200,3.07513818359375,-1.4996218876510858,-1.7255735002845525,-1.803826368266344
1783170407375208400,3.08520849609375,-1.380511962493509,-1.774896041858196,-1.7513298728317022
1783170407385278500,3.095278564453125,-1.2573552461631596,-1.8037457042455671,-1.6384569423675537
1783170407395349200,3.105349365234375,-1.1811609181463718,-1.6888836457908152,-1.4822849684029817
1783170407405419300,3.115419189453125,-1.2242512873321771,-1.4614607915610074,-1.2888204978764057
1783170407415489500,3.125489501953125,-1.4151649043321608,-1.1810253090679645,-1.086574755001068
1783170407425560600,3.135560546875,-1.7557650788001715,-0.7997007638931274,-0.9566337853580713
1783170407435630300,3.14563037109375,-1.9975339998990296,-0.47780865089595315,-0.8309598255097865
1783170407445701400,3.155701416015625,-1.987577838551998,-0.21103169139921665,-0.7649988683462142
1783170407455771400,3.165771484375,-1.7559025875747203,0.0004594342052936554,-0.6866203281581401
1783170407465841400,3.17584130859375,-1.4906015458494424,0.15791034206449986,-0.5989537351429463
1783170407475912400,3.185912353515625,-1.2993728715509176,0.2911737341284752,-0.5176818116009235
1783170407485982500,3.195982421875,-1.1582084971040487,0.3840373112648725,-0.4631570252090692
1783170407496053500,3.206053466796875,-1.16529772471264,0.4139017036527395,-0.418611781039834
1783170407506123300,3.216123291015625,-1.3325924195855856,0.30601942108273505,-0.466055669260025
1783170407516193300,3.226193359375,-1.512536898803711,0.12803776637017728,-0.5575239926457405
1783170407526264300,3.236264404296875,-1.682114297786355,-0.027145196557044983,-0.5987766250103712
1783170407536334300,3.246334228515625,-1.905432054784894,-0.12810849351882933,-0.5717822351008653
1783170407546405400,3.2564052734375,-2.1129012313969433,-0.1677209574609995,-0.42141923967599865
1783170407556475400,3.266475341796875,-2.2280310008771718,-0.19858429775834083,-0.23452187258005142
1783170407566545200,3.276545166015625,-2.2727115618638694,-0.22873802848160266,-0.03806464997828007
1783170407576616200,3.2866162109375,-2.355877482458949,-0.23443302525281906,0.10030454079210757
1783170407586686500,3.2966865234375,-2.3395459408611057,-0.2690823138296604,0.22838848439157008
1783170407596757500,3.306757568359375,-2.2081408900149166,-0.2611608731806278,0.39180326909124846
1783170407606827300,3.3168271484375,-2.029103442639112,-0.17467209177315235,0.5631313111335039
1783170407616897300,3.326897216796875,-1.9652263060122728,-0.02371580663025379,0.8178180198639631
1783170407626968300,3.33696826171875,-1.888488518768549,-0.033821021059155465,0.9918962373971939
1783170407637038600,3.34703857421875,-1.785980330452323,-0.09217442582845688,1.0684008004069327
1783170407647108400,3.3571083984375,-1.6164906097531317,-0.16158172405362128,1.0921750592261552
1783170407657179400,3.367179443359375,-1.4549369427502155,-0.22603169213235377,1.1434890668779611
1783170407667249400,3.37724951171875,-1.276554452151805,-0.25005729536414145,1.1366864011257887
1783170407677320200,3.3873203125,-1.0745330195516347,-0.1770920123964548,1.1415396863758562
1783170407687390200,3.39739013671875,-0.8944580458216369,-0.08687807298600674,1.1056190626889466
1783170407697460500,3.40746044921875,-0.6891947086907922,0.04929214643537998,1.073228951215744
1783170407707531500,3.417531494140625,-0.49848596661314365,0.27800737856328483,1.0263339290499687
1783170407717601300,3.427601318359375,-0.3944564139485359,0.5365589460283517,0.9586088848233223
1783170407727672300,3.43767236328125,-0.42046719964817164,0.8448112407296895,0.7449538591831922
1783170407737742300,3.447742431640625,-0.5622071820259094,1.1947393616437911,0.5131020825952292
1783170407747812400,3.457812255859375,-0.7396553143836557,1.424969089987874,0.3828881412297487
1783170407757883400,3.46788330078125,-0.8275124615348876,1.3765315145552157,0.3589461246281862
1783170407767953400,3.477953369140625,-0.8288112691737711,1.2147633280187844,0.23251637797653674
1783170407778023200,3.488023193359375,-0.8615930103130638,1.0824866089046001,0.11063771875798702
1783170407788094200,3.49809423828125,-0.897847249868512,0.9792635503172874,0.037354455882310865
1783170407798164500,3.50816455078125,-0.9782575881451367,0.9871294613867998,-0.04217968408167362
1783170407808235500,3.518235595703125,-0.9893447993487119,1.2861854731976985,-0.0748936206817627
1783170407818305300,3.52830517578125,-0.9654892189215868,1.914495651206374,-0.22965806593596935
1783170407828375300,3.538375244140625,-1.162176158626005,2.7070816146582364,-0.22300796039700507
1783170407838446300,3.5484462890625,-1.644689114755392,3.3216268866866825,0.22632862925231456
1783170407848516400,3.558516357421875,-2.3305828822046517,3.4635838728159665,0.8384539806574582
1783170407858587400,3.56858740234375,-2.9795196686565872,3.0255776554763316,1.3282827396929264
1783170407868657400,3.578657470703125,-3.4613398932814596,2.0571470493406054,1.5326672481626271
1783170407878727400,3.5887275390625,-3.5824323705583807,0.9216723620921373,1.4755056835263967
1783170407888798500,3.598798583984375,-3.2993273765951394,-0.14289689732789992,1.3004746953129767
1783170407898868200,3.6088681640625,-2.820515686136484,-0.9774673145502805,1.0641472346156835
1783170407908938500,3.6189384765625,-2.4178975930422544,-1.5926596523106098,0.8365437631219625
1783170407919009500,3.629009521484375,-2.0921686783611775,-1.9789163931906222,0.6603986761867999
1783170407929079300,3.639079345703125,-1.8250246391177176,-2.128808848494291,0.6293278306186199
1783170407939150300,3.649150390625,-1.5033090517312286,-2.0316800151288508,0.7428156781107187
1783170407949220400,3.659220458984375,-1.126809661690518,-1.646529774186015,0.9125672646164894
1783170407959290400,3.669290283203125,-0.8703717984437942,-1.161458438810706,1.1185843427240847
1783170407969361700,3.679361572265625,-0.7740684561170638,-0.6428033982634545,1.258432958397269
1783170407979431700,3.689431640625,-0.7973406106330454,-0.05199088400006294,1.2728250563651322
1783170407989502700,3.699502685546875,-0.9092191232323646,0.5114490546911955,1.2358657372802495
1783170407999572500,3.709572509765625,-1.065955160820484,0.9907704482376575,1.156615090432763
1783170408009642500,3.719642578125,-1.1638561476022005,1.3340578159630299,1.1688742680251598
1783170408019713500,3.729713623046875,-1.1760628643549977,1.4986960049778222,1.1584575034290552
1783170408029783800,3.73978369140625,-1.1439327189922333,1.527311274087429,1.1248714601695537
1783170408039853600,3.749853515625,-1.1126192968398332,1.3930407508075235,1.1063631590545178
1783170408049924600,3.759924560546875,-1.1588823777776212,1.1453998689353466,1.0069283868342638
1783170408059994600,3.76999462890625,-1.1232920820236205,0.9743804544508456,0.8964274461984634
1783170408070065400,3.7800654296875,-1.065365305168554,0.771554865860939,0.8439303662419319
1783170408080135700,3.7901357421875,-1.0088438650667666,0.587139378708601,0.8370826923042536
1783170408090205700,3.800205810546875,-0.9483645541846751,0.4052168774157762,0.8040665578871965
1783170408100276700,3.81027685546875,-0.8173410500019789,0.2615840670287609,0.8189362102389335
1783170408110346500,3.820346435546875,-0.6773666890572756,0.11210837583243846,0.8412357203304767
1783170408120416800,3.830416748046875,-0.5354454318284988,-0.06445405973196029,0.7900216659218072
1783170408130487800,3.84048779296875,-0.3805522456280887,-0.19419629193246363,0.7312935826212167
1783170408140557600,3.8505576171875,-0.267081422336027,-0.30975159334838387,0.662511722818017
1783170408150628600,3.860628662109375,-0.25726678835153577,-0.4322364017665386,0.5693038622885942
1783170408160698600,3.87069873046875,-0.2294634201467037,-0.5547060126155614,0.5074579392284154
1783170408170768400,3.880768310546875,-0.24524273468926547,-0.6782768627047538,0.4444336200386286
1783170408180839400,3.89083935546875,-0.3206919434271753,-0.7565829221785068,0.3119417968690395
1783170408190909700,3.90090966796875,-0.4400216488152742,-0.7809446254968643,0.15578268238604068
1783170408200979700,3.910979736328125,-0.5904496723003685,-0.7286100426256656,-0.004254150313138962
1783170408211050500,3.921050537109375,-0.7224766544371843,-0.6772299840003252,-0.12470657612085341
1783170408221120500,3.93112060546875,-0.8281511978298425,-0.6497790824949741,-0.23499533531069755
1783170408231191600,3.941191650390625,-0.9740583828896283,-0.6473597463935613,-0.35715690312385556
1783170408241261800,3.95126171875,-1.0645703553985804,-0.6991326037287712,-0.4636258117645979
1783170408251331600,3.96133154296875,-1.0611229183584452,-0.7733388266682625,-0.6102186410009861
1783170408261402600,3.971402587890625,-1.059661029112339,-0.8340659748315811,-0.7307961544930934
1783170408271472600,3.98147265625,-1.0952620654560625,-0.930020503720641,-0.7877180651545524
1783170408281543400,3.99154345703125,-1.1467325788438318,-1.005361283648014,-0.8284615789532661
1783170408291613700,4.00161376953125,-1.2479581800036132,-1.1001298176229,-0.8483522743374109
1783170408301683700,4.01168359375,-1.3901760090261697,-1.145589254027605,-0.7958364896804094
1783170408311754800,4.021754638671875,-1.5822119080543517,-1.2509668603003024,-0.7644961795210838
1783170408321824500,4.031824462890625,-1.6800819151759148,-1.337379069340229,-0.7564186715275049
1783170408331894500,4.04189453125,-1.6981448106110095,-1.2525783871501683,-0.7946382198065519
1783170408341965600,4.051965576171875,-1.7383447190523147,-1.0604062945216894,-0.8073159150719642
1783170408352035600,4.06203564453125,-1.7948510346502065,-0.7482944017827511,-0.7084434529095888
1783170408362105600,4.072105712890625,-1.7945763093620537,-0.4099900831669569,-0.4528443055093288
1783170408372176600,4.0821767578125,-1.9385715233206748,-0.0837035346031189,-0.18173019359111786
1783170408382246400,4.092246337890625,-2.1062416273772717,0.16413783827722073,0.08409224165976047
1783170408392317400,4.1023173828125,-2.3448786801911887,0.13108780159056185,0.421409302803874
1783170408402387700,4.1123876953125,-2.5904963856726884,-0.08126607832312584,0.5729471872270107
1783170408412457700,4.122457763671875,-2.6946716304183003,-0.3681874157041311,0.6043453650534153
1783170408422528500,4.132528564453125,-2.699514394274354,-0.7093354333132506,0.48793607715666293
1783170408432598500,4.1425986328125,-2.6020290025562045,-0.9546692072868347,0.30779286049604415
1783170408442669600,4.152669677734375,-2.4235705241121352,-1.0910948627740145,0.1216267302840948
1783170408452739800,4.16273974609375,-2.3446564157426355,-1.1535241386801003,-0.003394318613409996
1783170408462809600,4.1728095703125,-2.3136510366261005,-1.0656085393399,-0.06295417656302452
1783170408472880600,4.182880615234375,-2.32752758628726,-0.8140145359277725,-0.02912204958796501
1783170408482950700,4.19295068359375,-2.3868312775187195,-0.4461474382191896,0.03049801411628723
1783170408493020400,4.2030205078125,-2.340777966874093,-0.06355506506562232,0.087463179397583
1783170408503091500,4.213091552734375,-2.2644312247745693,0.17681027284562587,0.1328209089934826
1783170408513161700,4.22316162109375,-2.24893145782575,0.3826660229116678,0.162522219774127
1783170408523232800,4.233232666015625,-2.3017628843031823,0.5686041895866394,0.21416998942494392
1783170408533302500,4.243302490234375,-2.485506317412853,0.6442097579300403,0.23237492367923257
1783170408543372500,4.25337255859375,-2.699236746376753,0.6333791518360375,0.18811784880161284
1783170408553443600,4.263443603515625,-2.81158945235908,0.5593932936489582,0.05774608652591705
1783170408563513600,4.273513671875,-2.8603467612653968,0.4194207593351602,-0.16222762074172495
1783170408573583600,4.28358349609375,-2.732733357787132,0.2839893755823374,-0.37877719877958294
1783170408583654700,4.293654541015625,-2.503355277836323,0.05639584096074104,-0.5849123503088951
1783170408593724700,4.303724609375,-2.3383768970817327,-0.1604044969677925,-0.8513497025877237
1783170408603795500,4.31379541015625,-2.1788317934222516,-0.30576632310450075,-1.0382780493438244
1783170408613865700,4.32386572265625,-2.150601578107476,-0.4147258795171976,-1.2063333533257246
1783170408623935700,4.333935791015625,-2.1928695249944923,-0.4832663317799568,-1.315856973361969
1783170408634006500,4.344006591796875,-2.1739707632571457,-0.5161936188697814,-1.2959317911863326
1783170408644076500,4.35407666015625,-2.1668108084999025,-0.573239448171854,-1.150496315291524
1783170408654146600,4.364146484375,-2.2430839008413255,-0.6031061786472797,-0.9982482367724179
1783170408664217600,4.374217529296875,-2.239689143836498,-0.6520522881239652,-0.8988590572595596
1783170408674287600,4.38428759765625,-2.1013656919039785,-0.6680179190188646,-0.5990466741234064
1783170408684357600,4.394357666015625,-1.886759503018856,-0.4585439784556627,-0.400103479924798
1783170408694428700,4.4044287109375,-1.754195637526363,-0.2288058330208063,-0.26504852826893327
1783170408704498400,4.41449853515625,-1.6930442726016044,0.0000678045392036438,-0.15258125599622727
1783170408714569500,4.424569580078125,-1.7263890544511378,0.13293839789330958,-0.10310849229693413
1783170408724639700,4.4346396484375,-1.886612203502655,0.08268120581805706,-0.03245791601240635
1783170408734709500,4.44470947265625,-2.0706962667435405,-0.00956979237794876,0.07252806059420108
1783170408744780500,4.454780517578125,-2.167942589008808,-0.03771919754147529,0.14793255340754985
1783170408754850600,4.4648505859375,-2.1972679060839115,-0.05835866546630859,0.18322949223816393
1783170408764920800,4.4749208984375,-2.088443958749622,-0.04357376878857613,0.21026538320183752
1783170408774991600,4.48499169921875,-1.8716658326528965,-0.051953474599123,0.2754085942417383
1783170408785061600,4.4950615234375,-1.7075193726778028,-0.04392039026916027,0.3653413786232471
1783170408795131600,4.505131591796875,-1.646293773473054,-0.07391922269165516,0.35371231562793254
1783170408805202700,4.51520263671875,-1.564238444468379,-0.14470891518592835,0.283156431889534
1783170408815272400,4.5252724609375,-1.4566513454526662,-0.24788170489072797,0.1963853264093399
1783170408825343500,4.535343505859375,-1.2605800534285605,-0.2934931169867515,0.046298225316405296
1783170408835413800,4.545413818359375,-0.9977747740417718,-0.32320378011763096,0.028736265140771863
1783170408845483500,4.5554833984375,-0.8312496022365987,-0.37940205267965793,-0.016752981880307195
1783170408855554600,4.565554443359375,-0.8286223224729299,-0.3976619319915771,-0.058085693743824954
1783170408865624600,4.57562451171875,-0.7991565740138292,-0.31705460983812805,-0.06736614778637885
1783170408875694600,4.585694580078125,-0.7480358969770371,-0.18559505232572554,-0.015690321084856986
1783170408885765600,4.595765625,-0.6111351713240146,-0.05464578242301941,0.09057751202583313
1783170408895835600,4.605835693359375,-0.4335357939273119,0.005519640204310417,0.1568272230029106
1783170408905906700,4.61590673828125,-0.31094635609090326,0.009871990194916724,0.19608722024559974
1783170408915976400,4.6259765625,-0.2388828442685306,0.010815408524870871,0.37038229539990425
1783170408926046700,4.636046630859375,-0.3232398743443191,0.03398702527582645,0.5545172120451927
1783170408936117800,4.64611767578125,-0.5944732287280261,0.08157762849032879,0.6694464905172586
1783170408946187500,4.6561875,-0.8278998534172773,0.08620295020341873,0.6840542770624161
1783170408956257500,4.666257568359375,-0.8820300875335931,0.015201076263189315,0.6198024619042873
1783170408966327600,4.67632763671875,-0.7571347108423709,-0.1539163039922714,0.24360768083333967
1783170408976397600,4.6863974609375,-0.3869716111510992,-0.29684008932709693,-0.20157704983353614
1783170408986467600,4.696467529296875,-0.012159955001622438,-0.1330734224498272,-0.4266290832787752
1783170408996538600,4.70653857421875,0.12980053825899956,0.20181144311130045,-0.6609457886755467
1783170409006608600,4.716608642578125,0.012076222240924835,0.6865922711074351,-0.7135182719558477
1783170409016679400,4.726679443359375,-0.22647315228953957,1.199206277924776,-0.5968593932121992
1783170409026749700,4.736749755859375,-0.44355800624787806,1.600266620182991,-0.566145105996728
1783170409036819700,4.74681982421875,-0.6324193668931722,1.7162538832753895,-0.5923842936247586
1783170409046890500,4.756890380859375,-0.9721754917524754,1.487539820191264,-0.49531566601395605
1783170409056960500,4.76696044921875,-1.214921587320417,1.0266823040962219,-0.8791606695771217
1783170409067030800,4.77703076171875,-1.2246224587321282,0.4462871389508247,-1.282961834976077
1783170409077101800,4.787101806640625,-1.223099633079022,-0.11509586721062659,-1.4663929872661827
1783170409087171600,4.797171630859375,-1.1394812925413251,-0.7116390340805053,-1.6129840629369019
1783170409097241600,4.80724169921875,-0.9054794983126223,-1.2091595166623592,-1.7628548909306525
1783170409107312600,4.817312744140625,-0.49087271513044833,-1.5577531741023063,-1.917308370539546
1783170409117382400,4.82738232421875,-0.13110139172449709,-1.8194757728189228,-1.8943121103554963
1783170409127453400,4.837453369140625,0.02909267736300826,-1.7444488811463117,-1.762370906805992
1783170409137523700,4.847523681640625,0.153925510212034,-1.500697407928109,-1.5525959374696015
1783170409147593500,4.857593505859375,0.18022972590029238,-1.1246949345588684,-1.319400345057249
1783170409157664500,4.86766455078125,0.5118175957426429,-0.6965969477713108,-1.2087918523937462
1783170409167734500,4.877734619140625,2.211101054994762,-0.5209878674089908,-1.4895534981012344
1783170409177804800,4.8878046875,3.591192600119114,-0.5818342580378055,-1.7165572501361368
1783170409187875600,4.89787548828125,4.185440934050083,-0.12474106291234492,-1.5245032309293747
1783170409197945600,4.907945556640625,3.988973774576187,0.2899035680621862,-1.1976274843007326
1783170409208015600,4.918015625,3.500935406088829,0.23365911827087402,-0.5842091704756022
1783170409218086700,4.928086669921875,2.7758330793231725,0.4234288259327411,-0.46123453271389003
1783170409228156700,4.93815673828125,1.9229583591252564,0.6818781020671129,-0.1599813031196594
1783170409238227700,4.948227783203125,1.09045013512969,0.9644593644171953,0.4018897788196802
1783170409248297700,4.958297607421875,0.45283371105007825,1.1967495324224233,1.329648767349124
1783170409258367500,4.968367431640625,0.24874847778789697,1.4428420158088207,2.121507585570216
1783170409268438500,4.9784384765625,0.16013262122385202,1.633176371616125,2.497164606502652
1783170409278508500,4.988508544921875,0.20968729105293749,1.8625304861694574,2.792589568334818
1783170409288578600,4.99857861328125,0.3551273700576275,2.2034067010998726,2.98813084513545
1783170409298649600,5.008649658203125,0.5061450299989432,2.4711639038056132,3.12478037250638
1783170409308719600,5.0187197265625,0.4895096100836992,2.6019395707070827,3.0855145300447937
1783170409318789600,5.02878955078125,0.3342027285158634,2.6026795754194256,2.8743127427756785
1783170409328860400,5.0388603515625,0.1411415780931711,2.461372577631473,2.6245102989554403
1783170409338930700,5.0489306640625,0.04116678071208298,2.140610929968953,2.3929577975749967
1783170409349001700,5.059001708984375,-0.05019296773262322,1.857171004962921,2.173599007335305
1783170409359071500,5.069071533203125,-0.13033902904987335,1.5633587390244006,2.0456413204640147
1783170409369141500,5.0791416015625,-0.22154365999810396,1.3913772015094756,1.99895088095963
1783170409379212500,5.089212646484375,-0.32452889124155043,1.2682137631773949,2.0067589243620634
1783170409389282800,5.09928271484375,-0.39395131397061045,1.1427046385020017,2.083374546530843
1783170409399352600,5.1093525390625,-0.3500186487417668,1.195050911810994,2.077851399195194
1783170409409423600,5.119423583984375,-0.36776590235643086,1.314648182094097,2.094414995983243
1783170409419493600,5.12949365234375,-0.3344125718742609,1.380192375150323,2.1046400373995304
1783170409429563600,5.139563720703125,-0.26473646664507683,1.4099685047328472,2.089140270450711
1783170409439634700,5.149634765625,-0.2305927164375782,1.4877946717351673,2.079789089259505
1783170409449704700,5.15970458984375,-0.22764964872300625,1.5973025096803903,2.1135896520525215
1783170409459774500,5.1697744140625,-0.3417062360137701,1.6512667395800351,2.0005612387657163
1783170409469845500,5.179845458984375,-0.4204682225614786,1.5334768109798431,1.841236353728175
1783170409479915500,5.18991552734375,-0.3799959269195795,1.4363123217791318,1.6717220831096171
1783170409489986600,5.199986572265625,-0.24091836868412791,1.2807429898828266,1.529944545200467
1783170409500056600,5.210056640625,-0.15768230546228587,1.113197973510623,1.376930158483982
1783170409510126600,5.220126708984375,-0.0804132608860731,0.9062591043829917,1.3108780159056186
1783170409520197600,5.23019775390625,-0.014167641562223434,0.6892319719612598,1.2519015108019114
1783170409530267600,5.240267578125,0.08607369780056177,0.4602794239461422,1.1907377247869968
1783170409540337700,5.250337646484375,0.17910393674075603,0.3123813573300838,1.1362006634354591
1783170409550408700,5.26040869140625,0.2352799244057387,0.15808394506573675,1.1144693086206912
1783170409560478700,5.270478759765625,0.24193887083828447,0.007663666495680808,1.0646353103935717
1783170409570548500,5.280548583984375,0.26498021227307617,-0.11529051299989222,1.0060790765285492
1783170409580619500,5.29061962890625,0.26505970725007355,-0.1931476596623659,0.9147884477972984
1783170409590689500,5.300689453125,0.29203707295954223,-0.20001053116917608,0.8928075021356344
1783170409600759600,5.310759521484375,0.35034320452101525,-0.15132570297718048,0.8511012807846069
1783170409610830600,5.32083056640625,0.3367524860639125,-0.08157353683710097,0.8813052803903818
1783170409620899600,5.330899658203125,0.33529001229591665,-0.0987742624849081,0.8667308115929364
1783170409630969600,5.340969482421875,0.3540291995573789,-0.018051789519190786,0.8542226276755333
1783170409641039600,5.35103955078125,0.37713703035712237,0.14239479302465916,0.7631248911678791
1783170409651110700,5.361110595703125,0.38423787533827125,0.3470627946108579,0.6810428202867508
1783170409661180400,5.371180419921875,0.343566257731989,0.5454886869370937,0.6479588813304901
1783170409671250700,5.381250732421875,0.32917299072034656,0.648309594464302,0.6126531746715307
1783170409681321700,5.39132177734375,0.3366151234198361,0.7338105338782072,0.5024368961960077
1783170409691391700,5.401391845703125,0.2950847700923681,0.8713596404373646,0.4639344393223524
1783170409701461500,5.41146142578125,0.1496949599701911,0.9684341132670641,0.4204939415246248
1783170409711532500,5.421532470703125,0.04006371484100819,1.0577180783510207,0.3483434820711612
1783170409721602600,5.4316025390625,-0.060003436998650427,1.1333803453177214,0.3220727302610874
1783170409731672600,5.441672607421875,-0.16712182252407073,1.2964052539169788,0.22459084567427634
1783170409741743600,5.45174365234375,-0.27531214812994004,1.4904694439023731,0.15699556530714034
1783170409751813600,5.461813720703125,-0.3646018853675574,1.7606395529687404,0.10289689537286757
1783170409761883400,5.47188330078125,-0.4446580764442682,1.9988269623190162,0.09345569781064987
1783170409771954400,5.481954345703125,-0.5253880751293152,2.1943588867694137,0.04618248998224735
1783170409782024700,5.492024658203125,-0.5974222877919674,2.2314883017241955,-0.05648936446309089
1783170409792095700,5.502095703125,-0.6044728638906032,2.0671780294895172,-0.29273849922716616
1783170409802165500,5.51216552734375,-0.5800028778921812,1.7712813584923743,-0.5069003053456544
1783170409812235500,5.522235595703125,-0.6173304457675666,1.4485621470212935,-0.730340227419138
1783170409822306600,5.532306640625,-0.7174941167842597,1.01435824457407,-0.9860200388401746
1783170409832376800,5.542376953125,-0.7261111384820192,0.551651885741949,-1.2236176656037567
1783170409842446600,5.552446533203125,-0.7890191378157585,0.09450608364641666,-1.3905226305067537
1783170409852517600,5.562517578125,-0.8233943586915731,-0.4062041348874569,-1.5385785180330276
1783170409862587600,5.572587646484375,-0.8159528105139732,-0.8945710046768188,-1.6749270166307686
1783170409872657700,5.58265771484375,-0.9003419892936945,-1.3035861053317785,-1.796920242139697
1783170409882728700,5.592728759765625,-0.8981758242357522,-1.5998124466747043,-1.9345798233360052
1783170409892798700,5.602798828125,-0.8286818706404417,-1.8628478815555571,-2.0711627152115106
1783170409902868500,5.612868408203125,-0.7488104615461081,-2.1355822881519795,-2.1489731001228094
1783170409912939500,5.622939453125,-0.5967307983964681,-2.2566876249104735,-2.195326270496845
1783170409923009500,5.633009521484375,-0.47430962979905306,-2.257021386909485,-2.2238895171582698
1783170409933079800,5.643079833984375,-0.41484387987367805,-2.174339596569538,-2.1268682358205315
1783170409943150600,5.653150634765625,-0.3721176678251475,-2.053364023670554,-1.918408440735936
1783170409953220600,5.663220703125,-0.35986433545164764,-1.8713626119226217,-1.734365878549218
1783170409963290600,5.67329052734375,-0.3563812425762415,-1.6587924589097498,-1.559646440503001
1783170409973362400,5.683362548828125,-0.40231238814592357,-1.3303244746536016,-1.408894738021493
1783170409983432200,5.69343212890625,-0.36210714594237503,-1.0022662402421236,-1.25056120210886
1783170409993502500,5.70350244140625,-0.24627543873786925,-0.8024760738253593,-1.218788930273056
1783170410003575300,5.7135751953125,0.013934417328238486,-0.5843319200724363,-1.1225520773112774
1783170410013646300,5.723646240234375,0.05675941357612609,-0.5636971283227205,-1.1200953318089246
1783170410023716400,5.73371630859375,0.0887404327917844,-0.601385930725932,-1.171514553400874
1783170410033786400,5.743786376953125,0.09425357019007205,-0.6764741971969604,-1.2098171037882566
1783170410043857400,5.753857421875,0.08352525542676448,-0.7894213619410991,-1.2463514754593372
1783170410053927400,5.763927490234375,-0.04606792369186878,-0.979260627707839,-1.2813643366515635
1783170410063997200,5.7739970703125,-0.26387656188011166,-1.1385802520483732,-1.3633376864612101
1783170410074068200,5.784068115234375,-0.34137649260275066,-1.3077391333580017,-1.3946838418394327
1783170410084138500,5.794138427734375,-0.37302667242884635,-1.5154156691104173,-1.4602987620443104
1783170410094208300,5.804208251953125,-0.29446166975796223,-1.663788367500901,-1.4964128624767064
1783170410104279300,5.814279296875,-0.14358546411395073,-1.7808190021663903,-1.5080693980008364
1783170410114349300,5.824349365234375,-0.050708004582673306,-1.8204449101120233,-1.4819950455456972
1783170410124419300,5.83441943359375,-0.04888166593834758,-1.733202095466852,-1.4051824395000934
1783170410134490400,5.844490478515625,-0.12583528788983822,-1.5893454131960867,-1.2528525279164313
1783170410144560400,5.854560302734375,-0.208958976778388,-1.3929413820862768,-1.0477280147343873
1783170410154630400,5.86463037109375,-0.3400457554556429,-1.2313766091674565,-0.7931155402839183
1783170410164701400,5.874701416015625,-0.5374117634654044,-1.0889777244895695,-0.5595283182054758
1783170410174771200,5.884771240234375,-0.6822399211168289,-0.9262263721346855,-0.32248014201819897
1783170410184842200,5.89484228515625,-0.7949608758896589,-0.7864806323140859,-0.11378303104639052
1783170410194912500,5.90491259765625,-0.8629383605074137,-0.6864104847997426,0.11271394051015377
1783170410204982300,5.914982177734375,-0.844856102784723,-0.5927858601629734,0.2532102064371109
1783170410215053300,5.92505322265625,-0.8061221752427518,-0.5122942733436823,0.34118542701005933
1783170410225123300,5.935123291015625,-0.8792218982450664,-0.40824294723868365,0.3945253875315189
1783170410235193300,5.945193359375,-1.0093068064033985,-0.37139234922528264,0.49019233165085313
1783170410245264400,5.955264404296875,-1.1451555387854575,-0.3320049262106418,0.5231856697142124
1783170410255334400,5.96533447265625,-1.2581541414558888,-0.3365080828487873,0.5266337643414736
1783170410265404400,5.975404296875,-1.2640773940250276,-0.31583821978569027,0.4765560204863548
1783170410275475200,5.98547509765625,-1.1722913829922676,-0.2625233937054872,0.4107236581385135
1783170410285545500,5.99554541015625,-1.0056494529396296,-0.21878303617835043,0.33486031564176083
1783170410295615500,6.005615478515625,-0.7992512665599584,-0.16828326751887798,0.24877894599139688
1783170410305686500,6.0156865234375,-0.6003524960249662,-0.12660393417477606,0.1801858867585659
1783170410315756300,6.02575634765625,-0.4239603024609387,-0.08169336382448673,0.07012450658380985
1783170410325826300,6.035826416015625,-0.27583821783065793,0.005813654714822769,-0.09093640846610068
1783170410335897300,6.0458974609375,-0.23246318648457526,0.1850871028035879,-0.19095394901037216
1783170410345967400,6.05596728515625,-0.2664898861836642,0.5149240373253822,-0.25355156722068783
1783170410356037400,6.066037353515625,-0.36619010440707206,0.8804296665996313,-0.21504501869380474
1783170410366108400,6.0761083984375,-0.4567420436002314,1.1750690310120582,-0.17470716308653353
1783170410376178200,6.08617822265625,-0.561972788748145,1.4601912100166081,-0.21790625334382055
1783170410386248400,6.09624853515625,-0.6289676920693368,1.5975655445307493,-0.15476912142932414
1783170410396319500,6.106319580078125,-0.5710042364656925,1.6231582509487867,-0.19623510428369045
1783170410406389500,6.116389404296875,-0.3541613745696843,1.824341333028674,-0.5477922877043485
1783170410416459300,6.126459228515625,-0.17968802023902533,2.1111147863715884,-0.6591776099592447
1783170410426530300,6.1365302734375,-0.13211305298507212,2.444698506206274,-0.7422118669986725
1783170410436600300,6.146600341796875,-0.2637674024172127,2.6798914099156854,-0.6451560988694429
1783170410446670300,6.15667041015625,-0.49694538610763844,2.7922750955581663,-0.5146083955049514
1783170410456741400,6.166741455078125,-0.8135697878349571,2.6614018135011195,-0.1425800864636898
1783170410466811400,6.176811279296875,-0.9656183982592076,2.1698604053288695,0.46409401379823684
1783170410476881200,6.186881103515625,-0.7627051313858478,1.5412930376887322,1.1336661765217781
1783170410486952200,6.1969521484375,-0.5327133765161037,0.8896294566214085,1.8476999967843293
1783170410497022500,6.2070224609375,-0.2559234839837998,0.4022118503808975,2.293254145285487
1783170410507092500,6.217092529296875,-0.014339490997791289,0.0958902314811945,2.585472420030832
1783170410517163300,6.227163330078125,0.12067980482280254,-0.1736287202000618,2.7002386168956756
1783170410527233300,6.2372333984375,0.19376542623452842,-0.37128830432891846,2.562603585618734
1783170410537303600,6.247303466796875,0.13572715182900427,-0.5904319905132055,2.2477117067724466
1783170410547374300,6.257374267578125,-0.013167597674205899,-0.8115747415602207,1.9317472302585839
1783170410557444400,6.2674443359375,-0.12067045247256755,-0.9579507131755352,1.5652520054250956
1783170410567514400,6.277514404296875,-0.18262326997332273,-0.8906623068004846,1.1973059972614049
1783170410577585400,6.28758544921875,-0.09194003255069255,-0.6073451313912868,0.894790784907341
1783170410587655400,6.297655517578125,-0.019544146968796847,-0.15549042144119737,0.6260048236757516
1783170410597726500,6.3077265625,0.014913564558699726,0.35521921305954457,0.5338596239417791
1783170410607796500,6.31779638671875,-0.012350363007187842,0.8172159623175859,0.41112756276428697
1783170410617866200,6.3278662109375,-0.014989479339122772,1.2087094348073004,0.32698914387524125
1783170410627937300,6.337937255859375,-0.0014238222580403089,1.5786784732311963,0.3005599866330623
1783170410638007300,6.34800732421875,-0.041186581391096114,1.8668454267591237,0.3048983080983162
1783170410648077300,6.358077392578125,-0.19701544100642204,1.9960195036828516,0.3323866190046072
1783170410658148400,6.3681484375,-0.28086159895062446,2.002623431992531,0.4179524403482675
1783170410668218400,6.37821826171875,-0.38386129711084066,1.921498807966709,0.5669254427194595
1783170410678288400,6.388288330078125,-0.558912889720872,1.7922469896316526,0.7541682622522116
1783170410688359200,6.398359130859375,-0.7259200728893279,1.5612351709991692,0.9562994388371705
1783170410698429400,6.408429443359375,-0.7797014205027372,1.27834937274456,1.05147187743783
1783170410708499500,6.41849951171875,-0.8033540257036685,0.9391220940649508,1.0947539698034525
1783170410718570500,6.428570556640625,-0.7444101807605474,0.6075888770192861,1.1268149954527615
1783170410728640300,6.43864013671875,-0.691311116322875,0.33974808768332004,1.1604600754231214
1783170410738710500,6.44871044921875,-0.6215010825157166,0.14014146113991738,1.1534002200394868
1783170410748781600,6.458781494140625,-0.551495233875513,0.006637246057391166,1.1295675090312958
1783170410758851300,6.468851318359375,-0.5386638093531131,-0.12714403240084649,1.135190025088191
1783170410768921300,6.47892138671875,-0.4643010806776583,-0.28426994608938694,1.0841595105528832
1783170410778992400,6.488992431640625,-0.28425884017348285,-0.3839829507291317,1.0564274540185927
1783170410789062100,6.499062255859375,-0.13181553134322166,-0.46823827399611473,0.9994289709895848
1783170410799132400,6.50913232421875,0.054029257959872484,-0.5376005640357733,0.9149182116568088
1783170410809203500,6.519203369140625,0.29574235721826553,-0.5665455034911632,0.8529927936196326
1783170410819273500,6.5292734375,0.42478031360693275,-0.5539256758928298,0.8679267433792353
1783170410829343200,6.53934326171875,0.47072081152684986,-0.5003174198240041,0.8931547081381082
1783170410839414300,6.549414306640625,0.5405694237787276,-0.4427496124744415,0.8679039470255374
1783170410849484500,6.559484619140625,0.5987602583974599,-0.37689094664156436,0.8114309491753577
1783170410859554300,6.56955419921875,0.6747473734043539,-0.30431027907729147,0.7424614578455686
1783170410869625300,6.579625244140625,0.754649469897896,-0.23482640848457811,0.6287450622946024
1783170410879695400,6.5896953125,0.8069220934487878,-0.21961422630548477,0.4793272387653589
1783170410889765400,6.599765380859375,0.7940725487478077,-0.21391046170592307,0.3142681939899921
1783170410899836400,6.60983642578125,0.7556994173422455,-0.26859306900799274,0.13194120354950428
1783170410909906400,6.619906494140625,0.6841115602076053,-0.3136725661844015,-0.036276012995839116
1783170410919976400,6.6299765625,0.6853221050411462,-0.41741175760030746,-0.10395137286186218
1783170410930047200,6.640047119140625,0.685980861210823,-0.5472621263504028,-0.22719196808338163
1783170410940117200,6.6501171875,0.683156305309385,-0.696663583266735,-0.32402211076319215
1783170410950187500,6.6601875,0.7165886193118989,-0.8268681722819805,-0.4192909954756498
1783170410960258300,6.67025830078125,0.7058340010635554,-0.9120581460505723,-0.5533692110538483
1783170410970328300,6.680328369140625,0.6212099906146527,-0.990687446129322,-0.7501181100785732
1783170410980398000,6.690398193359375,0.5250220913611352,-1.0179448708891867,-0.9619617023825645
1783170410990469000,6.70046923828125,0.4358943397521972,-1.0279992319136857,-1.0893038877040147
1783170411000539400,6.710539306640625,0.35012919644415375,-0.9961392817944288,-1.242612288931012
1783170411010609200,6.720609130859375,0.24170155495107173,-0.97399934617877,-1.327145844617486
1783170411020680200,6.73068017578125,0.10619491400495171,-0.9305226080238819,-1.3581500546902416
1783170411030750200,6.740750244140625,0.017453385234624145,-0.8714198461920022,-1.3976923760056494
1783170411040820200,6.7508203125,-0.06624328123629093,-0.8261129700005054,-1.4897341153651475
1783170411050891300,6.760891357421875,-0.1350588971786201,-0.7588152112752199,-1.6045874059915541
1783170411060961300,6.770961181640625,-0.10966901985630392,-0.5976899988174438,-1.7717045523405075
1783170411071031300,6.78103125,-0.02004500916302204,-0.3874100025683641,-1.9810078125119208
1783170411081102000,6.79110205078125,0.046712212944775816,-0.10060907669663428,-2.0295938565045595
1783170411091172000,6.801172119140625,0.05585523127801716,0.20398235740959644,-2.029709591838717
1783170411101242400,6.811242431640625,0.012597615766525268,0.44135260515809055,-2.0737275972634555
1783170411111313400,6.8213134765625,-0.06898483502939343,0.5371206715643405,-2.0174784712970255
1783170411121383200,6.831383056640625,-0.1485181712757796,0.45667643101811406,-1.9325784203857181
1783170411131453200,6.841453125,-0.21002982088029384,0.2914730093359947,-1.9147464110970496
1783170411141524200,6.851524169921875,-0.31154388359263535,0.15730010121166704,-1.8819617473483083
1783170411151594200,6.86159423828125,-0.44011458779573437,0.0571861145555973,-1.8227192847847937
1783170411161664300,6.871664306640625,-0.5279881015598774,0.03387479707300663,-1.6992781985551118
1783170411171735300,6.8817353515625,-0.7475134805381297,0.03186111916303634,-1.5638023911386727
1783170411181805000,6.89180517578125,-0.8732061450868844,-0.04376490744650364,-1.4476935474932193
1783170411191875300,6.901875244140625,-0.9737725516855716,-0.27636604109704493,-1.30348965921998
1783170411201946400,6.9119462890625,-1.0313789374798537,-0.6323603301823139,-1.2512234654098748
1783170411212016400,6.922016357421875,-1.0109183332532643,-1.0653852519780396,-1.1862719775497912
1783170411222086100,6.932086181640625,-0.9660323128223418,-1.460602128905058,-1.1677198372930289
1783170411232156200,6.94215625,-0.9768506439566612,-1.7491846774965523,-1.1743529916971922
1783170411242227200,6.952227294921875,-1.1099147140562533,-1.8884031785726547,-1.1109341202318668
1783170411252297200,6.962297119140625,-1.186482916886732,-1.9123054476857184,-0.9624602995544671
1783170411262367200,6.9723671875,-1.2670406277447939,-1.8117858028382061,-0.839621855393052
1783170411272438300,6.982438232421875,-1.3697095595806836,-1.6511971814751625,-0.7094763030886649
1783170411282508000,6.992508056640625,-1.420885473936051,-1.3822721040338277,-0.5435737932264805
1783170411292578300,7.002578369140625,-1.616746045818925,-1.0092734886556862,-0.436885104355216
1783170411302649300,7.0126494140625,-1.8917039736837147,-0.6772510267883539,-0.3722147715240717
1783170411312719400,7.02271923828125,-2.184060195595026,-0.41629181365966794,-0.32275428278446194
1783170411322789000,7.0327890625,-2.343338903403282,-0.22220891897380352,-0.30867782663702964
1783170411332860200,7.042860107421875,-2.400488193079829,-0.10485738179087638,-0.28208149613440037
1783170411342930400,7.052930419921875,-2.476322894003987,-0.07575403690338134,-0.2641711609125137
1783170411353000200,7.063000244140625,-2.5983102742940187,-0.0841869342058897,-0.2633843944489956
1783170411363071200,7.0730712890625,-2.6777953144192694,-0.15456278520226477,-0.22412498172819614
1783170411373141200,7.083141357421875,-2.7620594055145977,-0.2787690105855465,-0.26589550048708915
1783170411383211000,7.0932109375,-2.9624218188613654,-0.4896674309939146,-0.27057518273591996
1783170411393282000,7.103281982421875,-3.1632688008546825,-0.591501665571332,-0.3436474332094192
1783170411403352300,7.113352294921875,-3.464237952810526,-0.7258686349630356,-0.3093593791604042
1783170411413422300,7.12342236328125,-3.7212457979649303,-0.7726210337877273,-0.29530513484477994
1783170411423493000,7.1334931640625,-3.8506507610350846,-0.783546916949749,-0.26540391757786275
1783170411433563100,7.143563232421875,-3.956172159692645,-0.9238193109929561,-0.27802549874186516
1783170411443633400,7.15363330078125,-3.9953170061230656,-0.9593804537177085,-0.38713001658320423
1783170411453704200,7.1637041015625,-4.015705714157224,-0.9019026627391576,-0.4810305355519056
1783170411463774200,7.173774169921875,-4.177452273383737,-0.7111153024673461,-0.5357803628712893
1783170411473844200,7.18384423828125,-4.303914753261208,-0.42891982456445693,-0.4140016568958759
1783170411483915300,7.193915283203125,-4.278645871970057,-0.28229952279925347,-0.31077742926478386
1783170411493985300,7.2039853515625,-4.214099457779526,-0.274743408331275,-0.25836568950414657
1783170411504055300,7.21405517578125,-4.110166789618134,-0.3435270217001438,-0.20835107401311395
1783170411514126300,7.224126220703125,-4.091178596031666,-0.42659284292161465,-0.27565000178217886
1783170411524196000,7.234196044921875,-4.06084541708827,-0.5110059870988131,-0.33632629654109475
1783170411534266000,7.24426611328125,-4.024212261217833,-0.49286651929616926,-0.4189519727796316
1783170411544337200,7.254337158203125,-3.9722488497465847,-0.44550797127187247,-0.44213411092460153
1783170411554407200,7.2644072265625,-3.948706061595678,-0.3996095589280128,-0.4343886113643646
1783170411564477200,7.274477294921875,-3.9946296083807944,-0.33272739526629447,-0.4879869305610656
1783170411574548200,7.28454833984375,-4.046459748861193,-0.31732582799494263,-0.567635052293539
1783170411584618200,7.2946181640625,-4.087098633241653,-0.2846457936644554,-0.5995096154600381
1783170411594688300,7.304688232421875,-4.156024869951605,-0.2329758121818304,-0.5337655159175395
1783170411604759300,7.31475927734375,-4.1456244719684125,-0.24264614232480525,-0.4787865560173988
1783170411614829300,7.324829345703125,-4.1108728920608755,-0.2433931612998247,-0.49781741970181465
1783170411624899000,7.334899169921875,-4.104529660513997,-0.23326222790777681,-0.7129623916387557
1783170411634969300,7.34496923828125,-4.228535394889116,-0.30393150889277454,-0.9975158308446407
1783170411645040400,7.355040283203125,-4.22711208408773,-0.46612288927733897,-1.3514789063632489
1783170411655110100,7.365110107421875,-4.150651360219717,-0.545378212299943,-1.3730372426986694
1783170411665180200,7.37518017578125,-3.929962782680988,-0.3529512681275606,-1.2449334253549575
1783170411675251200,7.385251220703125,-3.7100329145550726,0.023083353945612905,-1.050104680737853
1783170411685321200,7.3953212890625,-3.53426075258553,0.3936462666094303,-0.8784405386090278
1783170411695391200,7.40539111328125,-3.3521938743859527,0.6521364592760801,-0.762858349186182
1783170411705462300,7.415462158203125,-3.3244875368148086,0.7591220852673053,-0.7258148589491844
1783170411715532300,7.4255322265625,-3.5185938123762606,0.725548901489377,-0.9576087678700685
1783170411725602000,7.43560205078125,-3.6410599160939454,0.7338830145925282,-1.1600602624505758
1783170411735673000,7.445673095703125,-3.440475384429097,1.1273130081027745,-1.1784230176150798
1783170411745743400,7.455743408203125,-3.4522464862436055,1.6706196748256683,-0.985209891501069
1783170411755813000,7.465813232421875,-3.5473037740319966,2.002324741306901,-0.56962885645926
1783170411765884200,7.47588427734375,-3.3925971964448687,2.0526193427830934,-0.18296821095347404
1783170411775954200,7.4859541015625,-3.2399230014681812,1.8101894735574722,-0.07191898878514766
1783170411786024400,7.4960244140625,-3.0311919882267713,1.372504158735275,-0.2068289790123701
1783170411796095200,7.50609521484375,-2.80972541205287,1.061274017266929,-0.4438713099807501
1783170411806165200,7.516165283203125,-2.624919464278221,0.9442205862477421,-0.8046247762918471
1783170411816235300,7.5262353515625,-2.425544600664079,0.9286366481468081,-0.8943927255004643
1783170411826306300,7.536306396484375,-2.318571541893482,1.0423197259500623,-0.5530360335767269
1783170411836376000,7.5463759765625,-2.2958327636018394,1.4215350238859652,-0.04009235641360283
1783170411846446300,7.5564462890625,-2.235112337440252,1.8199118261486291,0.34453006126284597
1783170411856516000,7.56651611328125,-2.093045315065235,1.9809481912791729,0.6286147139132022
1783170411866587100,7.576587158203125,-1.967749394749105,1.8830942585095762,0.7654384288072585
1783170411876657200,7.5866572265625,-1.7066145327925681,1.7329811461925506,0.7285738022685051
1783170411886727400,7.5967275390625,-1.4624237913742661,1.6245555505260825,0.6829337485998869
1783170411896798200,7.606798095703125,-1.3338403738200664,1.5860218217313289,0.7287778004080057
1783170411906868200,7.6168681640625,-1.314232294769585,1.5362825160503386,0.7997288209438324
1783170411916938200,7.626938232421875,-1.1986699790909885,1.5732684308812022,0.7723737810283899
1783170411927009300,7.63700927734375,-1.1025155437156557,1.6434613265261053,0.8065221343457698
1783170411937079300,7.647079345703125,-1.0185063041642308,1.842619917041063,0.8251613683640956
1783170411947149300,7.6571494140625,-0.9177966897025703,2.154537456251681,0.8897592204809188
1783170411957220400,7.667220458984375,-0.7023410443812609,2.439528410091996,1.015020507875085
1783170411967289900,7.677289794921875,-0.49325405730903144,2.684342544105649,1.1096201150238514
1783170411977360100,7.687360107421875,-0.29405747287124395,2.755460153380036,1.0800731180220842
1783170411987431200,7.69743115234375,-0.006489946541190147,2.7418697271838783,1.0741010578751564
1783170411997501000,7.7075009765625,-0.041107086414098735,2.73394974783957,1.0526216319948434
1783170412007571000,7.717571044921875,-0.37670857581198214,2.734223304083943,0.8807634285986423
1783170412017642000,7.72764208984375,-0.7308429162442683,2.61240718870759,0.8286164772540331
1783170412027711700,7.737711669921875,-1.2043044778466223,2.5497546254396437,0.8699205475449562
1783170412037782000,7.747781982421875,-1.7816764957785605,2.538405548429489,0.7244798109531402
1783170412047852000,7.75785205078125,-1.8537948065280914,2.439141748861968,0.5171995810419321
1783170412057923000,7.767923095703125,-1.3128940319031477,2.3995623104065653,0.5787298622816801
1783170412067992800,7.777992919921875,-0.826111800956726,2.375257013450563,0.5672118584454059
1783170412078063000,7.78806298828125,-0.6719640262961387,2.272487836110592,0.543863716083765
1783170412088134100,7.798134033203125,-0.7811269963264464,2.1769237678438422,0.48598611213266846
1783170412098204000,7.808203857421875,-1.0938011991232632,2.127615839317441,0.44684301926791664
1783170412108274000,7.81827392578125,-1.3487024273872374,2.2059131309628484,0.6231225462377071
1783170412118345000,7.828344970703125,-1.5216677152425049,2.313950019572675,0.8520996441721915
1783170412128415000,7.8384150390625,-1.5482038399904965,2.2748520810239015,0.9596370588272809
1783170412138485000,7.848485107421875,-1.281271982192993,2.19648333157748,1.1373416501641274
1783170412148556000,7.85855615234375,-0.8963654868781566,2.1101941643953324,1.1531547208458184
1783170412158626000,7.8686259765625,-0.5235533339828252,1.9205331778049468,1.3888684335589407
1783170412168695800,7.87869580078125,-0.2378548163950443,1.7267171173617242,1.429248959264159
1783170412178766800,7.888766845703125,-0.12312836701869964,1.1625866391230373,1.1807833170056343
1783170412188837000,7.898837158203125,0.1608656847387552,1.2767885531686245,1.3361124104052782
1783170412198907000,7.908906982421875,0.5544260266304015,1.7938630465261638,1.6205699880212545
1783170412208977000,7.918976806640625,0.37375031052827834,1.7929514846391974,1.6803230304554104
1783170412219048000,7.9290478515625,0.2724199338197708,1.4756316479936242,1.519724179959297
1783170412229118000,7.939117919921875,0.22556232105493546,1.2486314030900596,1.3471221724584699
1783170412239188000,7.94918798828125,0.09198971691131591,1.1662998144272714,1.2856620338454843
1783170412249259000,7.959259033203125,0.013261048111319541,1.0303925567910075,1.3113482637658715
1783170412259329000,7.9693291015625,0.18451836300492286,0.9943228069569915,1.33163263464272
1783170412269399000,7.97939892578125,0.49629649374485013,0.9998991457846015,1.2821765298172831
1783170412279470000,7.989469970703125,0.7187462357372045,1.0094789480999111,1.3315756437584756
1783170412289540000,7.9995400390625,0.7816261780202388,1.17036114558205,1.4513073540762067
1783170412299609900,8.00960986328125,0.5385556728035211,1.3633943850845098,1.4062640972569584
1783170412309681000,8.019680908203124,0.2590864049941301,1.3999315332345663,1.383528241574764
1783170412319751000,8.0297509765625,0.3303635887444019,1.4104254547201096,1.3173024959951638
1783170412329821000,8.039821044921876,0.42343350210785863,1.429893833038956,1.2307915027558802
1783170412339891000,8.049890869140626,0.47614334803223607,1.4020057091601192,1.170240880203247
1783170412349962000,8.0599619140625,0.415189405375719,1.3737103196546434,1.0561170728951692
1783170412360032000,8.070031982421876,0.32967736004590986,1.2810121622130275,0.8282093577578663
1783170412370102000,8.08010205078125,0.48502574266791343,1.1719870662834495,0.6809831990540027
1783170412380173000,8.090173095703125,0.8887316309988498,1.1416313832473008,0.5930915651112795
1783170412390243000,8.1002431640625,1.0975070679038763,1.111867820885405,0.5310904514893889
1783170412400312800,8.110312744140625,0.9306582171022891,1.0814898529522121,0.5064116450458764
1783170412410384000,8.1203837890625,0.7247802552044391,1.20370271256119,0.5301926258668304
1783170412420454100,8.1304541015625,0.6155816293388605,1.378762488477677,0.6513289422854781
1783170412430524000,8.14052392578125,0.43794951871633525,1.497060804991424,0.8197823056742548
1783170412440595000,8.150594970703125,0.31947686854898927,1.6796154667079448,0.9898179698184132
1783170412450665000,8.1606650390625,0.10586217491924763,1.7955507073521613,0.981485610280931
1783170412460735000,8.17073486328125,-0.005454758274555206,1.7433659082151949,0.797191119159758
1783170412470805000,8.180804931640624,0.03579787409007549,1.6843755207166076,0.5326081625759601
1783170412480876000,8.1908759765625,0.2392442249268293,1.565775152516365,0.41582127353847026
1783170412490946000,8.200946044921874,0.34345921716094013,1.4326767417557538,0.3564490471154451
1783170412501015800,8.211015869140626,0.3774363055646419,1.3974914466060697,0.3879308115720749
1783170412511086800,8.2210869140625,0.2969377044826746,1.441293325062096,0.49914486891329285
1783170412521157000,8.2311572265625,0.18148878605067728,1.4827011479884384,0.5741498410150409
1783170412531227000,8.241226806640626,0.12850363031625747,1.4781380778566002,0.550691516277194
1783170412541298000,8.2512978515625,0.20658757147192955,1.4813471030309795,0.5335860676974058
1783170412551368000,8.261367919921875,0.25116496434509755,1.427484141548723,0.4825064533233642
1783170412561438200,8.271438232421875,0.19422727159261702,1.3329443017631768,0.4987517779424786
1783170412571509000,8.281509033203125,0.1062637414574623,1.351305303362012,0.6381976580336689
1783170412581579000,8.2915791015625,0.13467384338378904,1.4682326237834988,0.7503565950095653
1783170412591649000,8.30164892578125,0.14455284784138203,1.4636948342233895,0.8227689202696085
1783170412601718800,8.31171875,0.264758020889759,1.4781073904573916,0.7423249719843268
1783170412611789800,8.321789794921875,0.3714455407172441,1.4949800531946122,0.5535919138938188
1783170412621860000,8.331860107421875,0.14404606736302375,1.2570298136010765,0.43200873049050564
1783170412631929900,8.341929931640625,-0.00779343035519123,1.133621460597217,0.42630613493472336
1783170412642001000,8.3520009765625,-0.026833061867952344,1.1711164939939975,0.5474623250976205
1783170412652071000,8.36207080078125,0.10881751759350299,1.2480578409858047,0.6797413822993635
1783170412662141200,8.37214111328125,0.3198053698509931,1.2910367126211524,0.7953069128483533
1783170412672212000,8.3822119140625,0.38726854827105994,1.272974986229837,0.8596019826263189
1783170412682282000,8.392281982421874,0.3771013745218515,1.2506734303116798,0.8755106226369738
1783170412692352000,8.40235205078125,0.3767126674652099,1.2064189857825636,0.9391732397302984
1783170412702423000,8.412423095703126,0.39777357567250726,1.161903698360175,1.1024562147438526
1783170412712493000,8.4224931640625,0.5091425313144922,1.1915225915543735,1.1688146467924116
1783170412722563000,8.43256298828125,0.5639993261396885,1.0864373923569917,1.184013969489932
1783170412732632800,8.4426328125,0.5236369206130504,0.9171877640239894,1.1338330575212836
1783170412742703900,8.452703857421875,0.4063958580672741,0.7521678822152316,1.0117781649529933
1783170412752774000,8.46277392578125,0.21439503035247326,0.6252880537085235,0.9031763359367847
1783170412762844200,8.47284423828125,0.046425066566467284,0.5179352018401027,0.8214639751508831
1783170412772915000,8.4829150390625,0.1201280161589384,0.4753719252683222,0.9859574949979781
1783170412782985000,8.49298486328125,0.32921734131872654,0.5368748801097274,1.0573699955657123
1783170412793055000,8.503054931640625,0.6507406210035085,0.6210949859328567,1.0968334064260123
1783170412803125000,8.513125,0.8016291016072035,0.587412496561557,1.12971802341789
1783170412813196000,8.523196044921875,0.8074696443289517,0.4017128148175776,1.0715490353047847
1783170412823266000,8.53326611328125,0.8409054654628038,0.2421132044918835,1.0585697267442942
1783170412833335800,8.543335693359374,0.9395365200847386,0.1612125984802842,0.9412149746909737
1783170412843406800,8.55340673828125,1.1945429622888564,0.08458440909087657,0.7660618214026093
1783170412853477000,8.56347705078125,1.6100439178317785,-0.010121873302757739,0.6816898860186338
1783170412863547100,8.573547119140626,2.202003264042735,-0.3305270356778055,0.5219675260961055
1783170412873618000,8.583617919921876,2.6498668585300442,-0.7354463183864951,0.23532354435175656
1783170412883688000,8.59368798828125,2.7416291964262722,-0.7828021629970521,0.12588058833628893
1783170412893758000,8.603758056640626,1.744455895408988,-0.7321386551432311,0.23397739043980836
1783170412903828000,8.613827880859375,0.8282020512342453,-0.5168100702676922,0.4749371871128678
1783170412913899000,8.62389892578125,0.4608101698219776,-0.26513361273650077,0.4325654875904321
1783170412923969000,8.633968994140625,0.2798474534720182,-0.19573212319761513,0.5334510431408882
1783170412934038800,8.644038818359375,0.26159868007600307,-0.2439216421533376,0.7063879816845059
1783170412944109800,8.65410986328125,0.3332785994082689,-0.27308000516369935,0.5873354858025908
1783170412954180000,8.66418017578125,0.34241292297840115,-0.3690891868494451,0.3246057558700442
1783170412964249000,8.6742490234375,0.25356618026793004,-0.6432398169193416,0.2445347325503826
1783170412974320000,8.684320068359375,0.19271745155155656,-1.292293580814451,0.21801848154664039
1783170412984390100,8.69439013671875,0.34145898325443264,-1.501358648315817,0.02119651728570461
1783170412994460200,8.704460205078124,0.2906850738286972,-0.7672826684344559,0.2462149407222867
1783170413004530200,8.7145302734375,-0.2840659479498863,-0.46093003334198146,0.29732202762514354
1783170413014601200,8.724601318359374,-0.9334656757384538,-0.3178015557479113,0.3466147585824132
1783170413024671000,8.7346708984375,-1.6328724202334879,-0.3985253073552623,0.35980800215452907
1783170413034741200,8.7447412109375,-1.9399042332291603,-0.529687562421523,0.00026157354563474656
1783170413044812300,8.754812255859376,-2.0145751510709524,-0.43348932443708177,-0.05520458534955978
1783170413054882000,8.764882080078126,-1.97871531766057,-0.19462660964112727,0.03188859169185161
1783170413064952000,8.7749521484375,-1.7319465424478053,-0.16554982396699489,0.2953048425838351
1783170413075023000,8.785023193359375,-1.0892127022892235,-0.2334524897828698,0.42974429268985986
1783170413085093400,8.79509326171875,-0.30185820975005623,-0.2370074057854712,0.5614899736672639
1783170413095163100,8.8051630859375,0.02690437353849411,-0.3722878367602825,0.39216742622852324
1783170413105233200,8.815233154296875,-0.3054541884154081,-0.32491935186386106,0.04689239181727171
1783170413115304200,8.82530419921875,-0.9692851771384478,-0.20983532122150061,-0.21866788536608217
1783170413125374000,8.8353740234375,-1.3041431546926499,-0.21379845269881187,-0.21974720503538844
1783170413135444200,8.8454443359375,-1.4276672430306672,-0.04112696015834808,-0.20266367602646349
1783170413145515300,8.855515380859375,-1.5558973171025514,-0.03864573780186474,-0.34657384205013514
1783170413155585000,8.8655849609375,-1.1585142020523547,0.1663237309489399,-0.22558804001808166
1783170413165655000,8.875655029296874,-0.7248796239256858,0.23500812172703445,-0.2008653944328427
1783170413175725300,8.885725341796874,-0.09584346973001956,0.062414955119788645,-0.1444865046069026
1783170413185796400,8.89579638671875,0.33385084633827206,-0.1506252265576273,-0.10165653992295265
1783170413195866000,8.9058662109375,0.44253860007226464,-0.2510912415217608,-0.19314444479197262
1783170413205936000,8.91593603515625,0.1706003122895956,-0.0728103116016835,-0.262654326608777
1783170413216007200,8.926007080078126,-0.13433248260021208,0.06227386614866554,-0.05307809471487999
1783170413226077200,8.9360771484375,-0.35795886715650554,0.2851809965196997,0.0562888734549284
1783170413236147200,8.946147216796875,-0.7513806773602962,0.6228013514593244,-0.0647895752966404
1783170413246218200,8.95621826171875,-0.7591922278940677,0.6110547995641827,0.013900515058636664
1783170413256288000,8.9662880859375,-0.5676046571552753,0.4798774930592626,-0.19981851572841405
1783170413266358000,8.97635791015625,-0.7150608252227306,0.33362003325708206,-0.5135352133154869
1783170413276428300,8.98642822265625,-1.031980410504341,0.6857976135984063,-0.43027708439230916
