time,seconds_elapsed,z,y,x
1783170404374223000,0.08422314453125,-0.04744452238082886,-0.18085044622421265,0.1793832629919052
1783170404384294100,0.094294189453125,-0.026586828753352165,-0.16427721083164215,0.14340651035308838
1783170404394364000,0.104364013671875,-0.012002559378743172,-0.18307645618915558,0.1447540670633316
1783170404404435000,0.11443505859375,-0.008171755820512772,-0.2278662919998169,0.18191766738891602
1783170404414505000,0.1245048828125,-0.019994592294096947,-0.323906809091568,0.27226436138153076
1783170404424576000,0.134575927734375,-0.035238929092884064,-0.4060859680175781,0.39676663279533386
1783170404434646000,0.14464599609375,-0.05242324247956276,-0.45419278740882874,0.5157002210617065
1783170404444716000,0.154716064453125,-0.08291515707969666,-0.4666457176208496,0.5809134244918823
1783170404454787000,0.164787109375,-0.13072501122951508,-0.4525466859340668,0.5812878608703613
1783170404464857000,0.174857177734375,-0.18382415175437927,-0.4136025905609131,0.513464093208313
1783170404474927900,0.184927978515625,-0.22805899381637573,-0.3872695565223694,0.4093800187110901
1783170404484998000,0.194997802734375,-0.2536318600177765,-0.3842599093914032,0.33769217133522034
1783170404495069000,0.20506884765625,-0.23942764103412628,-0.36968734860420227,0.3317181468009949
1783170404505139000,0.215138916015625,-0.19467571377754211,-0.3471824526786804,0.38075384497642517
1783170404515210000,0.2252099609375,-0.1188637837767601,-0.3053734600543976,0.48167142271995544
1783170404525280000,0.235280029296875,-0.04452875256538391,-0.2541373074054718,0.5872254371643066
1783170404535350000,0.24535009765625,0.01957033947110176,-0.2129906862974167,0.6456331014633179
1783170404545420800,0.2554208984375,0.06552302092313766,-0.2163422554731369,0.6395553946495056
1783170404555491000,0.265490966796875,0.09057057648897171,-0.25829052925109863,0.5703409314155579
1783170404565562000,0.27556201171875,0.10827997326850891,-0.2998277246952057,0.46658867597579956
1783170404575632100,0.285632080078125,0.12021493166685104,-0.3342061936855316,0.3455171287059784
1783170404585703000,0.295702880859375,0.08693305402994156,-0.4062170088291168,0.22561781108379364
1783170404595773000,0.30577294921875,0.002188869984820485,-0.5418840646743774,0.17312344908714294
1783170404605844000,0.315843994140625,-0.08363522589206696,-0.6205908060073853,0.19292058050632477
1783170404615914000,0.3259140625,-0.1433371603488922,-0.6419317722320557,0.25291547179222107
1783170404625985000,0.335985107421875,-0.16202691197395325,-0.6335791945457458,0.32340753078460693
1783170404636055000,0.346054931640625,-0.13879802823066711,-0.5787638425827026,0.38212597370147705
1783170404646125000,0.356125,-0.09349530935287476,-0.4630900025367737,0.4311913847923279
1783170404656195800,0.36619580078125,-0.042743176221847534,-0.31507712602615356,0.4419550597667694
1783170404666265900,0.376265869140625,0.008264034986495972,-0.1675747185945511,0.39836668968200684
1783170404676337000,0.3863369140625,0.056426502764225006,-0.06824254244565964,0.29986515641212463
1783170404686407200,0.3964072265625,0.08577031642198563,-0.09256958961486816,0.19932176172733307
1783170404696478000,0.40647802734375,0.16559351980686188,-0.317670077085495,0.11474189907312393
1783170404706548000,0.4165478515625,0.2802072763442993,-0.5482609272003174,0.05173662304878235
1783170404716619000,0.426618896484375,0.2563227117061615,-0.5840961933135986,0.0754624605178833
1783170404726689000,0.43668896484375,0.15723787248134613,-0.6007648706436157,0.09649961441755295
1783170404736759000,0.446759033203125,0.060498010367155075,-0.6549420952796936,0.0860685482621193
1783170404746830000,0.456830078125,-0.007216859143227339,-0.6851520538330078,0.04141996055841446
1783170404756900000,0.466900146484375,-0.019791506230831146,-0.7159968018531799,0.003160721156746149
1783170404766971000,0.476970947265625,0.027431435883045197,-0.7833126187324524,-0.025404609739780426
1783170404777041000,0.487041015625,0.0851551815867424,-0.8247881531715393,0.011074572801589966
1783170404787112000,0.49711181640625,0.11944612115621567,-0.8226928114891052,0.11351732909679413
1783170404797182200,0.50718212890625,0.13604827225208282,-0.8048237562179565,0.21860459446907043
1783170404807253000,0.5172529296875,0.1398366093635559,-0.7891150116920471,0.2786262333393097
1783170404817323000,0.527322998046875,0.07548931241035461,-0.793838381767273,0.3484492599964142
1783170404827393000,0.53739306640625,0.011277278885245323,-0.709819495677948,0.37618374824523926
1783170404837464000,0.547464111328125,-0.0999419167637825,-0.7131322026252747,0.36627039313316345
1783170404847533800,0.557533935546875,-0.19260366261005402,-0.7887827157974243,0.36692559719085693
1783170404857604900,0.56760498046875,-0.2019319087266922,-0.811137318611145,0.356983482837677
1783170404867675100,0.577675048828125,-0.15030847489833832,-0.8228151202201843,0.3218027353286743
1783170404877746000,0.587745849609375,-0.103437639772892,-0.8244796395301819,0.2511008679866791
1783170404887816000,0.59781591796875,-0.09159697592258453,-0.8123435974121094,0.152797669172287
1783170404897887000,0.607886962890625,-0.10757327824831009,-0.7672768235206604,0.057527076452970505
1783170404907957000,0.61795703125,-0.10587109625339508,-0.6915519833564758,-0.004803937394171953
1783170404918027000,0.628027099609375,-0.04779714345932007,-0.5954970717430115,-0.061354029923677444
1783170404928098000,0.63809814453125,0.017251769080758095,-0.532593309879303,-0.11163190752267838
1783170404938168000,0.64816796875,0.06924013048410416,-0.49408265948295593,-0.16041062772274017
1783170404948239000,0.658239013671875,0.11834919452667236,-0.467619389295578,-0.21137623488903046
1783170404958308400,0.668308349609375,0.1297384649515152,-0.4960571527481079,-0.2517492473125458
1783170404968379100,0.678379150390625,0.14907407760620117,-0.5469948053359985,-0.2839195728302002
1783170404978449400,0.688449462890625,0.17661409080028534,-0.6000324487686157,-0.31415656208992004
1783170404988520400,0.6985205078125,0.20287145674228668,-0.6700117588043213,-0.33100879192352295
1783170404998590500,0.708590576171875,0.23583021759986877,-0.743029773235321,-0.32741671800613403
1783170405008660200,0.71866015625,0.2742921710014343,-0.779639482498169,-0.30943983793258667
1783170405018731300,0.728731201171875,0.319113165140152,-0.7735493779182434,-0.28403007984161377
1783170405028801500,0.738801513671875,0.3844442367553711,-0.7439789772033691,-0.26963678002357483
1783170405038872300,0.748872314453125,0.42763805389404297,-0.6921216249465942,-0.2793538570404053
1783170405048942300,0.7589423828125,0.45194143056869507,-0.6183422803878784,-0.2889651954174042
1783170405059013400,0.769013427734375,0.4482670724391937,-0.5108307600021362,-0.29889237880706787
1783170405069083400,0.77908349609375,0.44940298795700073,-0.3884815275669098,-0.316466748714447
1783170405079154200,0.789154296875,0.4780559241771698,-0.28799620270729065,-0.3111412227153778
1783170405089224400,0.799224365234375,0.5192177891731262,-0.21695666015148163,-0.2677905559539795
1783170405099294500,0.80929443359375,0.5418304204940796,-0.17761485278606415,-0.20401343703269958
1783170405109365500,0.819365478515625,0.5309171080589294,-0.1772872805595398,-0.16856911778450012
1783170405119435300,0.829435302734375,0.480489581823349,-0.21641871333122253,-0.1689387559890747
1783170405129506300,0.83950634765625,0.43194904923439026,-0.295697420835495,-0.2011370211839676
1783170405139576300,0.849576416015625,0.40613025426864624,-0.398735374212265,-0.2417968362569809
1783170405149647400,0.8596474609375,0.3964783549308777,-0.48191043734550476,-0.2837923467159271
1783170405159717400,0.86971728515625,0.3691631257534027,-0.5361196398735046,-0.304762065410614
1783170405169787400,0.879787353515625,0.33100050687789917,-0.5618168711662292,-0.3335583806037903
1783170405179858400,0.8898583984375,0.3049132525920868,-0.6142449378967285,-0.3851182460784912
1783170405189928200,0.89992822265625,0.28736671805381775,-0.6846635341644287,-0.4470462501049042
1783170405199999200,0.909999267578125,0.30302396416664124,-0.7273707985877991,-0.48514994978904724
1783170405210069500,0.920069580078125,0.3406674861907959,-0.7046601176261902,-0.48053842782974243
1783170405220140500,0.930140625,0.3917836844921112,-0.6269925236701965,-0.4565640985965729
1783170405230210300,0.940210205078125,0.44054263830184937,-0.5034404993057251,-0.41327881813049316
1783170405240281300,0.95028125,0.47498664259910583,-0.34579360485076904,-0.3721252679824829
1783170405250351400,0.960351318359375,0.49793940782546997,-0.19001346826553345,-0.34901222586631775
1783170405260421400,0.97042138671875,0.49585336446762085,-0.06411439180374146,-0.3309677243232727
1783170405270492400,0.980492431640625,0.44887709617614746,0.054086145013570786,-0.3109758496284485
1783170405280562400,0.9905625,0.3585740923881531,0.18248993158340454,-0.29165729880332947
1783170405290633500,1.000633544921875,0.2502233684062958,0.33237224817276,-0.2861626446247101
1783170405300703200,1.010703125,0.13091453909873962,0.47580450773239136,-0.2828131914138794
1783170405310774300,1.020774169921875,-0.0022591918241232634,0.5765987038612366,-0.26722797751426697
1783170405320844300,1.03084423828125,-0.13962343335151672,0.6449815034866333,-0.24907055497169495
1783170405330914300,1.040914306640625,-0.243641659617424,0.6476992964744568,-0.25965961813926697
1783170405340985300,1.0509853515625,-0.3158269226551056,0.5759766697883606,-0.28659987449645996
1783170405351055400,1.061055419921875,-0.3742749094963074,0.5105597972869873,-0.30823373794555664
1783170405361126400,1.07112646484375,-0.41835927963256836,0.46057602763175964,-0.30861324071884155
1783170405371196200,1.081196044921875,-0.4368620216846466,0.4231162369251251,-0.2970162034034729
1783170405381267200,1.09126708984375,-0.4292059540748596,0.37645259499549866,-0.2915745675563812
1783170405391337500,1.10133740234375,-0.39485734701156616,0.3191922605037689,-0.2816925346851349
1783170405401408500,1.111408447265625,-0.33094948530197144,0.26467201113700867,-0.2852172255516052
1783170405411478300,1.121478271484375,-0.24059124290943146,0.20441238582134247,-0.3041270971298218
1783170405421548300,1.13154833984375,-0.15460523962974548,0.16914308071136475,-0.3312670886516571
1783170405431619300,1.141619384765625,-0.0819779708981514,0.15125849843025208,-0.35690975189208984
1783170405441689300,1.151689453125,-0.03225834667682648,0.15539652109146118,-0.36853310465812683
1783170405451760400,1.161760498046875,-0.007832499220967293,0.1819775253534317,-0.35171276330947876
1783170405461830400,1.171830322265625,-0.00082945148460567,0.23586340248584747,-0.3132697641849518
1783170405471901400,1.1819013671875,-0.0179251991212368,0.2997686266899109,-0.24936750531196594
1783170405481971200,1.19197119140625,-0.03270068019628525,0.36487945914268494,-0.18451102077960968
1783170405492041500,1.20204150390625,-0.048158884048461914,0.42331770062446594,-0.12698926031589508
1783170405502112500,1.212112548828125,-0.05201301351189613,0.46955153346061707,-0.08995213359594345
1783170405512182500,1.2221826171875,-0.05222713202238083,0.5038804411888123,-0.07543577253818512
1783170405522253300,1.23225341796875,-0.045218490064144135,0.5269244909286499,-0.07421284914016724
1783170405532323300,1.2423232421875,-0.02744460478425026,0.5278128385543823,-0.07373752444982529
1783170405542394400,1.252394287109375,-0.0016004899516701698,0.5073941349983215,-0.07791948318481445
1783170405552464100,1.262464111328125,0.01742110215127468,0.46275594830513,-0.07538602501153946
1783170405562534400,1.272534423828125,0.03409701585769653,0.40278714895248413,-0.04208159074187279
1783170405572605400,1.28260546875,0.04088784009218216,0.3500016927719116,0.008708721026778221
1783170405582675500,1.292675537109375,0.04497392848134041,0.3035582900047302,0.05274861678481102
1783170405592746200,1.302746337890625,0.03617487847805023,0.26233720779418945,0.08280771225690842
1783170405602816300,1.312816162109375,0.025023693218827248,0.2483590841293335,0.07859405875205994
1783170405612886500,1.322886474609375,0.019269846379756927,0.2588476836681366,0.04558520019054413
1783170405622957600,1.33295751953125,0.020411543548107147,0.2913299798965454,-0.0032214904204010963
1783170405633027300,1.34302734375,0.021571464836597443,0.3349570631980896,-0.05439957603812218
1783170405643098400,1.353098388671875,0.015811314806342125,0.38471531867980957,-0.11551938951015472
1783170405653168400,1.36316845703125,0.0023893709294497967,0.4090515673160553,-0.16171163320541382
1783170405663239200,1.3732392578125,-0.01002415455877781,0.40967074036598206,-0.19521339237689972
1783170405673309400,1.383309326171875,-0.02448071539402008,0.37893757224082947,-0.20587432384490967
1783170405683379500,1.39337939453125,-0.03758133575320244,0.3323751389980316,-0.20484234392642975
1783170405693450500,1.403450439453125,-0.04472702369093895,0.27916228771209717,-0.20201197266578674
1783170405703520300,1.413520263671875,-0.04581226035952568,0.24554306268692017,-0.2153187245130539
1783170405713591300,1.42359130859375,-0.030574055388569832,0.2335718870162964,-0.23860812187194824
1783170405723661300,1.433661376953125,-0.00809218268841505,0.2595997452735901,-0.26403093338012695
1783170405733732400,1.443732421875,0.02229269966483116,0.28571003675460815,-0.28765517473220825
1783170405743802400,1.45380224609375,0.054812826216220856,0.29900428652763367,-0.3021555542945862
1783170405753872400,1.463872314453125,0.07568499445915222,0.2875279188156128,-0.302948921918869
1783170405763943400,1.473943359375,0.09098778665065765,0.2400783896446228,-0.28155654668807983
1783170405774013200,1.48401318359375,0.09859482198953629,0.18147511780261993,-0.24566535651683807
1783170405784084200,1.494084228515625,0.10441648960113525,0.12971632182598114,-0.20623831450939178
1783170405794154500,1.504154541015625,0.09702861309051514,0.080544114112854,-0.16673074662685394
1783170405804225500,1.5142255859375,0.06982255727052689,0.05218144506216049,-0.14850406348705292
1783170405814295300,1.52429541015625,0.01986456662416458,0.016830381006002426,-0.15094943344593048
1783170405824365300,1.534365234375,-0.023877587169408798,-0.019621368497610092,-0.1624806523323059
1783170405834436400,1.544436279296875,-0.049261435866355896,-0.0685228705406189,-0.15755994617938995
1783170405844506400,1.55450634765625,-0.05415499210357666,-0.11217154562473297,-0.14768414199352264
1783170405854577400,1.564577392578125,-0.06220811977982521,-0.16792549192905426,-0.16624195873737335
1783170405864647400,1.5746474609375,-0.07467170804738998,-0.24871142208576202,-0.18806709349155426
1783170405874717400,1.584717529296875,-0.07328122109174728,-0.3431457579135895,-0.20255209505558014
1783170405884788200,1.594788330078125,-0.04022500291466713,-0.45065969228744507,-0.20143410563468933
1783170405894858200,1.604858154296875,0.029460273683071136,-0.5540802478790283,-0.15226878225803375
1783170405904929300,1.61492919921875,0.12120404094457626,-0.668484091758728,-0.06060490384697914
1783170405914999300,1.624999267578125,0.1932920664548874,-0.7794064283370972,0.0521794930100441
1783170405925070300,1.6350703125,0.23081840574741364,-0.8661927580833435,0.1635555624961853
1783170405935140400,1.645140380859375,0.2299661934375763,-0.9261215925216675,0.23813951015472412
1783170405945210400,1.65521044921875,0.20296652615070343,-0.9736888408660889,0.28175675868988037
1783170405955281200,1.66528125,0.1287812888622284,-1.0356624126434326,0.3351882994174957
1783170405965350700,1.6753505859375,0.038319557905197144,-1.0595102310180664,0.39167794585227966
1783170405975421400,1.68542138671875,-0.04781719669699669,-1.0550662279129028,0.4426059424877167
1783170405985491500,1.695491455078125,-0.14465586841106415,-1.0289655923843384,0.4967498481273651
1783170405995562500,1.7055625,-0.24052435159683228,-0.992875337600708,0.5718053579330444
1783170406005632500,1.715632568359375,-0.3275071978569031,-0.9923067092895508,0.6511241793632507
1783170406015702500,1.72570263671875,-0.39308643341064453,-1.0158185958862305,0.7676568627357483
1783170406025773600,1.735773681640625,-0.42904043197631836,-1.0681647062301636,0.9047537446022034
1783170406035843600,1.745843505859375,-0.4455835223197937,-1.1536788940429688,1.0282527208328247
1783170406045914400,1.755914306640625,-0.48912885785102844,-1.2408249378204346,1.1210026741027832
1783170406055984400,1.765984375,-0.5168613791465759,-1.2872364521026611,1.165054440498352
1783170406066054700,1.7760546875,-0.521411120891571,-1.334760308265686,1.1619681119918823
1783170406076125700,1.786125732421875,-0.5087568759918213,-1.3151746988296509,1.148046851158142
1783170406086195500,1.796195556640625,-0.4579564929008484,-1.2367379665374756,1.1097042560577393
1783170406096266500,1.8062666015625,-0.4360451102256775,-1.1796905994415283,1.0482027530670166
1783170406106336500,1.81633642578125,-0.41442129015922546,-1.1277507543563843,0.9971344470977783
1783170406116407600,1.826407470703125,-0.3918687701225281,-1.0513184070587158,0.9671647548675537
1783170406126477600,1.8364775390625,-0.3532997965812683,-1.0460370779037476,0.9458701610565186
1783170406136547600,1.846547607421875,-0.38150110840797424,-0.9710420966148376,0.9174349904060364
1783170406146618600,1.85661865234375,-0.4280065596103668,-0.8651124835014343,0.8369646668434143
1783170406156688400,1.8666884765625,-0.39895448088645935,-0.8148759007453918,0.7641939520835876
1783170406166759400,1.876759521484375,-0.3146915137767792,-0.739391028881073,0.7277363538742065
1783170406176829700,1.88682958984375,-0.2251509130001068,-0.6728129386901855,0.7440463900566101
1783170406186899500,1.8968994140625,-0.13423804938793182,-0.6004319190979004,0.7768917083740234
1783170406196970500,1.906970458984375,-0.06977597624063492,-0.5141181945800781,0.7930154204368591
1783170406207040500,1.91704052734375,-0.03481479361653328,-0.452080637216568,0.7701151371002197
1783170406217111600,1.927111572265625,-0.020155439153313637,-0.40920135378837585,0.7322617173194885
1783170406227181300,1.937181396484375,0.002208988182246685,-0.33499690890312195,0.7087542414665222
1783170406237251600,1.94725146484375,0.019704196602106094,-0.23742812871932983,0.7137319445610046
1783170406247322600,1.957322509765625,0.030859913676977158,-0.17105524241924286,0.7022817134857178
1783170406257392400,1.967392333984375,0.038129448890686035,-0.11600849777460098,0.6495147943496704
1783170406267463400,1.97746337890625,0.03855954855680466,-0.05659124255180359,0.5608051419258118
1783170406277533400,1.987533447265625,0.008996622636914253,-0.01664888858795166,0.43953850865364075
1783170406287604500,1.9976044921875,-0.03965054079890251,0.010684997774660587,0.2685513198375702
1783170406297674500,2.007674560546875,-0.08414716273546219,0.06882806122303009,0.08044014126062393
1783170406307744500,2.01774462890625,-0.12995246052742004,0.13051459193229675,-0.07168281078338623
1783170406317815600,2.027815673828125,-0.16830356419086456,0.1304541379213333,-0.17780275642871857
1783170406327885600,2.037885498046875,-0.18649615347385406,0.06788157671689987,-0.22592687606811523
1783170406337956400,2.047956298828125,-0.13557754456996918,-0.02557447738945484,-0.2247692048549652
1783170406348026600,2.058026611328125,0.018197113648056984,-0.13364554941654205,-0.20639392733573914
1783170406358096600,2.0680966796875,0.23965203762054443,-0.32289180159568787,-0.18540902435779572
1783170406368167700,2.078167724609375,0.4710064232349396,-0.582489013671875,-0.1882183998823166
1783170406378237400,2.088237548828125,0.670087993144989,-0.8264691829681396,-0.18004825711250305
1783170406388308500,2.09830859375,0.8117732405662537,-1.0015112161636353,-0.14425350725650787
1783170406398378500,2.10837841796875,0.8703153729438782,-1.136000633239746,-0.07909496873617172
1783170406408448500,2.118448486328125,0.8851941823959351,-1.251225471496582,0.02680482715368271
1783170406418519600,2.12851953125,0.8692067265510559,-1.3401966094970703,0.13215750455856323
1783170406428589600,2.138589599609375,0.8228911757469177,-1.401787519454956,0.20461972057819366
1783170406438660600,2.14866064453125,0.7503735423088074,-1.4270508289337158,0.2501435875892639
1783170406448730400,2.15873046875,0.6572731733322144,-1.4020203351974487,0.28562861680984497
1783170406458801400,2.168801513671875,0.5409678816795349,-1.3099883794784546,0.3316202163696289
1783170406468871700,2.17887158203125,0.41453513503074646,-1.1365443468093872,0.34992730617523193
1783170406478941400,2.18894140625,0.3258281946182251,-0.8970282077789307,0.35186412930488586
1783170406489012500,2.199012451171875,0.28864461183547974,-0.6141179203987122,0.3360534608364105
1783170406499082500,2.20908251953125,0.2724418640136719,-0.27647048234939575,0.2900717258453369
1783170406509153500,2.219153564453125,0.2528095841407776,0.08271324634552002,0.18076227605342865
1783170406519223600,2.2292236328125,0.21076630055904388,0.3837924003601074,0.006811664439737797
1783170406529293600,2.23929345703125,0.16183923184871674,0.5773531198501587,-0.20246513187885284
1783170406539364600,2.249364501953125,0.14251457154750824,0.6903437972068787,-0.38864150643348694
1783170406549434400,2.259434326171875,0.14184638857841492,0.6998485922813416,-0.4833962619304657
1783170406559505400,2.26950537109375,0.141499862074852,0.5935617685317993,-0.4814188778400421
1783170406569575400,2.279575439453125,0.13969077169895172,0.39740315079689026,-0.39558759331703186
1783170406579645700,2.289645751953125,0.13738533854484558,0.2077629119157791,-0.26764193177223206
1783170406589716500,2.299716552734375,0.13479220867156982,0.10174699127674103,-0.15364667773246765
1783170406599786500,2.309786376953125,0.14383649826049805,0.08612142503261566,-0.10234757512807846
1783170406609857500,2.319857421875,0.1577640324831009,0.1521555632352829,-0.11490251123905182
1783170406619927300,2.32992724609375,0.17054806649684906,0.24940982460975647,-0.19355909526348114
1783170406629997600,2.33999755859375,0.18823625147342682,0.3233724534511566,-0.3217407763004303
1783170406640068600,2.350068603515625,0.2432931512594223,0.32205086946487427,-0.4270608127117157
1783170406650138600,2.360138671875,0.24832040071487427,0.26099178194999695,-0.4612901508808136
1783170406660209400,2.37020947265625,0.19339561462402344,0.12178142368793488,-0.40534332394599915
1783170406670279400,2.380279541015625,0.14556337893009186,-0.08819631487131119,-0.2849058508872986
1783170406680349700,2.390349609375,0.10075148195028305,-0.31827226281166077,-0.16054017841815948
1783170406690420700,2.400420654296875,0.03210477530956268,-0.49580204486846924,-0.05865456908941269
1783170406700490500,2.410490478515625,-0.049837883561849594,-0.5728291869163513,0.0035950480960309505
1783170406710561500,2.4205615234375,-0.12541121244430542,-0.617914080619812,0.04439893737435341
1783170406720631600,2.430631591796875,-0.1666855365037918,-0.6067621111869812,0.034975565969944
1783170406730701600,2.44070166015625,-0.19367533922195435,-0.55252605676651,-0.024509595707058907
1783170406740772600,2.450772705078125,-0.20821517705917358,-0.48315855860710144,-0.12194372713565826
1783170406750842600,2.460842529296875,-0.21760627627372742,-0.42891421914100647,-0.23593208193778992
1783170406760913700,2.47091357421875,-0.2456209361553192,-0.3669798970222473,-0.3387662172317505
1783170406770983400,2.4809833984375,-0.3052472472190857,-0.29712995886802673,-0.4289296567440033
1783170406781053400,2.491053466796875,-0.38445302844047546,-0.22932973504066467,-0.5101529359817505
1783170406791124500,2.50112451171875,-0.4673795998096466,-0.1394810825586319,-0.5934723019599915
1783170406801194500,2.511194580078125,-0.5190201997756958,-0.0044039469212293625,-0.6823281645774841
1783170406811265500,2.521265625,-0.5259081721305847,0.183883398771286,-0.7836750745773315
1783170406821335600,2.53133544921875,-0.4835176467895508,0.3704771101474762,-0.897514820098877
1783170406831406600,2.541406494140625,-0.40789610147476196,0.5505824089050293,-0.9890455603599548
1783170406841476400,2.551476318359375,-0.30805256962776184,0.702497661113739,-1.0517292022705078
1783170406851546600,2.561546630859375,-0.1921052187681198,0.8064736127853394,-1.0733586549758911
1783170406861617700,2.57161767578125,-0.08004946261644363,0.8617700338363647,-1.0722719430923462
1783170406871687400,2.5816875,0.018804945051670074,0.8902266621589661,-1.0364668369293213
1783170406881758500,2.591758544921875,0.09076302498579025,0.9041718244552612,-0.9705207943916321
1783170406891828500,2.601828369140625,0.14850486814975739,0.8989480137825012,-0.8952305912971497
1783170406901898500,2.6118984375,0.18994256854057312,0.8851887583732605,-0.814469039440155
1783170406911969500,2.621969482421875,0.22195376455783844,0.8608213663101196,-0.7390624284744263
1783170406922039600,2.63203955078125,0.25344568490982056,0.8343216180801392,-0.6738049387931824
1783170406932109600,2.642109619140625,0.2777632772922516,0.7995879054069519,-0.6144191026687622
1783170406942180600,2.6521806640625,0.2987849712371826,0.7742053270339966,-0.556250810623169
1783170406952250400,2.66225048828125,0.31931072473526,0.7635995149612427,-0.5183364152908325
1783170406962322400,2.672322509765625,0.35718008875846863,0.7497151494026184,-0.5128048062324524
1783170406972392400,2.682392333984375,0.39539965987205505,0.7272665500640869,-0.5345790386199951
1783170406982462500,2.69246240234375,0.43028655648231506,0.6995244026184082,-0.5530650019645691
1783170406992533500,2.702533447265625,0.45784974098205566,0.68259596824646,-0.5563601851463318
1783170407002603300,2.712603271484375,0.49487560987472534,0.6367489099502563,-0.5131860971450806
1783170407012674300,2.72267431640625,0.5396097898483276,0.5555778741836548,-0.41462892293930054
1783170407022744300,2.732744384765625,0.5894084572792053,0.46245697140693665,-0.2742442488670349
1783170407032814300,2.742814453125,0.6481356620788574,0.42473331093788147,-0.14882507920265198
1783170407042885400,2.752885498046875,0.6799270510673523,0.43337032198905945,-0.07792219519615173
1783170407052955400,2.762955322265625,0.6665113568305969,0.4806491732597351,-0.05035475268959999
1783170407063026400,2.7730263671875,0.617725670337677,0.5355541110038757,-0.09462172538042068
1783170407073096200,2.78309619140625,0.5466871857643127,0.5536566972732544,-0.19123615324497223
1783170407083167200,2.793167236328125,0.4875631630420685,0.537684440612793,-0.29655352234840393
1783170407093237500,2.803237548828125,0.47177088260650635,0.49408507347106934,-0.35240933299064636
1783170407103307300,2.813307373046875,0.5039187073707581,0.4333361089229584,-0.3635784983634949
1783170407113378300,2.82337841796875,0.5477367639541626,0.36291733384132385,-0.33725500106811523
1783170407123448300,2.8334482421875,0.48903778195381165,0.2904520630836487,-0.2945573627948761
1783170407133518300,2.843518310546875,0.46135926246643066,0.17408603429794312,-0.2017427235841751
1783170407143589400,2.85358935546875,0.4685838222503662,0.07875965535640717,-0.14803972840309143
1783170407153659400,2.863659423828125,0.4164588451385498,0.011443459428846836,-0.13052278757095337
1783170407163730400,2.87373046875,0.3419162929058075,-0.08314044773578644,-0.13533207774162292
1783170407173800400,2.883800537109375,0.28890448808670044,-0.2199893742799759,-0.13319595158100128
1783170407183870200,2.8938701171875,0.29700782895088196,-0.3592025339603424,-0.12123571336269379
1783170407193941200,2.903941162109375,0.345121294260025,-0.47835955023765564,-0.08622553199529648
1783170407204011500,2.914011474609375,0.4013659954071045,-0.5353406667709351,-0.04085126146674156
1783170407214082300,2.924082275390625,0.46065008640289307,-0.5616287589073181,0.013950200751423836
1783170407224152300,2.93415234375,0.51123046875,-0.5928084850311279,0.0666743665933609
1783170407234222300,2.944222412109375,0.5530061721801758,-0.6220859289169312,0.10638263821601868
1783170407244293400,2.95429345703125,0.5621947646141052,-0.6234116554260254,0.13744668662548065
1783170407254363400,2.96436328125,0.5302703976631165,-0.6065011024475098,0.14749319851398468
1783170407264434400,2.974434326171875,0.4669923782348633,-0.5651593208312988,0.1498544067144394
1783170407274504400,2.98450439453125,0.37178438901901245,-0.5215591192245483,0.15352025628089905
1783170407284574200,2.99457421875,0.27435076236724854,-0.465299516916275,0.17666977643966675
1783170407294645200,3.004645263671875,0.18963588774204254,-0.41982099413871765,0.21968196332454681
1783170407304715500,3.014715576171875,0.12080802023410797,-0.398128867149353,0.2810720205307007
1783170407314786600,3.02478662109375,0.0749870017170906,-0.4118313789367676,0.36776190996170044
1783170407324856300,3.034856201171875,0.022430671378970146,-0.46535784006118774,0.4886075258255005
1783170407334926300,3.04492626953125,0.006506034173071384,-0.5268822312355042,0.6079171299934387
1783170407344997400,3.054997314453125,-0.019970353692770004,-0.5918675661087036,0.7163382768630981
1783170407355067100,3.065067138671875,-0.044469039887189865,-0.6756711602210999,0.8116727471351624
1783170407365138200,3.07513818359375,-0.07654434442520142,-0.7654528617858887,0.900706946849823
1783170407375208400,3.08520849609375,-0.12336698174476624,-0.8655959367752075,0.9642664790153503
1783170407385278500,3.095278564453125,-0.1816129982471466,-0.9622158408164978,1.0088059902191162
1783170407395349200,3.105349365234375,-0.22970835864543915,-1.0690104961395264,1.02567720413208
1783170407405419300,3.115419189453125,-0.27153146266937256,-1.2136002779006958,1.051171064376831
1783170407415489500,3.125489501953125,-0.3078303635120392,-1.3959131240844727,1.1181365251541138
1783170407425560600,3.135560546875,-0.3295060694217682,-1.5648109912872314,1.2511523962020874
1783170407435630300,3.14563037109375,-0.33628806471824646,-1.686096429824829,1.393465280532837
1783170407445701400,3.155701416015625,-0.34645816683769226,-1.7892711162567139,1.4911211729049683
1783170407455771400,3.165771484375,-0.34585604071617126,-1.8664690256118774,1.5204828977584839
1783170407465841400,3.17584130859375,-0.3291685879230499,-1.9127358198165894,1.493639588356018
1783170407475912400,3.185912353515625,-0.3023015558719635,-1.9162602424621582,1.427951693534851
1783170407485982500,3.195982421875,-0.2686421871185303,-1.8992195129394531,1.3286051750183105
1783170407496053500,3.206053466796875,-0.24040547013282776,-1.8591177463531494,1.2196259498596191
1783170407506123300,3.216123291015625,-0.23174558579921722,-1.7995209693908691,1.1202857494354248
1783170407516193300,3.226193359375,-0.24878770112991333,-1.7117104530334473,1.0240907669067383
1783170407526264300,3.236264404296875,-0.2882347106933594,-1.6099039316177368,0.9391830563545227
1783170407536334300,3.246334228515625,-0.33757323026657104,-1.4886683225631714,0.8768307566642761
1783170407546405400,3.2564052734375,-0.3733557462692261,-1.3315389156341553,0.8304540514945984
1783170407556475400,3.266475341796875,-0.39761048555374146,-1.166581392288208,0.7798989415168762
1783170407566545200,3.276545166015625,-0.4216788411140442,-1.0006598234176636,0.7357369065284729
1783170407576616200,3.2866162109375,-0.43439167737960815,-0.8349549770355225,0.7030255198478699
1783170407586686500,3.2966865234375,-0.4505881667137146,-0.689178466796875,0.6767101883888245
1783170407596757500,3.306757568359375,-0.4569379389286041,-0.5793536901473999,0.6612063646316528
1783170407606827300,3.3168271484375,-0.45490044355392456,-0.5073456764221191,0.6543219089508057
1783170407616897300,3.326897216796875,-0.43535149097442627,-0.47369420528411865,0.6853882074356079
1783170407626968300,3.33696826171875,-0.3976595103740692,-0.4612481892108917,0.7271338105201721
1783170407637038600,3.34703857421875,-0.3587981164455414,-0.45851418375968933,0.7730973362922668
1783170407647108400,3.3571083984375,-0.32774215936660767,-0.4565238952636719,0.8006182312965393
1783170407657179400,3.367179443359375,-0.2962753176689148,-0.48215121030807495,0.8200513124465942
1783170407667249400,3.37724951171875,-0.27563047409057617,-0.5297349691390991,0.837681233882904
1783170407677320200,3.3873203125,-0.258495956659317,-0.5976860523223877,0.8488731980323792
1783170407687390200,3.39739013671875,-0.23972654342651367,-0.6768196821212769,0.8529720902442932
1783170407697460500,3.40746044921875,-0.2179296463727951,-0.7717089056968689,0.850895881652832
1783170407707531500,3.417531494140625,-0.19368956983089447,-0.8910506963729858,0.8338196277618408
1783170407717601300,3.427601318359375,-0.16534022986888885,-1.0183157920837402,0.8058090209960938
1783170407727672300,3.43767236328125,-0.13407285511493683,-1.1417080163955688,0.7935047149658203
1783170407737742300,3.447742431640625,-0.09242686629295349,-1.2301052808761597,0.795773983001709
1783170407747812400,3.457812255859375,-0.03737372159957886,-1.295621633529663,0.8180825710296631
1783170407757883400,3.46788330078125,0.000014131423085927963,-1.3573225736618042,0.8302529454231262
1783170407767953400,3.477953369140625,-0.005050591193139553,-1.4063079357147217,0.813835859298706
1783170407778023200,3.488023193359375,-0.03339008614420891,-1.418931245803833,0.7631362080574036
1783170407788094200,3.49809423828125,-0.07885768264532089,-1.4069645404815674,0.6893279552459717
1783170407798164500,3.50816455078125,-0.15017394721508026,-1.3892873525619507,0.6035020351409912
1783170407808235500,3.518235595703125,-0.2383691519498825,-1.3773443698883057,0.4879564046859741
1783170407818305300,3.52830517578125,-0.3288692235946655,-1.366804599761963,0.33279985189437866
1783170407828375300,3.538375244140625,-0.3643542230129242,-1.3558412790298462,0.1855572760105133
1783170407838446300,3.5484462890625,-0.2754043936729431,-1.3094083070755005,0.10364937037229538
1783170407848516400,3.558516357421875,-0.07521554827690125,-1.2349035739898682,0.11517558991909027
1783170407858587400,3.56858740234375,0.16967009007930756,-1.1075294017791748,0.22404347360134125
1783170407868657400,3.578657470703125,0.3682156503200531,-0.9466092586517334,0.39717623591423035
1783170407878727400,3.5887275390625,0.49406278133392334,-0.7988033294677734,0.5832419991493225
1783170407888798500,3.598798583984375,0.5450606942176819,-0.6628437638282776,0.7193275690078735
1783170407898868200,3.6088681640625,0.5310401916503906,-0.5277839303016663,0.7981851100921631
1783170407908938500,3.6189384765625,0.4627062678337097,-0.4210905134677887,0.8423919677734375
1783170407919009500,3.629009521484375,0.3758041262626648,-0.38163071870803833,0.879569947719574
1783170407929079300,3.639079345703125,0.27329957485198975,-0.3882049024105072,0.9338603615760803
1783170407939150300,3.649150390625,0.18370948731899261,-0.43681901693344116,0.9838191270828247
1783170407949220400,3.659220458984375,0.13344493508338928,-0.5773517489433289,1.0351325273513794
1783170407959290400,3.669290283203125,0.12042687088251114,-0.8099061846733093,1.0975847244262695
1783170407969361700,3.679361572265625,0.13415178656578064,-1.0972234010696411,1.1848816871643066
1783170407979431700,3.689431640625,0.1620233654975891,-1.395753264427185,1.3087866306304932
1783170407989502700,3.699502685546875,0.20246078073978424,-1.6998045444488525,1.4627012014389038
1783170407999572500,3.709572509765625,0.26092249155044556,-1.9855080842971802,1.6231601238250732
1783170408009642500,3.719642578125,0.333322674036026,-2.233341693878174,1.7792189121246338
1783170408019713500,3.729713623046875,0.4098115861415863,-2.4080097675323486,1.898810863494873
1783170408029783800,3.73978369140625,0.4921965003013611,-2.512258768081665,1.9827021360397339
1783170408039853600,3.749853515625,0.5553474426269531,-2.5510942935943604,2.021756649017334
1783170408049924600,3.759924560546875,0.6031796932220459,-2.5052597522735596,2.0197389125823975
1783170408059994600,3.76999462890625,0.6369736194610596,-2.3718695640563965,1.9637954235076904
1783170408070065400,3.7800654296875,0.6711276769638062,-2.1730618476867676,1.870894432067871
1783170408080135700,3.7901357421875,0.6989251971244812,-1.9491291046142578,1.7583616971969604
1783170408090205700,3.800205810546875,0.7278153300285339,-1.7319222688674927,1.6512075662612915
1783170408100276700,3.81027685546875,0.7615298628807068,-1.5734179019927979,1.5593279600143433
1783170408110346500,3.820346435546875,0.7979846000671387,-1.4983583688735962,1.5051602125167847
1783170408120416800,3.830416748046875,0.8267147541046143,-1.4961591958999634,1.4833300113677979
1783170408130487800,3.84048779296875,0.8598503470420837,-1.546618938446045,1.480913519859314
1783170408140557600,3.8505576171875,0.8938419222831726,-1.6423081159591675,1.4971282482147217
1783170408150628600,3.860628662109375,0.9280145764350891,-1.7746741771697998,1.530163288116455
1783170408160698600,3.87069873046875,0.9587879180908203,-1.9285115003585815,1.5709055662155151
1783170408170768400,3.880768310546875,0.9783318042755127,-2.091053009033203,1.6198904514312744
1783170408180839400,3.89083935546875,0.9818956255912781,-2.265589952468872,1.6761829853057861
1783170408190909700,3.90090966796875,0.9761856198310852,-2.4287400245666504,1.7295368909835815
1783170408200979700,3.910979736328125,0.9600775241851807,-2.5601816177368164,1.7883634567260742
1783170408211050500,3.921050537109375,0.9481065273284912,-2.6654114723205566,1.8313813209533691
1783170408221120500,3.93112060546875,0.9417080283164978,-2.7385690212249756,1.8623923063278198
1783170408231191600,3.941191650390625,0.9343433380126953,-2.770850896835327,1.8879663944244385
1783170408241261800,3.95126171875,0.9186535477638245,-2.761103630065918,1.8884832859039307
1783170408251331600,3.96133154296875,0.8896762728691101,-2.7319369316101074,1.8613958358764648
1783170408261402600,3.971402587890625,0.8452001810073853,-2.7005271911621094,1.8218446969985962
1783170408271472600,3.98147265625,0.7997612953186035,-2.6589794158935547,1.782820463180542
1783170408281543400,3.99154345703125,0.7471688985824585,-2.6120574474334717,1.7538721561431885
1783170408291613700,4.00161376953125,0.6909287571907043,-2.578821897506714,1.7296608686447144
1783170408301683700,4.01168359375,0.6319650411605835,-2.5476112365722656,1.7212226390838623
1783170408311754800,4.021754638671875,0.5625527501106262,-2.5080885887145996,1.7313786745071411
1783170408321824500,4.031824462890625,0.4808453619480133,-2.439530611038208,1.7193832397460938
1783170408331894500,4.04189453125,0.3873061239719391,-2.368450403213501,1.680401086807251
1783170408341965600,4.051965576171875,0.29620203375816345,-2.315504789352417,1.629805564880371
1783170408352035600,4.06203564453125,0.2190680056810379,-2.2922000885009766,1.5759152173995972
1783170408362105600,4.072105712890625,0.16900323331356049,-2.2863879203796387,1.5331895351409912
1783170408372176600,4.0821767578125,0.16387009620666504,-2.268751382827759,1.5227875709533691
1783170408382246400,4.092246337890625,0.21162191033363342,-2.2542898654937744,1.5395255088806152
1783170408392317400,4.1023173828125,0.284269779920578,-2.2653684616088867,1.6069884300231934
1783170408402387700,4.1123876953125,0.35252341628074646,-2.302485466003418,1.7178961038589478
1783170408412457700,4.122457763671875,0.38698622584342957,-2.334669828414917,1.8331595659255981
1783170408422528500,4.132528564453125,0.3779682219028473,-2.354614496231079,1.926200032234192
1783170408432598500,4.1425986328125,0.3469690680503845,-2.3497471809387207,1.960266351699829
1783170408442669600,4.152669677734375,0.30422452092170715,-2.3292269706726074,1.9312623739242554
1783170408452739800,4.16273974609375,0.23618531227111816,-2.266303062438965,1.8710100650787354
1783170408462809600,4.1728095703125,0.16242241859436035,-2.189610481262207,1.7887170314788818
1783170408472880600,4.182880615234375,0.1008530929684639,-2.1106607913970947,1.7137014865875244
1783170408482950700,4.19295068359375,0.06543810665607452,-2.027252435684204,1.6356092691421509
1783170408493020400,4.2030205078125,0.05970165506005287,-1.950613260269165,1.5518566370010376
1783170408503091500,4.213091552734375,0.06981847435235977,-1.9201898574829102,1.4658266305923462
1783170408513161700,4.22316162109375,0.09126678109169006,-1.9332070350646973,1.394897222518921
1783170408523232800,4.233232666015625,0.1232372298836708,-1.9752966165542603,1.361908197402954
1783170408533302500,4.243302490234375,0.15786655247211456,-2.0560810565948486,1.3725987672805786
1783170408543372500,4.25337255859375,0.18540284037590027,-2.1535542011260986,1.4242746829986572
1783170408553443600,4.263443603515625,0.20144574344158173,-2.2416250705718994,1.4832220077514648
1783170408563513600,4.273513671875,0.20657606422901154,-2.2761971950531006,1.5277397632598877
1783170408573583600,4.28358349609375,0.2112988829612732,-2.246232509613037,1.5241791009902954
1783170408583654700,4.293654541015625,0.19488129019737244,-2.175532817840576,1.4686599969863892
1783170408593724700,4.303724609375,0.1484978348016739,-2.0687105655670166,1.3881736993789673
1783170408603795500,4.31379541015625,0.09520958364009857,-1.9185518026351929,1.2870153188705444
1783170408613865700,4.32386572265625,0.027784941717982292,-1.7401151657104492,1.1793859004974365
1783170408623935700,4.333935791015625,-0.045068226754665375,-1.5316309928894043,1.081298828125
1783170408634006500,4.344006591796875,-0.11662498116493225,-1.3269321918487549,0.9827836155891418
1783170408644076500,4.35407666015625,-0.18064497411251068,-1.1239713430404663,0.8913253545761108
1783170408654146600,4.364146484375,-0.2544485330581665,-0.9360347986221313,0.8272994756698608
1783170408664217600,4.374217529296875,-0.3141544759273529,-0.7538855075836182,0.7883867025375366
1783170408674287600,4.38428759765625,-0.35422444343566895,-0.6280694603919983,0.7502347826957703
1783170408684357600,4.394357666015625,-0.3780013918876648,-0.5445745587348938,0.6993601322174072
1783170408694428700,4.4044287109375,-0.3833296000957489,-0.4693748354911804,0.6501634120941162
1783170408704498400,4.41449853515625,-0.364979088306427,-0.4069164991378784,0.5999058485031128
1783170408714569500,4.424569580078125,-0.3388701379299164,-0.37763065099716187,0.5571240186691284
1783170408724639700,4.4346396484375,-0.3157464563846588,-0.38547980785369873,0.5629153251647949
1783170408734709500,4.44470947265625,-0.28599822521209717,-0.4296400845050812,0.6341151595115662
1783170408744780500,4.454780517578125,-0.2627459168434143,-0.49866577982902527,0.7498196959495544
1783170408754850600,4.4648505859375,-0.2301722764968872,-0.5799317359924316,0.8703309893608093
1783170408764920800,4.4749208984375,-0.1926209032535553,-0.6718251705169678,0.9726213812828064
1783170408774991600,4.48499169921875,-0.15219751000404358,-0.7957610487937927,1.04842209815979
1783170408785061600,4.4950615234375,-0.11421578377485275,-0.9443702101707458,1.121415615081787
1783170408795131600,4.505131591796875,-0.08366057276725769,-1.0932462215423584,1.214990496635437
1783170408805202700,4.51520263671875,-0.0554603636264801,-1.2144852876663208,1.3013216257095337
1783170408815272400,4.5252724609375,-0.038512032479047775,-1.322016954421997,1.361031174659729
1783170408825343500,4.535343505859375,-0.02920774556696415,-1.4050953388214111,1.3684622049331665
1783170408835413800,4.545413818359375,-0.026568813249468803,-1.4257712364196777,1.3475786447525024
1783170408845483500,4.5554833984375,-0.038304030895233154,-1.3927037715911865,1.3224549293518066
1783170408855554600,4.565554443359375,-0.04627987742424011,-1.3539981842041016,1.3021910190582275
1783170408865624600,4.57562451171875,-0.04825008660554886,-1.3378602266311646,1.2849920988082886
1783170408875694600,4.585694580078125,-0.05134681984782219,-1.3171327114105225,1.2601417303085327
1783170408885765600,4.595765625,-0.05657114461064339,-1.2710363864898682,1.2161966562271118
1783170408895835600,4.605835693359375,-0.06262078881263733,-1.2103303670883179,1.1609714031219482
1783170408905906700,4.61590673828125,-0.06127536669373512,-1.1639440059661865,1.0965322256088257
1783170408915976400,4.6259765625,-0.04347847402095795,-1.118839144706726,1.0237197875976562
1783170408926046700,4.636046630859375,-0.013127228245139122,-1.0688049793243408,0.9642817378044128
1783170408936117800,4.64611767578125,0.043761011213064194,-1.0167427062988281,0.9353743195533752
1783170408946187500,4.6561875,0.12440977990627289,-0.9612032771110535,0.9264466166496277
1783170408956257500,4.666257568359375,0.18290135264396667,-0.9122521281242371,0.928219199180603
1783170408966327600,4.67632763671875,0.17687435448169708,-0.8861821889877319,0.9120780229568481
1783170408976397600,4.6863974609375,0.12113683670759201,-0.8764022588729858,0.8494078516960144
1783170408986467600,4.696467529296875,0.04350303113460541,-0.9025563597679138,0.741840124130249
1783170408996538600,4.70653857421875,-0.017592797055840492,-0.9420511722564697,0.6354420185089111
1783170409006608600,4.716608642578125,-0.02437213994562626,-0.9746983647346497,0.5740603804588318
1783170409016679400,4.726679443359375,0.025236736983060837,-0.9769058227539062,0.5503087043762207
1783170409026749700,4.736749755859375,0.11123580485582352,-0.9799637198448181,0.5571418404579163
1783170409036819700,4.74681982421875,0.2170381098985672,-1.010915994644165,0.5914392471313477
1783170409046890500,4.756890380859375,0.32257866859436035,-1.020477533340454,0.6594142913818359
1783170409056960500,4.76696044921875,0.3779321610927582,-1.024660587310791,0.7403407096862793
1783170409067030800,4.77703076171875,0.39275050163269043,-1.005308985710144,0.817107617855072
1783170409077101800,4.787101806640625,0.3665839433670044,-0.9413154721260071,0.8907263278961182
1783170409087171600,4.797171630859375,0.3158656358718872,-0.8101246953010559,0.9401820302009583
1783170409097241600,4.80724169921875,0.2282566875219345,-0.6527116298675537,0.94320148229599
1783170409107312600,4.817312744140625,0.1075206845998764,-0.5023474097251892,0.8861847519874573
1783170409117382400,4.82738232421875,-0.02304297499358654,-0.3592028021812439,0.7946413159370422
1783170409127453400,4.837453369140625,-0.15100465714931488,-0.2187705785036087,0.7102063298225403
1783170409137523700,4.847523681640625,-0.2708534896373749,-0.1069571003317833,0.637840211391449
1783170409147593500,4.857593505859375,-0.3763527572154999,-0.12453876435756683,0.6112591624259949
1783170409157664500,4.86766455078125,-0.42320090532302856,-0.7599398493766785,0.8101605176925659
1783170409167734500,4.877734619140625,-0.45839351415634155,-2.151265859603882,1.298933744430542
1783170409177804800,4.8878046875,-0.5213778018951416,-3.426182985305786,1.6975102424621582
1783170409187875600,4.89787548828125,-0.621174693107605,-4.0301055908203125,1.7772045135498047
1783170409197945600,4.907945556640625,-0.7111515998840332,-4.1023054122924805,1.6201258897781372
1783170409208015600,4.918015625,-0.802545964717865,-3.8531334400177,1.3270844221115112
1783170409218086700,4.928086669921875,-0.8985959887504578,-3.388183116912842,1.0235904455184937
1783170409228156700,4.93815673828125,-0.9215788245201111,-2.807494878768921,0.7765310406684875
1783170409238227700,4.948227783203125,-0.8928080797195435,-2.1474931240081787,0.5492755770683289
1783170409248297700,4.958297607421875,-0.83262699842453,-1.452865719795227,0.2859813868999481
1783170409258367500,4.968367431640625,-0.7524824738502502,-0.730044424533844,-0.028300730511546135
1783170409268438500,4.9784384765625,-0.663223147392273,-0.05142699554562569,-0.3495386838912964
1783170409278508500,4.988508544921875,-0.5762820839881897,0.4837782382965088,-0.6296234726905823
1783170409288578600,4.99857861328125,-0.48021361231803894,0.901724636554718,-0.866274356842041
1783170409298649600,5.008649658203125,-0.357204407453537,1.186586856842041,-1.0346013307571411
1783170409308719600,5.0187197265625,-0.23069651424884796,1.280515432357788,-1.1059788465499878
1783170409318789600,5.02878955078125,-0.11896970123052597,1.2255293130874634,-1.0883829593658447
1783170409328860400,5.0388603515625,-0.039799779653549194,1.0778608322143555,-0.984738826751709
1783170409338930700,5.0489306640625,-0.0038695053663104773,0.8888355493545532,-0.8557701706886292
1783170409349001700,5.059001708984375,-0.019901467487215996,0.6711032390594482,-0.7182594537734985
1783170409359071500,5.069071533203125,-0.056152891367673874,0.43152233958244324,-0.5777266621589661
1783170409369141500,5.0791416015625,-0.10422427952289581,0.23218022286891937,-0.44050830602645874
1783170409379212500,5.089212646484375,-0.15148015320301056,0.07680687308311462,-0.3164612650871277
1783170409389282800,5.09928271484375,-0.17635273933410645,-0.059849511831998825,-0.229954332113266
1783170409399352600,5.1093525390625,-0.19574779272079468,-0.14060094952583313,-0.19690057635307312
1783170409409423600,5.119423583984375,-0.19758804142475128,-0.09348989278078079,-0.19703586399555206
1783170409419493600,5.12949365234375,-0.17146970331668854,0.026417069137096405,-0.2361537218093872
1783170409429563600,5.139563720703125,-0.12280656397342682,0.13701947033405304,-0.27812567353248596
1783170409439634700,5.149634765625,-0.05836601182818413,0.2031126171350479,-0.3062821924686432
1783170409449704700,5.15970458984375,0.019331444054841995,0.22010864317417145,-0.29071709513664246
1783170409459774500,5.1697744140625,0.09315751492977142,0.20189008116722107,-0.23276211321353912
1783170409469845500,5.179845458984375,0.1571332961320877,0.19307954609394073,-0.16359075903892517
1783170409479915500,5.18991552734375,0.20644284784793854,0.16965945065021515,-0.10645217448472977
1783170409489986600,5.199986572265625,0.24506321549415588,0.13551346957683563,-0.06377874314785004
1783170409500056600,5.210056640625,0.271671861410141,0.11294503509998322,-0.02146109938621521
1783170409510126600,5.220126708984375,0.2856270968914032,0.10180369764566422,0.009675247594714165
1783170409520197600,5.23019775390625,0.29456597566604614,0.10473398119211197,0.023233050480484962
1783170409530267600,5.240267578125,0.29532575607299805,0.11852382868528366,0.010785436257719994
1783170409540337700,5.250337646484375,0.2963559627532959,0.13264137506484985,-0.01950935833156109
1783170409550408700,5.26040869140625,0.29541826248168945,0.1384366750717163,-0.04681261628866196
1783170409560478700,5.270478759765625,0.2860561013221741,0.14124032855033875,-0.05500689148902893
1783170409570548500,5.280548583984375,0.2689961791038513,0.1398554891347885,-0.050161805003881454
1783170409580619500,5.29061962890625,0.25535470247268677,0.12987275421619415,-0.04260262846946716
1783170409590689500,5.300689453125,0.24234728515148163,0.10232501477003098,-0.03501448780298233
1783170409600759600,5.310759521484375,0.23439642786979675,0.06882777810096741,-0.034151092171669006
1783170409610830600,5.32083056640625,0.2307036817073822,0.02177983894944191,-0.026240170001983643
1783170409620899600,5.330899658203125,0.22549153864383698,-0.018580898642539978,-0.02253219485282898
1783170409630969600,5.340969482421875,0.22370882332324982,-0.02882927656173706,-0.025143424049019814
1783170409641039600,5.35103955078125,0.23172809183597565,-0.012900374829769135,-0.036971982568502426
1783170409651110700,5.361110595703125,0.2515223026275635,0.021054662764072418,-0.05367879197001457
1783170409661180400,5.371180419921875,0.2711261510848999,0.05300860106945038,-0.07436978816986084
1783170409671250700,5.381250732421875,0.28824469447135925,0.046358153223991394,-0.1084505245089531
1783170409681321700,5.39132177734375,0.30839285254478455,0.045468658208847046,-0.14135321974754333
1783170409691391700,5.401391845703125,0.3194657564163208,0.07873740047216415,-0.16350433230400085
1783170409701461500,5.41146142578125,0.33741602301597595,0.14852792024612427,-0.19103790819644928
1783170409711532500,5.421532470703125,0.3549659848213196,0.21740658581256866,-0.2337733954191208
1783170409721602600,5.4316025390625,0.3620730936527252,0.2786411941051483,-0.2846708595752716
1783170409731672600,5.441672607421875,0.3764418959617615,0.3533945381641388,-0.3348493278026581
1783170409741743600,5.45174365234375,0.4165063202381134,0.4294240474700928,-0.3798335790634155
1783170409751813600,5.461813720703125,0.4845418334007263,0.49425044655799866,-0.4023769497871399
1783170409761883400,5.47188330078125,0.5897365808486938,0.5560979843139648,-0.41864636540412903
1783170409771954400,5.481954345703125,0.7080102562904358,0.5824803113937378,-0.40484344959259033
1783170409782024700,5.492024658203125,0.8205710053443909,0.570239782333374,-0.3591689467430115
1783170409792095700,5.502095703125,0.9156152009963989,0.5019736289978027,-0.2899201214313507
1783170409802165500,5.51216552734375,0.9929541945457458,0.4009014666080475,-0.1891140341758728
1783170409812235500,5.522235595703125,1.0486692190170288,0.28354793787002563,-0.08215349167585373
1783170409822306600,5.532306640625,1.0776972770690918,0.19152534008026123,0.023761140182614326
1783170409832376800,5.542376953125,1.0984067916870117,0.11568809300661087,0.11817339062690735
1783170409842446600,5.552446533203125,1.105269193649292,0.0394630953669548,0.2043951004743576
1783170409852517600,5.562517578125,1.0850896835327148,-0.030040346086025238,0.29378917813301086
1783170409862587600,5.572587646484375,1.031809687614441,-0.09807026386260986,0.3921431601047516
1783170409872657700,5.58265771484375,0.9572979211807251,-0.13592283427715302,0.4836674928665161
1783170409882728700,5.592728759765625,0.861667811870575,-0.16985470056533813,0.5602970719337463
1783170409892798700,5.602798828125,0.7612437605857849,-0.2221221625804901,0.6203945279121399
1783170409902868500,5.612868408203125,0.6584281921386719,-0.27573373913764954,0.6616286635398865
1783170409912939500,5.622939453125,0.5534288287162781,-0.3264664113521576,0.6863552927970886
1783170409923009500,5.633009521484375,0.46121928095817566,-0.3880932927131653,0.7074680924415588
1783170409933079800,5.643079833984375,0.3699692487716675,-0.46865764260292053,0.7412375211715698
1783170409943150600,5.653150634765625,0.28896087408065796,-0.5743902325630188,0.7808764576911926
1783170409953220600,5.663220703125,0.22778086364269257,-0.6831747889518738,0.8269555568695068
1783170409963290600,5.67329052734375,0.18824176490306854,-0.781204104423523,0.8764998316764832
1783170409973362400,5.683362548828125,0.1677258312702179,-0.8537036180496216,0.9093805551528931
1783170409983432200,5.69343212890625,0.1657964140176773,-0.899249255657196,0.9298591017723083
1783170409993502500,5.70350244140625,0.16730882227420807,-0.9464399218559265,0.9150825142860413
1783170410003575300,5.7135751953125,0.16812698543071747,-0.9873584508895874,0.8897783160209656
1783170410013646300,5.723646240234375,0.17235688865184784,-1.0078892707824707,0.8487496376037598
1783170410023716400,5.73371630859375,0.17436350882053375,-0.9914377331733704,0.795478880405426
1783170410033786400,5.743786376953125,0.17186839878559113,-0.9441485404968262,0.7137389779090881
1783170410043857400,5.753857421875,0.16643394529819489,-0.8843969702720642,0.624365508556366
1783170410053927400,5.763927490234375,0.15035083889961243,-0.8180104494094849,0.5415872931480408
1783170410063997200,5.7739970703125,0.12587401270866394,-0.7253296375274658,0.48301732540130615
1783170410074068200,5.784068115234375,0.09199541062116623,-0.6344756484031677,0.43549588322639465
1783170410084138500,5.794138427734375,0.03813137114048004,-0.5374815464019775,0.38856232166290283
1783170410094208300,5.804208251953125,-0.03944837674498558,-0.4221757650375366,0.3136342763900757
1783170410104279300,5.814279296875,-0.12483176589012146,-0.2977769672870636,0.20594212412834167
1783170410114349300,5.824349365234375,-0.21482184529304504,-0.17894433438777924,0.08601652085781097
1783170410124419300,5.83441943359375,-0.30503877997398376,-0.07589772343635559,-0.022820690646767616
1783170410134490400,5.844490478515625,-0.37930792570114136,0.00228896364569664,-0.10789083689451218
1783170410144560400,5.854560302734375,-0.4346984922885895,0.05672796815633774,-0.1655610352754593
1783170410154630400,5.86463037109375,-0.4750469923019409,0.07883168011903763,-0.19717994332313538
1783170410164701400,5.874701416015625,-0.5010815262794495,0.09222790598869324,-0.20308348536491394
1783170410174771200,5.884771240234375,-0.5207215547561646,0.12062226235866547,-0.19959181547164917
1783170410184842200,5.89484228515625,-0.523811936378479,0.15044501423835754,-0.19481027126312256
1783170410194912500,5.90491259765625,-0.5211389064788818,0.18605093657970428,-0.20355263352394104
1783170410204982300,5.914982177734375,-0.5088419318199158,0.22699731588363647,-0.22227178514003754
1783170410215053300,5.92505322265625,-0.48536643385887146,0.26691141724586487,-0.24312326312065125
1783170410225123300,5.935123291015625,-0.45402052998542786,0.27428826689720154,-0.24312935769557953
1783170410235193300,5.945193359375,-0.4261998236179352,0.2596227824687958,-0.22313754260540009
1783170410245264400,5.955264404296875,-0.4001293182373047,0.219395712018013,-0.17453153431415558
1783170410255334400,5.96533447265625,-0.3738231360912323,0.17108038067817688,-0.10459399968385696
1783170410265404400,5.975404296875,-0.3522632420063019,0.11606905609369278,-0.031044185161590576
1783170410275475200,5.98547509765625,-0.3324120342731476,0.05679002404212952,0.035873595625162125
1783170410285545500,5.99554541015625,-0.31549036502838135,0.0000632256269454956,0.0909259170293808
1783170410295615500,6.005615478515625,-0.2990698516368866,-0.04419078677892685,0.12208863347768784
1783170410305686500,6.0156865234375,-0.2874959409236908,-0.08740030974149704,0.14167988300323486
1783170410315756300,6.02575634765625,-0.28601551055908203,-0.10874607414007187,0.12515656650066376
1783170410325826300,6.035826416015625,-0.30802464485168457,-0.11565978080034256,0.0894690752029419
1783170410335897300,6.0458974609375,-0.33114194869995117,-0.12717369198799133,0.04033881053328514
1783170410345967400,6.05596728515625,-0.3492210805416107,-0.15478773415088654,-0.006259542424231768
1783170410356037400,6.066037353515625,-0.3429868817329407,-0.18956196308135986,-0.036610256880521774
1783170410366108400,6.0761083984375,-0.32369759678840637,-0.22887301445007324,-0.04997730627655983
1783170410376178200,6.08617822265625,-0.2991618812084198,-0.23210929334163666,-0.05325059965252876
1783170410386248400,6.09624853515625,-0.26182782649993896,-0.2071341723203659,-0.04168981686234474
1783170410396319500,6.106319580078125,-0.23276396095752716,-0.1981651782989502,-0.060177743434906006
1783170410406389500,6.116389404296875,-0.24036355316638947,-0.2165449857711792,-0.12118463963270187
1783170410416459300,6.126459228515625,-0.25333020091056824,-0.21640756726264954,-0.2093920111656189
1783170410426530300,6.1365302734375,-0.2538311183452606,-0.17416903376579285,-0.305158406496048
1783170410436600300,6.146600341796875,-0.2064194232225418,-0.11425242573022842,-0.3721209168434143
1783170410446670300,6.15667041015625,-0.13820500671863556,-0.06716294586658478,-0.41049912571907043
1783170410456741400,6.166741455078125,-0.06662188470363617,0.02656620740890503,-0.3963942229747772
1783170410466811400,6.176811279296875,-0.01489932369440794,0.17949384450912476,-0.3613586723804474
1783170410476881200,6.186881103515625,0.022692527621984482,0.3870677947998047,-0.35350313782691956
1783170410486952200,6.1969521484375,0.060868944972753525,0.5897637605667114,-0.3846436142921448
1783170410497022500,6.2070224609375,0.10920345783233643,0.7223921418190002,-0.4643368422985077
1783170410507092500,6.217092529296875,0.16843803226947784,0.7623673677444458,-0.5451207160949707
1783170410517163300,6.227163330078125,0.22835569083690643,0.7115939259529114,-0.5844894647598267
1783170410527233300,6.2372333984375,0.2654695510864258,0.5742059946060181,-0.5589337944984436
1783170410537303600,6.247303466796875,0.26710689067840576,0.367246150970459,-0.4646262228488922
1783170410547374300,6.257374267578125,0.2174926996231079,0.13155707716941833,-0.31153160333633423
1783170410557444400,6.2674443359375,0.11701697111129761,-0.0758081004023552,-0.148119255900383
1783170410567514400,6.277514404296875,0.005216607823967934,-0.22780096530914307,-0.019876938313245773
1783170410577585400,6.28758544921875,-0.09806423634290695,-0.3270854651927948,0.045974250882864
1783170410587655400,6.297655517578125,-0.1788644790649414,-0.36819109320640564,0.05981733277440071
1783170410597726500,6.3077265625,-0.23547716438770294,-0.3357087969779968,0.03032282367348671
1783170410607796500,6.31779638671875,-0.2848426103591919,-0.22201217710971832,-0.025676535442471504
1783170410617866200,6.3278662109375,-0.3171693980693817,-0.059395305812358856,-0.1258622705936432
1783170410627937300,6.337937255859375,-0.32865986227989197,0.1152418777346611,-0.2568736970424652
1783170410638007300,6.34800732421875,-0.33248791098594666,0.3274281620979309,-0.393657922744751
1783170410648077300,6.358077392578125,-0.32120275497436523,0.5586875081062317,-0.515683650970459
1783170410658148400,6.3681484375,-0.3021041750907898,0.7515317797660828,-0.6235626935958862
1783170410668218400,6.37821826171875,-0.2731356620788574,0.8747479319572449,-0.7005302906036377
1783170410678288400,6.388288330078125,-0.2379283905029297,0.9315239191055298,-0.7184637784957886
1783170410688359200,6.398359130859375,-0.19545488059520721,0.9305667877197266,-0.6777448058128357
1783170410698429400,6.408429443359375,-0.16064603626728058,0.8961659073829651,-0.6137279868125916
1783170410708499500,6.41849951171875,-0.14676138758659363,0.8661289215087891,-0.539644181728363
1783170410718570500,6.428570556640625,-0.13453108072280884,0.8294411897659302,-0.4841524362564087
1783170410728640300,6.43864013671875,-0.12441936880350113,0.778157114982605,-0.4330330193042755
1783170410738710500,6.44871044921875,-0.11794228851795197,0.7185116410255432,-0.38404497504234314
1783170410748781600,6.458781494140625,-0.10417480021715164,0.6830697655677795,-0.3326760530471802
1783170410758851300,6.468851318359375,-0.08805201947689056,0.6737247109413147,-0.28115931153297424
1783170410768921300,6.47892138671875,-0.0778217539191246,0.6804125905036926,-0.24129776656627655
1783170410778992400,6.488992431640625,-0.06499437242746353,0.6737978458404541,-0.21475350856781006
1783170410789062100,6.499062255859375,-0.05056002736091614,0.6578596234321594,-0.18695034086704254
1783170410799132400,6.50913232421875,-0.035200513899326324,0.6698228120803833,-0.17402015626430511
1783170410809203500,6.519203369140625,-0.01869986020028591,0.6594020128250122,-0.16708765923976898
1783170410819273500,6.5292734375,-0.001251628389582038,0.5820515751838684,-0.1543542742729187
1783170410829343200,6.53934326171875,0.012271419167518616,0.4733731150627136,-0.11699753999710083
1783170410839414300,6.549414306640625,0.0338616669178009,0.3754984736442566,-0.07305324822664261
1783170410849484500,6.559484619140625,0.06332897394895554,0.29010650515556335,-0.0427510067820549
1783170410859554300,6.56955419921875,0.10072748363018036,0.21735799312591553,-0.026877235621213913
1783170410869625300,6.579625244140625,0.13885357975959778,0.16273723542690277,-0.026520714163780212
1783170410879695400,6.5896953125,0.17939914762973785,0.13423874974250793,-0.043011005967855453
1783170410889765400,6.599765380859375,0.21789835393428802,0.1168401762843132,-0.059136442840099335
1783170410899836400,6.60983642578125,0.25536876916885376,0.11522097140550613,-0.08346575498580933
1783170410909906400,6.619906494140625,0.29146069288253784,0.13834866881370544,-0.09932050108909607
1783170410919976400,6.6299765625,0.3329111933708191,0.17866653203964233,-0.10361938178539276
1783170410930047200,6.640047119140625,0.37042659521102905,0.20124080777168274,-0.1072373241186142
1783170410940117200,6.6501171875,0.4084964990615845,0.20480278134346008,-0.10871297866106033
1783170410950187500,6.6601875,0.43431904911994934,0.17945030331611633,-0.11648213863372803
1783170410960258300,6.67025830078125,0.4572129249572754,0.13257919251918793,-0.10742925852537155
1783170410970328300,6.680328369140625,0.45574870705604553,0.05625273287296295,-0.07966150343418121
1783170410980398000,6.690398193359375,0.4497795104980469,-0.04115691035985947,-0.03450734168291092
1783170410990469000,6.70046923828125,0.43461814522743225,-0.1328096091747284,0.011672746390104294
1783170411000539400,6.710539306640625,0.42551732063293457,-0.2032632678747177,0.06904841959476471
1783170411010609200,6.720609130859375,0.4154919385910034,-0.2755855321884155,0.1277240663766861
1783170411020680200,6.73068017578125,0.41183754801750183,-0.3532252013683319,0.18759138882160187
1783170411030750200,6.740750244140625,0.409636914730072,-0.41928115487098694,0.25105783343315125
1783170411040820200,6.7508203125,0.4036541283130646,-0.4686175584793091,0.31431296467781067
1783170411050891300,6.760891357421875,0.3926307260990143,-0.5189592838287354,0.38199496269226074
1783170411060961300,6.770961181640625,0.36977067589759827,-0.5706261992454529,0.4386334717273712
1783170411071031300,6.78103125,0.3385739326477051,-0.6291828751564026,0.4803888499736786
1783170411081102000,6.79110205078125,0.329202264547348,-0.6936510801315308,0.5098586082458496
1783170411091172000,6.801172119140625,0.3363555371761322,-0.7559104561805725,0.5351206660270691
1783170411101242400,6.811242431640625,0.3575729429721832,-0.8141436576843262,0.5677832365036011
1783170411111313400,6.8213134765625,0.39075034856796265,-0.8673151731491089,0.5946331024169922
1783170411121383200,6.831383056640625,0.41434383392333984,-0.9049136638641357,0.6240442991256714
1783170411131453200,6.841453125,0.4199274182319641,-0.928866446018219,0.6438190340995789
1783170411141524200,6.851524169921875,0.41433024406433105,-0.971019446849823,0.66420978307724
1783170411151594200,6.86159423828125,0.4073309004306793,-1.020781397819519,0.6860004663467407
1783170411161664300,6.871664306640625,0.4005206525325775,-1.0708813667297363,0.7111257910728455
1783170411171735300,6.8817353515625,0.4087943136692047,-1.1443029642105103,0.7591169476509094
1783170411181805000,6.89180517578125,0.4350067377090454,-1.2144283056259155,0.8325616121292114
1783170411191875300,6.901875244140625,0.45793837308883667,-1.2664012908935547,0.9139217734336853
1783170411201946400,6.9119462890625,0.4640314280986786,-1.2957602739334106,0.9924299120903015
1783170411212016400,6.922016357421875,0.45139044523239136,-1.3275290727615356,1.0414994955062866
1783170411222086100,6.932086181640625,0.4088786542415619,-1.3728512525558472,1.0737091302871704
1783170411232156200,6.94215625,0.3481091558933258,-1.426415205001831,1.0965421199798584
1783170411242227200,6.952227294921875,0.26742708683013916,-1.506589651107788,1.1396526098251343
1783170411252297200,6.962297119140625,0.18544569611549377,-1.6039769649505615,1.1975115537643433
1783170411262367200,6.9723671875,0.10598842799663544,-1.716072678565979,1.261179804801941
1783170411272438300,6.982438232421875,0.038757409900426865,-1.8360180854797363,1.3073713779449463
1783170411282508000,6.992508056640625,-0.017749544233083725,-1.962825059890747,1.3263970613479614
1783170411292578300,7.002578369140625,-0.06122729554772377,-2.1027767658233643,1.3498722314834595
1783170411302649300,7.0126494140625,-0.08685249835252762,-2.2341537475585938,1.384491205215454
1783170411312719400,7.02271923828125,-0.1078360453248024,-2.3468990325927734,1.435390591621399
1783170411322789000,7.0327890625,-0.13417497277259827,-2.444627285003662,1.4888969659805298
1783170411332860200,7.042860107421875,-0.1605575531721115,-2.518228769302368,1.5314313173294067
1783170411342930400,7.052930419921875,-0.18797266483306885,-2.583667755126953,1.5572583675384521
1783170411353000200,7.063000244140625,-0.21026411652565002,-2.6005353927612305,1.558353066444397
1783170411363071200,7.0730712890625,-0.23160669207572937,-2.564696788787842,1.5362892150878906
1783170411373141200,7.083141357421875,-0.2550742030143738,-2.4981801509857178,1.4883805513381958
1783170411383211000,7.0932109375,-0.30877259373664856,-2.4170899391174316,1.4268232583999634
1783170411393282000,7.103281982421875,-0.36046209931373596,-2.380388021469116,1.384670615196228
1783170411403352300,7.113352294921875,-0.4080493450164795,-2.3388824462890625,1.376090168952942
1783170411413422300,7.12342236328125,-0.4520496129989624,-2.2878222465515137,1.3878042697906494
1783170411423493000,7.1334931640625,-0.5041357278823853,-2.22634220123291,1.4095710515975952
1783170411433563100,7.143563232421875,-0.5728678703308105,-2.134160280227661,1.4205358028411865
1783170411443633400,7.15363330078125,-0.6393885612487793,-2.0447306632995605,1.4234980344772339
1783170411453704200,7.1637041015625,-0.6820639371871948,-1.9675559997558594,1.4214504957199097
1783170411463774200,7.173774169921875,-0.6616926193237305,-1.8621193170547485,1.4261053800582886
1783170411473844200,7.18384423828125,-0.5900609493255615,-1.6993509531021118,1.4256768226623535
1783170411483915300,7.193915283203125,-0.5320184230804443,-1.5159587860107422,1.4043798446655273
1783170411493985300,7.2039853515625,-0.49544015526771545,-1.3571897745132446,1.367238163948059
1783170411504055300,7.21405517578125,-0.48304155468940735,-1.2549331188201904,1.338779330253601
1783170411514126300,7.224126220703125,-0.5031092166900635,-1.1911745071411133,1.336974859237671
1783170411524196000,7.234196044921875,-0.5235007405281067,-1.1536575555801392,1.346609354019165
1783170411534266000,7.24426611328125,-0.5540065169334412,-1.1481962203979492,1.3609622716903687
1783170411544337200,7.254337158203125,-0.580544650554657,-1.1633107662200928,1.3659613132476807
1783170411554407200,7.2644072265625,-0.5920109152793884,-1.2159883975982666,1.3604708909988403
1783170411564477200,7.274477294921875,-0.6076931953430176,-1.2629177570343018,1.3666051626205444
1783170411574548200,7.28454833984375,-0.626168966293335,-1.2834900617599487,1.3809654712677002
1783170411584618200,7.2946181640625,-0.6440598368644714,-1.2752366065979004,1.4117329120635986
1783170411594688300,7.304688232421875,-0.6432168483734131,-1.2584867477416992,1.4545806646347046
1783170411604759300,7.31475927734375,-0.6372524499893188,-1.2200170755386353,1.480412244796753
1783170411614829300,7.324829345703125,-0.6424747109413147,-1.1607319116592407,1.5038896799087524
1783170411624899000,7.334899169921875,-0.6637235283851624,-1.091684103012085,1.5270283222198486
1783170411634969300,7.34496923828125,-0.746191143989563,-1.0018374919891357,1.5495085716247559
1783170411645040400,7.355040283203125,-0.8501497507095337,-0.9029703140258789,1.562798023223877
1783170411655110100,7.365110107421875,-0.94920414686203,-0.7742462158203125,1.5568897724151611
1783170411665180200,7.37518017578125,-1.0271520614624023,-0.6026533842086792,1.5276119709014893
1783170411675251200,7.385251220703125,-1.067554235458374,-0.43878111243247986,1.50592041015625
1783170411685321200,7.3953212890625,-1.044963002204895,-0.33632877469062805,1.4687751531600952
1783170411695391200,7.40539111328125,-0.9936270117759705,-0.23579709231853485,1.3808931112289429
1783170411705462300,7.415462158203125,-0.9591726064682007,-0.16919170320034027,1.292799711227417
1783170411715532300,7.4255322265625,-0.9938890337944031,-0.13252291083335876,1.245747685432434
1783170411725602000,7.43560205078125,-1.0664104223251343,-0.05781111866235733,1.1958088874816895
1783170411735673000,7.445673095703125,-1.1208339929580688,0.10817185789346695,1.1181800365447998
1783170411745743400,7.455743408203125,-1.1051477193832397,0.29285570979118347,1.0926275253295898
1783170411755813000,7.465813232421875,-1.0070581436157227,0.4564612805843353,1.1325632333755493
1783170411765884200,7.47588427734375,-0.8657824993133545,0.5649805665016174,1.2181459665298462
1783170411775954200,7.4859541015625,-0.7434044480323792,0.6310555934906006,1.3149569034576416
1783170411786024400,7.4960244140625,-0.7109066843986511,0.6900933384895325,1.368425726890564
1783170411796095200,7.50609521484375,-0.7529840469360352,0.6877142190933228,1.406580924987793
1783170411806165200,7.516165283203125,-0.8503140807151794,0.6711117625236511,1.4201345443725586
1783170411816235300,7.5262353515625,-0.9804036617279053,0.7288316488265991,1.3981659412384033
1783170411826306300,7.536306396484375,-1.0673716068267822,0.8279249668121338,1.3831864595413208
1783170411836376000,7.5463759765625,-1.0715117454528809,0.8925517201423645,1.4182088375091553
1783170411846446300,7.5564462890625,-1.0071996450424194,0.9120509028434753,1.4950166940689087
1783170411856516000,7.56651611328125,-0.9214686155319214,0.9224246144294739,1.580032229423523
1783170411866587100,7.576587158203125,-0.859178364276886,0.9520666599273682,1.6487678289413452
1783170411876657200,7.5866572265625,-0.827929675579071,1.0019205808639526,1.6602345705032349
1783170411886727400,7.5967275390625,-0.8142750859260559,1.0408344268798828,1.6516075134277344
1783170411896798200,7.606798095703125,-0.8254854083061218,1.0369504690170288,1.6855872869491577
1783170411906868200,7.6168681640625,-0.8528621792793274,1.0182234048843384,1.7535964250564575
1783170411916938200,7.626938232421875,-0.9125379920005798,1.043792963027954,1.8280686140060425
1783170411927009300,7.63700927734375,-0.9709203243255615,1.100510835647583,1.8722363710403442
1783170411937079300,7.647079345703125,-0.9879425168037415,1.2048016786575317,1.8822073936462402
1783170411947149300,7.6571494140625,-0.9618943929672241,1.3478683233261108,1.8546311855316162
1783170411957220400,7.667220458984375,-0.8975768685340881,1.5183063745498657,1.8030222654342651
1783170411967289900,7.677289794921875,-0.8170229196548462,1.6475061178207397,1.755880355834961
1783170411977360100,7.687360107421875,-0.7416976094245911,1.7594934701919556,1.6816344261169434
1783170411987431200,7.69743115234375,-0.6892921924591064,1.8453412055969238,1.5880701541900635
1783170411997501000,7.7075009765625,-0.6472476720809937,1.8552517890930176,1.5309486389160156
1783170412007571000,7.717571044921875,-0.6114893555641174,1.864271879196167,1.54197096824646
1783170412017642000,7.72764208984375,-0.5587889552116394,1.9323307275772095,1.6010644435882568
1783170412027711700,7.737711669921875,-0.5082184076309204,1.9358758926391602,1.7193611860275269
1783170412037782000,7.747781982421875,-0.4743207097053528,1.9032554626464844,1.865746259689331
1783170412047852000,7.75785205078125,-0.42175203561782837,1.9960434436798096,1.9347947835922241
1783170412057923000,7.767923095703125,-0.35080909729003906,2.2330105304718018,1.858012318611145
1783170412067992800,7.777992919921875,-0.27587947249412537,2.52293062210083,1.6807743310928345
1783170412078063000,7.78806298828125,-0.18646200001239777,2.7932469844818115,1.4924427270889282
1783170412088134100,7.798134033203125,-0.10275778919458389,3.0404646396636963,1.379622459411621
1783170412098204000,7.808203857421875,-0.01299036294221878,3.2457382678985596,1.3301059007644653
1783170412108274000,7.81827392578125,0.10737333446741104,3.337353229522705,1.3417106866836548
1783170412118345000,7.828344970703125,0.23103748261928558,3.2743124961853027,1.38739812374115
1783170412128415000,7.8384150390625,0.3478884696960449,3.196890115737915,1.4290452003479004
1783170412138485000,7.848485107421875,0.45916202664375305,3.087977170944214,1.4557812213897705
1783170412148556000,7.85855615234375,0.5744207501411438,2.9419445991516113,1.4615888595581055
1783170412158626000,7.8686259765625,0.6911358833312988,2.7828805446624756,1.4347407817840576
1783170412168695800,7.87869580078125,0.7719976902008057,2.6278696060180664,1.3800104856491089
1783170412178766800,7.888766845703125,0.7562379837036133,2.513009786605835,1.3451210260391235
1783170412188837000,7.898837158203125,0.8131505250930786,2.3670854568481445,1.28941011428833
1783170412198907000,7.908906982421875,0.9249743819236755,2.1776926517486572,1.2310633659362793
1783170412208977000,7.918976806640625,1.048059344291687,1.9640806913375854,1.2119072675704956
1783170412219048000,7.9290478515625,1.1424516439437866,1.764405608177185,1.2063308954238892
1783170412229118000,7.939117919921875,1.2027232646942139,1.621163010597229,1.2257444858551025
1783170412239188000,7.94918798828125,1.2561111450195312,1.5054172277450562,1.25529146194458
1783170412249259000,7.959259033203125,1.3019483089447021,1.3826018571853638,1.284660816192627
1783170412259329000,7.9693291015625,1.328920841217041,1.301439881324768,1.2843276262283325
1783170412269399000,7.97939892578125,1.3512487411499023,1.2711232900619507,1.2415580749511719
1783170412279470000,7.989469970703125,1.400207757949829,1.2066670656204224,1.1788655519485474
1783170412289540000,7.9995400390625,1.4708614349365234,1.1148991584777832,1.138171672821045
1783170412299609900,8.00960986328125,1.5495637655258179,1.033817172050476,1.1652274131774902
1783170412309681000,8.019680908203124,1.6267058849334717,1.0170848369598389,1.2071337699890137
1783170412319751000,8.0297509765625,1.6916124820709229,1.010349154472351,1.2196540832519531
1783170412329821000,8.039821044921876,1.743580937385559,0.9812144637107849,1.209351897239685
1783170412339891000,8.049890869140626,1.792817234992981,0.8696372509002686,1.212946891784668
1783170412349962000,8.0599619140625,1.8201556205749512,0.7175287008285522,1.2551971673965454
1783170412360032000,8.070031982421876,1.8104722499847412,0.6287643313407898,1.3088512420654297
1783170412370102000,8.08010205078125,1.7798081636428833,0.6325129866600037,1.2962232828140259
1783170412380173000,8.090173095703125,1.747543215751648,0.6517793536186218,1.1745857000350952
1783170412390243000,8.1002431640625,1.7077322006225586,0.6659836173057556,1.0296095609664917
1783170412400312800,8.110312744140625,1.6696912050247192,0.6720446348190308,0.9334905743598938
1783170412410384000,8.1203837890625,1.6409229040145874,0.6325781941413879,0.890448272228241
1783170412420454100,8.1304541015625,1.6411701440811157,0.5131543874740601,0.8877390027046204
1783170412430524000,8.14052392578125,1.6655218601226807,0.3711514174938202,0.9102773666381836
1783170412440595000,8.150594970703125,1.70834219455719,0.22043262422084808,0.9428820610046387
1783170412450665000,8.1606650390625,1.7522192001342773,0.09391569346189499,0.9840981960296631
1783170412460735000,8.17073486328125,1.780295491218567,0.0859425887465477,1.0171581506729126
1783170412470805000,8.180804931640624,1.7760944366455078,0.21352265775203705,0.9983067512512207
1783170412480876000,8.1908759765625,1.7563621997833252,0.36531656980514526,0.9214409589767456
1783170412490946000,8.200946044921874,1.7253034114837646,0.4606422781944275,0.844683825969696
1783170412501015800,8.211015869140626,1.6970235109329224,0.45286786556243896,0.7998227477073669
1783170412511086800,8.2210869140625,1.6837526559829712,0.36876869201660156,0.80122971534729
1783170412521157000,8.2311572265625,1.6635249853134155,0.32518914341926575,0.8173782825469971
1783170412531227000,8.241226806640626,1.635093331336975,0.30608415603637695,0.8118612766265869
1783170412541298000,8.2512978515625,1.6085056066513062,0.3269897997379303,0.7617746591567993
1783170412551368000,8.261367919921875,1.5856397151947021,0.38043412566185,0.7028674483299255
1783170412561438200,8.271438232421875,1.572108507156372,0.4117746353149414,0.6558248400688171
1783170412571509000,8.281509033203125,1.5666903257369995,0.40584349632263184,0.6362375617027283
1783170412581579000,8.2915791015625,1.5670260190963745,0.36322012543678284,0.6188850402832031
1783170412591649000,8.30164892578125,1.5768696069717407,0.2711501121520996,0.6059213280677795
1783170412601718800,8.31171875,1.5460065603256226,0.21622057259082794,0.5768842697143555
1783170412611789800,8.321789794921875,1.4955921173095703,0.2030525803565979,0.5495748519897461
1783170412621860000,8.331860107421875,1.4335359334945679,0.20881684124469757,0.539807915687561
1783170412631929900,8.341929931640625,1.3744183778762817,0.20617525279521942,0.5425664186477661
1783170412642001000,8.3520009765625,1.3264622688293457,0.20922525227069855,0.5282559990882874
1783170412652071000,8.36207080078125,1.2948471307754517,0.23345282673835754,0.4861368238925934
1783170412662141200,8.37214111328125,1.2901012897491455,0.2831401824951172,0.4305649995803833
1783170412672212000,8.3822119140625,1.2967911958694458,0.3268762230873108,0.37567776441574097
1783170412682282000,8.392281982421874,1.3011715412139893,0.3441650867462158,0.33052003383636475
1783170412692352000,8.40235205078125,1.304184913635254,0.3371119499206543,0.30199334025382996
1783170412702423000,8.412423095703126,1.31727135181427,0.31031325459480286,0.27484288811683655
1783170412712493000,8.4224931640625,1.323447585105896,0.30910152196884155,0.23654478788375854
1783170412722563000,8.43256298828125,1.343126893043518,0.3276934325695038,0.19523023068904877
1783170412732632800,8.4426328125,1.3550653457641602,0.3678475022315979,0.15470144152641296
1783170412742703900,8.452703857421875,1.341768741607666,0.3839530944824219,0.13353118300437927
1783170412752774000,8.46277392578125,1.295568823814392,0.33086296916007996,0.16832831501960754
1783170412762844200,8.47284423828125,1.246023416519165,0.25380828976631165,0.22287186980247498
1783170412772915000,8.4829150390625,1.2204965353012085,0.21407684683799744,0.26408323645591736
1783170412782985000,8.49298486328125,1.2138268947601318,0.209845632314682,0.24628624320030212
1783170412793055000,8.503054931640625,1.2384417057037354,0.21918879449367523,0.18534938991069794
1783170412803125000,8.513125,1.267693042755127,0.2236381322145462,0.13255025446414948
1783170412813196000,8.523196044921875,1.2928303480148315,0.19241949915885925,0.08826588839292526
1783170412823266000,8.53326611328125,1.299985647201538,0.16570347547531128,0.05194872245192528
1783170412833335800,8.543335693359374,1.2842320203781128,0.17044922709465027,-0.019265267997980118
1783170412843406800,8.55340673828125,1.255264401435852,0.17776599526405334,-0.1491859406232834
1783170412853477000,8.56347705078125,1.2115241289138794,0.17112965881824493,-0.35457292199134827
1783170412863547100,8.573547119140626,1.0992937088012695,0.14631140232086182,-0.6346882581710815
1783170412873618000,8.583617919921876,0.9760915637016296,0.10054656863212585,-0.9561967849731445
1783170412883688000,8.59368798828125,0.9049734473228455,-0.11081401258707047,-1.2057369947433472
1783170412893758000,8.603758056640626,0.8669482469558716,-0.3611181378364563,-1.2411677837371826
1783170412903828000,8.613827880859375,0.8044731020927429,-0.6666455864906311,-1.1276289224624634
1783170412913899000,8.62389892578125,0.7167350053787231,-1.069912314414978,-0.9385279417037964
1783170412923969000,8.633968994140625,0.6809517741203308,-1.4025806188583374,-0.7370167970657349
1783170412934038800,8.644038818359375,0.7004695534706116,-1.5657227039337158,-0.5734843015670776
1783170412944109800,8.65410986328125,0.7294822931289673,-1.630351185798645,-0.5405527353286743
1783170412954180000,8.66418017578125,0.7019332647323608,-1.6228361129760742,-0.6546849012374878
1783170412964249000,8.6742490234375,0.601140022277832,-1.524727702140808,-0.8553627729415894
1783170412974320000,8.684320068359375,0.2328144907951355,-1.0862864255905151,-0.9676973223686218
1783170412984390100,8.69439013671875,-0.04007086530327797,-1.151705265045166,-1.185314655303955
1783170412994460200,8.704460205078124,-0.12180513888597488,-1.4773986339569092,-1.3026891946792603
1783170413004530200,8.7145302734375,-0.10902299731969833,-1.6585649251937866,-1.2601150274276733
1783170413014601200,8.724601318359374,-0.03849130496382713,-1.7193247079849243,-0.9970929026603699
1783170413024671000,8.7346708984375,0.017814282327890396,-1.6116656064987183,-0.6584026217460632
1783170413034741200,8.7447412109375,0.055970724672079086,-1.4429417848587036,-0.3808032274246216
1783170413044812300,8.754812255859376,0.11973772943019867,-1.375633716583252,-0.21262946724891663
1783170413054882000,8.764882080078126,0.21732047200202942,-1.2765811681747437,-0.05241263285279274
1783170413064952000,8.7749521484375,0.30130061507225037,-0.9609790444374084,0.08955049514770508
1783170413075023000,8.785023193359375,0.3728504478931427,-0.5539281368255615,0.10093764215707779
1783170413085093400,8.79509326171875,0.48404037952423096,-0.2718020975589752,-0.0374341644346714
1783170413095163100,8.8051630859375,0.5688124895095825,-0.0928158313035965,-0.2611444890499115
1783170413105233200,8.815233154296875,0.5726724863052368,0.026462223380804062,-0.3978470265865326
1783170413115304200,8.82530419921875,0.5056604146957397,0.13929370045661926,-0.3934312164783478
1783170413125374000,8.8353740234375,0.44846048951148987,0.1744251847267151,-0.3150370121002197
1783170413135444200,8.8454443359375,0.3499775826931,0.1765328049659729,-0.1842462569475174
1783170413145515300,8.855515380859375,0.2862410545349121,0.1435249298810959,-0.03732016682624817
1783170413155585000,8.8655849609375,0.3206368386745453,0.07007388770580292,0.0886705219745636
1783170413165655000,8.875655029296874,0.38530048727989197,0.05855145305395126,0.15888965129852295
1783170413175725300,8.885725341796874,0.430314838886261,0.09792522341012955,0.09067358821630478
1783170413185796400,8.89579638671875,0.4199976921081543,0.20470252633094788,-0.05521261319518089
1783170413195866000,8.9058662109375,0.39614561200141907,0.3206408619880676,-0.13693997263908386
1783170413205936000,8.91593603515625,0.3148936629295349,0.17184537649154663,0.13767842948436737
1783170413216007200,8.926007080078126,0.215999573469162,-0.4353313446044922,0.2166917622089386
1783170413226077200,8.9360771484375,0.16262000799179077,-0.7528419494628906,0.28588610887527466
1783170413236147200,8.946147216796875,0.1913350224494934,-0.685108482837677,0.32196158170700073
1783170413246218200,8.95621826171875,0.2375832200050354,-0.47117459774017334,0.27707672119140625
1783170413256288000,8.9662880859375,0.2987602949142456,-0.2782999277114868,0.17647100985050201
1783170413266358000,8.97635791015625,0.3425508737564087,-0.12434166669845581,0.14967243373394012
1783170413276428300,8.98642822265625,0.326955646276474,-0.0006548827514052391,0.30580103397369385
